File: hust_correlation_analysis/matrices/HUST_10-4_cycle_feature_matrix.csv
cycle_number,rul,voltage,current,capacity,charge_capacity
1,1813,3.30323,0.0254844,0.324402,1.06313
3,1811,3.2894,-0.00562616,0.339648,1.03508
5,1809,3.29206,-0.00503909,0.338181,1.03852
7,1807,3.29262,-0.00659246,0.337579,1.04017
9,1805,3.29361,-0.00551444,0.33657,1.04378
11,1803,3.29555,-0.00402589,0.33515,1.04546
13,1801,3.29632,-0.0049393,0.334578,1.04753
15,1799,3.29781,-0.0037973,0.333363,1.0488
17,1797,3.29801,-0.00381501,0.332962,1.04896
19,1795,3.29881,-0.00277704,0.332162,1.05002
21,1793,3.2985,-0.00445362,0.332202,1.05122
23,1791,3.30007,-0.00322566,0.331442,1.05255
25,1789,3.30017,-0.00385092,0.330829,1.05226
27,1787,3.30056,-0.00345494,0.330426,1.05272
29,1785,3.30022,-0.003442,0.330434,1.05272
31,1783,3.30096,-0.00297422,0.32996,1.05335
33,1781,3.30228,-0.00197833,0.328862,1.05439
35,1779,3.3008,-0.00511277,0.329912,1.05419
37,1777,3.30256,-0.00242002,0.328473,1.05424
39,1775,3.3009,-0.00463611,0.329519,1.0547
41,1773,3.30095,-0.00525064,0.32952,1.05426
43,1771,3.30142,-0.00466224,0.329129,1.05484
45,1769,3.30273,-0.00214412,0.328083,1.05461
47,1767,3.30334,-0.00256313,0.327693,1.05445
49,1765,3.30271,-0.00261434,0.328084,1.05428
51,1763,3.30287,-0.00258704,0.327696,1.05446
53,1761,3.30328,-0.00265859,0.327827,1.0544
55,1759,3.30328,-0.00316024,0.327693,1.05403
57,1757,3.30345,-0.00306309,0.327305,1.05426
59,1755,3.3029,-0.00315802,0.327694,1.05404
61,1753,3.30281,-0.00378011,0.327695,1.05359
63,1751,3.30295,-0.0035764,0.327692,1.05374
65,1749,3.30337,-0.00406002,0.327308,1.05354
67,1747,3.30365,-0.00401215,0.32692,1.05373
69,1745,3.30263,-0.0046288,0.328007,1.05298
71,1743,3.30269,-0.00463055,0.327308,1.05314
73,1741,3.3037,-0.00454647,0.326709,1.05334
75,1739,3.30471,-0.00209428,0.326265,1.05318
77,1737,3.30467,-0.00247621,0.326263,1.05263
79,1735,3.30431,-0.00248685,0.32626,1.05262
81,1733,3.30372,-0.00319226,0.326651,1.05198
83,1731,3.30415,-0.00309618,0.326259,1.05217
85,1729,3.30475,-0.00346866,0.326051,1.05193
87,1727,3.30468,-0.00344395,0.326053,1.05195
89,1725,3.30417,-0.00403305,0.326437,1.05112
91,1723,3.30369,-0.00404993,0.326437,1.05134
93,1721,3.30353,-0.00406576,0.326649,1.05135
95,1719,3.30416,-0.00409138,0.326264,1.05147
97,1717,3.30414,-0.0045881,0.326436,1.05097
99,1715,3.30389,-0.00454699,0.326435,1.051
101,1713,3.30323,-0.0051484,0.326824,1.05041
103,1711,3.30367,-0.00517418,0.326438,1.05054
105,1709,3.30495,-0.0029641,0.325783,1.04993
107,1707,3.30526,-0.00287312,0.325394,1.05014
109,1705,3.30517,-0.00287917,0.325392,1.05014
111,1703,3.30465,-0.00351174,0.325778,1.04952
113,1701,3.30465,-0.00354966,0.325778,1.04951
115,1699,3.30473,-0.00346688,0.325779,1.04983
117,1697,3.30484,-0.00410438,0.325779,1.04909
119,1695,3.30465,-0.00396064,0.325779,1.04919
121,1693,3.30393,-0.00410498,0.326164,1.04896
123,1691,3.30425,-0.00462188,0.326169,1.0486
125,1689,3.30416,-0.00450936,0.32617,1.04867
127,1687,3.30413,-0.00500026,0.326167,1.04831
129,1685,3.30394,-0.00493834,0.326165,1.04833
131,1683,3.30541,-0.0024159,0.325121,1.04809
133,1681,3.30553,-0.00287862,0.325121,1.04776
135,1679,3.30562,-0.00285248,0.325122,1.04778
137,1677,3.305,-0.0029084,0.325506,1.0476
139,1675,3.3051,-0.00342623,0.325508,1.04721
141,1673,3.30442,-0.00348263,0.325897,1.04703
143,1671,3.30496,-0.00343337,0.325509,1.04722
145,1669,3.30505,-0.00391933,0.325897,1.04697
147,1667,3.3049,-0.00393479,0.325898,1.04671
149,1665,3.3042,-0.0039568,0.325898,1.04669
151,1663,3.30388,-0.00389246,0.326284,1.04659
153,1661,3.30473,-0.00447244,0.325896,1.0463
155,1659,3.30477,-0.00434351,0.325895,1.04639
157,1657,3.30383,-0.00498757,0.326282,1.04605
159,1655,3.30387,-0.00522083,0.326281,1.0456
161,1653,3.30487,-0.00244738,0.32545,1.04554
163,1651,3.304,-0.00503679,0.326282,1.046
165,1649,3.30527,-0.00284665,0.325876,1.04526
167,1647,3.30528,-0.00285395,0.325239,1.04525
169,1645,3.30439,-0.00304077,0.325834,1.04494
171,1643,3.30415,-0.00315695,0.325916,1.04462
173,1641,3.3051,-0.00292104,0.325452,1.04521
175,1639,3.30507,-0.00351814,0.325626,1.04462
177,1637,3.30459,-0.00349287,0.325627,1.04465
179,1635,3.30428,-0.00346872,0.325719,1.04464
181,1633,3.30462,-0.00405496,0.325624,1.04422
183,1631,3.30405,-0.0041117,0.32623,1.04405
185,1629,3.30459,-0.00397891,0.325626,1.04429
187,1627,3.30437,-0.00437502,0.325624,1.04401
189,1625,3.30323,-0.00462534,0.326409,1.04353
191,1623,3.30379,-0.00458619,0.326016,1.04369
193,1621,3.30418,-0.0044764,0.326016,1.04379
195,1619,3.30411,-0.00508897,0.326017,1.04334
197,1617,3.30371,-0.00502523,0.326017,1.04339
199,1615,3.30312,-0.00517135,0.326407,1.04312
201,1613,3.30331,-0.00520183,0.326486,1.0431
203,1611,3.30496,-0.00264214,0.325571,1.04285
205,1609,3.30495,-0.00252314,0.325566,1.04294
207,1607,3.30461,-0.00256749,0.325571,1.04289
209,1605,3.30391,-0.00239097,0.325955,1.04286
211,1603,3.30337,-0.0079833,0.326715,1.0431
213,1601,3.30419,-0.00327304,0.325962,1.04225
215,1599,3.30422,-0.00325568,0.325748,1.04227
217,1597,3.30336,-0.00341747,0.325965,1.042
219,1595,3.30355,-0.00330839,0.326036,1.04222
221,1593,3.30377,-0.00328794,0.325957,1.04223
223,1591,3.30341,-0.00391582,0.326348,1.04163
225,1589,3.30373,-0.00385091,0.325959,1.04183
227,1587,3.30304,-0.00438382,0.326352,1.04156
229,1585,3.30363,-0.0042959,0.325752,1.04151
231,1583,3.304,-0.00473291,0.325749,1.04119
233,1581,3.30297,-0.00479227,0.326353,1.04102
235,1579,3.3031,-0.00467655,0.32596,1.04125
237,1577,3.30268,-0.00486392,0.326353,1.04097
239,1575,3.30489,-0.00218555,0.325338,1.04094
241,1573,3.30471,-0.00264599,0.325306,1.04048
243,1571,3.30304,-0.0053186,0.326141,1.04063
245,1569,3.30406,-0.002732,0.325307,1.04041
247,1567,3.30357,-0.00327051,0.3257,1.03989
249,1565,3.30467,-0.00316195,0.325522,1.04013
251,1563,3.30477,-0.00359123,0.325098,1.03981
253,1561,3.30438,-0.00360941,0.325097,1.03981
255,1559,3.30355,-0.00362111,0.325487,1.03963
257,1557,3.30365,-0.00370945,0.325307,1.03971
259,1555,3.3046,-0.00368754,0.325095,1.03974
261,1553,3.304,-0.00424322,0.325698,1.03944
263,1551,3.30384,-0.00417996,0.325484,1.03924
265,1549,3.303,-0.00430363,0.325879,1.03899
267,1547,3.30308,-0.00431306,0.325698,1.03912
269,1545,3.30297,-0.00475621,0.326092,1.03868
271,1543,3.30373,-0.00468633,0.325486,1.03888
273,1541,3.3037,-0.00510434,0.325483,1.03857
275,1539,3.30293,-0.00529748,0.325882,1.03828
277,1537,3.30304,-0.00524928,0.325879,1.03832
279,1535,3.30346,-0.00514241,0.325484,1.03853
281,1533,3.30503,-0.00254114,0.32444,1.03833
283,1531,3.30418,-0.00322232,0.325226,1.03753
285,1529,3.30418,-0.0031359,0.325043,1.03773
287,1527,3.30455,-0.00303028,0.324831,1.03781
289,1525,3.30458,-0.00320814,0.324832,1.0377
291,1523,3.30435,-0.00355774,0.325259,1.03744
293,1521,3.3041,-0.00356021,0.324837,1.03745
295,1519,3.30436,-0.00355454,0.324616,1.03746
297,1517,3.30462,-0.00360077,0.324831,1.03742
299,1515,3.30402,-0.00408636,0.325225,1.03692
301,1513,3.30367,-0.00410383,0.325225,1.03691
303,1511,3.30334,-0.0041856,0.325226,1.03684
305,1509,3.30374,-0.00420576,0.325223,1.03684
307,1507,3.3039,-0.0041864,0.325226,1.03686
309,1505,3.3037,-0.00459724,0.325302,1.03656
311,1503,3.3031,-0.0047269,0.325621,1.03633
313,1501,3.30301,-0.00521413,0.32562,1.03596
315,1499,3.30328,-0.00517784,0.325622,1.03601
317,1497,3.30312,-0.00512573,0.325621,1.03604
319,1495,3.30512,-0.0024406,0.324183,1.03604
321,1493,3.30407,-0.00304413,0.324966,1.03529
323,1491,3.30454,-0.00297444,0.32457,1.0355
325,1489,3.30477,-0.00299179,0.324573,1.03549
327,1487,3.30449,-0.00305,0.324572,1.03543
329,1485,3.30399,-0.00356754,0.324968,1.03493
331,1483,3.30396,-0.00358065,0.324968,1.03491
333,1481,3.30473,-0.00351233,0.324572,1.0351
335,1479,3.30474,-0.00347486,0.324572,1.03539
337,1477,3.30396,-0.00395051,0.324966,1.03465
339,1475,3.30326,-0.00406936,0.325363,1.03442
341,1473,3.30364,-0.00411609,0.324967,1.03451
343,1471,3.30414,-0.00404049,0.324966,1.03458
345,1469,3.30429,-0.00452071,0.324963,1.0345
347,1467,3.30371,-0.0044893,0.324964,1.03425
349,1465,3.30309,-0.0047131,0.325361,1.03395
351,1463,3.30314,-0.00461659,0.325437,1.03401
353,1461,3.30351,-0.00508826,0.325365,1.03369
355,1459,3.30339,-0.00500351,0.325364,1.03376
357,1457,3.30285,-0.00520697,0.325761,1.03346
359,1455,3.30434,-0.00297988,0.324715,1.03297
361,1453,3.30506,-0.00280739,0.324318,1.03324
363,1451,3.30491,-0.00277823,0.324315,1.03324
365,1449,3.30458,-0.00285026,0.324315,1.03322
367,1447,3.30401,-0.00296232,0.324712,1.03297
369,1445,3.30432,-0.00346957,0.324711,1.03261
371,1443,3.30453,-0.00348784,0.324711,1.0326
373,1441,3.3044,-0.00345704,0.324712,1.03264
375,1439,3.30377,-0.00394097,0.325109,1.03213
377,1437,3.30355,-0.00398181,0.325186,1.0321
379,1435,3.30429,-0.00385075,0.324711,1.03234
381,1433,3.30404,-0.00402658,0.325108,1.03207
383,1431,3.30398,-0.00395394,0.324711,1.03253
385,1429,3.3036,-0.00397335,0.324708,1.03223
387,1427,3.30357,-0.00409084,0.32471,1.03215
389,1425,3.30342,-0.0041611,0.325102,1.03195
391,1423,3.30348,-0.0045978,0.325101,1.03165
393,1421,3.30333,-0.00461304,0.325103,1.03162
395,1419,3.30316,-0.0046133,0.325102,1.03163
397,1417,3.30352,-0.00466643,0.325101,1.0316
399,1415,3.30348,-0.00515169,0.3251,1.03124
401,1413,3.30295,-0.00506728,0.325101,1.0313
403,1411,3.30242,-0.0052983,0.3255,1.031
405,1409,3.30386,-0.00264119,0.324588,1.03078
407,1407,3.30333,-0.0052004,0.325101,1.03147
409,1405,3.30451,-0.0030172,0.324452,1.03054
411,1403,3.304,-0.00309708,0.324663,1.03046
413,1401,3.30387,-0.00315506,0.32406,1.03067
415,1399,3.30411,-0.00307672,0.32445,1.03049
417,1397,3.30418,-0.00356184,0.32445,1.03013
419,1395,3.30448,-0.00346868,0.324055,1.03035
421,1393,3.30383,-0.00357888,0.324447,1.03011
423,1391,3.30356,-0.00413957,0.324927,1.02959
425,1389,3.3041,-0.0039912,0.324448,1.02983
427,1387,3.30385,-0.00410947,0.324541,1.02974
429,1385,3.30316,-0.00418771,0.324846,1.02953
431,1383,3.30303,-0.00418292,0.32485,1.02956
433,1381,3.30394,-0.00408033,0.324446,1.02976
435,1379,3.30356,-0.00462942,0.32485,1.02925
437,1377,3.30367,-0.0045391,0.324541,1.02945
439,1375,3.30268,-0.0051868,0.325246,1.02869
441,1373,3.30309,-0.0050824,0.324848,1.0289
443,1371,3.30336,-0.00507126,0.324848,1.02894
445,1369,3.30327,-0.00516405,0.324849,1.02886
447,1367,3.30276,-0.0056731,0.325245,1.02834
449,1365,3.30414,-0.00305727,0.324195,1.02811
451,1363,3.30447,-0.00295991,0.324102,1.02831
453,1361,3.30421,-0.00309009,0.324193,1.02806
455,1359,3.30411,-0.00296805,0.323768,1.02831
457,1357,3.30334,-0.0036414,0.324593,1.02755
459,1355,3.30415,-0.00351877,0.324197,1.02779
461,1353,3.30451,-0.00352461,0.324194,1.02779
463,1351,3.30416,-0.00393142,0.324194,1.02749
465,1349,3.30323,-0.00401738,0.324592,1.02727
467,1347,3.30304,-0.00410792,0.324912,1.02722
469,1345,3.30326,-0.00418994,0.324807,1.02692
471,1343,3.30347,-0.00414896,0.324595,1.02719
473,1341,3.3036,-0.00461065,0.324592,1.02713
475,1339,3.30249,-0.00469782,0.325204,1.02664
477,1337,3.30356,-0.00465503,0.324804,1.02682
479,1335,3.30503,-0.00181335,0.324184,1.02673
481,1333,3.30304,-0.00502745,0.324991,1.02641
483,1331,3.30261,-0.00501452,0.324991,1.02639
485,1329,3.30416,-0.00239991,0.324156,1.02617
487,1327,3.30442,-0.00240357,0.324155,1.02616
489,1325,3.30461,-0.00281978,0.323945,1.02587
491,1323,3.30422,-0.00283924,0.323941,1.02586
493,1321,3.30363,-0.00290258,0.324153,1.02579
495,1319,3.30397,-0.00295125,0.324155,1.02576
497,1317,3.30372,-0.00340871,0.324979,1.0253
499,1315,3.30408,-0.00326802,0.324153,1.02582
501,1313,3.30324,-0.00337522,0.324551,1.02532
503,1311,3.30347,-0.00354153,0.324554,1.02521
505,1309,3.30363,-0.00397229,0.324553,1.02489
507,1307,3.30366,-0.00395486,0.324338,1.02491
509,1305,3.30309,-0.00390997,0.324644,1.02493
511,1303,3.30294,-0.00403028,0.324464,1.02485
513,1301,3.30321,-0.00455001,0.324955,1.02435
515,1299,3.3034,-0.00444353,0.324551,1.02456
517,1297,3.30334,-0.00440651,0.324339,1.0246
519,1295,3.30404,-0.00233016,0.323812,1.02382
521,1293,3.30291,-0.00501548,0.324738,1.024
523,1291,3.30369,-0.00232392,0.323902,1.02381
525,1289,3.304,-0.00278727,0.323901,1.0235
527,1287,3.30374,-0.00233491,0.323992,1.02381
529,1285,3.30396,-0.00295643,0.3239,1.02336
531,1283,3.30421,-0.00288809,0.3239,1.02366
533,1281,3.30402,-0.00286783,0.323902,1.02197
535,1279,3.30335,-0.00291485,0.324396,1.02326
537,1277,3.30299,-0.00303155,0.3243,1.02316
539,1275,3.3035,-0.00354226,0.324299,1.02281
541,1273,3.30339,-0.00349429,0.324303,1.02284
543,1271,3.30375,-0.00340059,0.3239,1.02305
545,1269,3.30317,-0.00349792,0.324299,1.02283
547,1267,3.30315,-0.00409416,0.324302,1.02241
549,1265,3.30319,-0.00404314,0.324303,1.02101
551,1263,3.30286,-0.0045762,0.324491,1.02194
553,1261,3.30236,-0.00458401,0.324705,1.02192
555,1259,3.30266,-0.00473254,0.3243,1.02196
557,1257,3.30297,-0.00461625,0.324299,1.02203
559,1255,3.30417,-0.00237723,0.323654,1.02139
561,1253,3.30389,-0.00242783,0.323652,1.02135
563,1251,3.3039,-0.00252191,0.323653,1.02129
565,1249,3.30395,-0.00250255,0.323655,1.02128
567,1247,3.30412,-0.00294326,0.323843,1.02084
569,1245,3.30381,-0.00288261,0.32397,1.02103
571,1243,3.30326,-0.00295637,0.324057,1.02083
573,1241,3.30396,-0.00296048,0.323651,1.02097
575,1239,3.30366,-0.00346544,0.324058,1.02047
577,1237,3.30364,-0.00334235,0.323651,1.02069
579,1235,3.30279,-0.00352281,0.324247,1.02029
581,1233,3.30291,-0.00345799,0.324056,1.02047
583,1231,3.3034,-0.00399765,0.324009,1.0201
585,1229,3.30318,-0.0039787,0.32413,1.0201
587,1227,3.30272,-0.00454074,0.324454,1.01955
589,1225,3.30241,-0.00455223,0.324459,1.01955
591,1223,3.30316,-0.00451244,0.324109,1.01972
593,1221,3.30424,-0.00185674,0.323407,1.01935
595,1219,3.30382,-0.0022403,0.323406,1.01908
597,1217,3.3036,-0.00230083,0.323408,1.01881
599,1215,3.30405,-0.00234681,0.323408,1.01901
601,1213,3.30459,-0.00235928,0.323194,1.019
603,1211,3.30416,-0.00283774,0.323192,1.01864
605,1209,3.30304,-0.00293485,0.323806,1.01841
607,1207,3.30346,-0.00299446,0.32372,1.01853
609,1205,3.30363,-0.00294825,0.323402,1.01856
611,1203,3.30364,-0.0030085,0.323404,1.01852
613,1201,3.30239,-0.00364751,0.324214,1.01773
615,1199,3.30282,-0.00350004,0.323808,1.01803
617,1197,3.30331,-0.00340849,0.323808,1.01811
619,1195,3.30364,-0.00400641,0.323914,1.01768
621,1193,3.30281,-0.00406226,0.323807,1.01764
623,1191,3.30222,-0.00467428,0.324209,1.01705
625,1189,3.30249,-0.00465443,0.324212,1.01709
627,1187,3.30224,-0.0045546,0.324207,1.01714
629,1185,3.30267,-0.00463152,0.323807,1.01724
631,1183,3.30322,-0.00202975,0.323565,1.01667
633,1181,3.30272,-0.0051885,0.323999,1.01669
635,1179,3.30411,-0.00240624,0.323161,1.01657
637,1177,3.30417,-0.00287115,0.32295,1.01623
639,1175,3.30322,-0.00301464,0.323566,1.01597
641,1173,3.30329,-0.00303329,0.323357,1.01596
643,1171,3.30349,-0.00299968,0.323355,1.016
645,1169,3.30358,-0.00345248,0.323447,1.01569
647,1167,3.30314,-0.00342964,0.323566,1.01569
649,1165,3.30286,-0.00355149,0.323566,1.01558
651,1163,3.30307,-0.00359813,0.323568,1.01556
653,1161,3.30343,-0.00405588,0.323354,1.01524
655,1159,3.30347,-0.00397555,0.322947,1.01545
657,1157,3.30198,-0.00414038,0.323973,1.01504
659,1155,3.3026,-0.00472904,0.32376,1.01464
661,1153,3.30285,-0.00467782,0.323734,1.01468
663,1151,3.30217,-0.00469558,0.323973,1.01467
665,1149,3.30211,-0.00473274,0.323758,1.01462
667,1147,3.30223,-0.00476502,0.323758,1.01461
669,1145,3.30392,-0.00255342,0.322918,1.01405
671,1143,3.30231,-0.00529872,0.323756,1.01422
673,1141,3.30287,-0.00305421,0.323521,1.01341
675,1139,3.30318,-0.00302225,0.323117,1.01359
677,1137,3.30395,-0.00287599,0.322709,1.01383
679,1135,3.30367,-0.00346352,0.323114,1.01329
681,1133,3.30337,-0.00358469,0.323116,1.01319
683,1131,3.303,-0.00361456,0.323118,1.01342
685,1129,3.30335,-0.00357591,0.323114,1.01321
687,1127,3.30282,-0.00410801,0.32352,1.01294
689,1125,3.30284,-0.00410012,0.323114,1.01283
691,1123,3.30216,-0.00424757,0.323448,1.01258
693,1121,3.30269,-0.00473601,0.323951,1.01224
695,1119,3.30277,-0.00458106,0.323521,1.01235
697,1117,3.30261,-0.00505816,0.323521,1.01202
699,1115,3.30187,-0.00511893,0.32393,1.01183
701,1113,3.30244,-0.00510335,0.323523,1.01198
703,1111,3.30424,-0.00235135,0.32247,1.01179
705,1109,3.30365,-0.0029222,0.322877,1.01105
707,1107,3.30316,-0.00290349,0.322877,1.01125
709,1105,3.3033,-0.00304236,0.322877,1.01117
711,1103,3.30417,-0.00285175,0.322467,1.01144
713,1101,3.30371,-0.00339067,0.322876,1.01092
715,1099,3.30302,-0.00349706,0.323285,1.01071
717,1097,3.30289,-0.00403847,0.323283,1.01032
719,1095,3.3031,-0.00397854,0.323283,1.01035
721,1093,3.30281,-0.00395496,0.323283,1.01038
723,1091,3.3026,-0.00443907,0.323277,1.01002
725,1089,3.30216,-0.00463321,0.323694,1.00976
727,1087,3.30287,-0.00459101,0.323282,1.00991
729,1085,3.30306,-0.00456998,0.32328,1.00994
731,1083,3.30254,-0.00498151,0.323279,1.00964
733,1081,3.30186,-0.00515995,0.323689,1.00937
735,1079,3.30249,-0.00511315,0.323276,1.00932
737,1077,3.30364,-0.00234003,0.322634,1.00923
739,1075,3.30315,-0.00292814,0.322847,1.00881
741,1073,3.30246,-0.00308263,0.323256,1.00856
743,1071,3.30297,-0.00299852,0.322846,1.00875
745,1069,3.3038,-0.00345822,0.322633,1.00843
747,1067,3.30331,-0.00339017,0.322633,1.00849
749,1065,3.30204,-0.00353135,0.323255,1.00824
751,1063,3.30248,-0.0040514,0.322845,1.00801
753,1061,3.30271,-0.00410775,0.322846,1.00797
755,1059,3.30194,-0.00428795,0.323254,1.00772
757,1057,3.30151,-0.00474713,0.323662,1.00722
759,1055,3.30145,-0.00486441,0.323663,1.00716
761,1053,3.30252,-0.00471623,0.323043,1.00742
763,1051,3.30385,-0.00237211,0.322198,1.00691
765,1049,3.30317,-0.00244426,0.32261,1.00673
767,1047,3.30164,-0.00529908,0.323449,1.00685
769,1045,3.30378,-0.0024932,0.321988,1.00683
771,1043,3.30322,-0.00305484,0.322398,1.00628
773,1041,3.30254,-0.00297584,0.322607,1.00634
775,1039,3.30266,-0.00305235,0.322398,1.00629
777,1037,3.30325,-0.00352527,0.322397,1.00596
779,1035,3.30253,-0.00356187,0.323019,1.00581
781,1033,3.30309,-0.00346327,0.32249,1.00602
783,1031,3.30241,-0.00411052,0.322809,1.00541
785,1029,3.30258,-0.00405384,0.322809,1.00546
787,1027,3.30225,-0.00459098,0.323021,1.00508
789,1025,3.30202,-0.00464233,0.32322,1.00492
791,1023,3.30136,-0.00468938,0.323223,1.00487
793,1021,3.30191,-0.00517876,0.323221,1.00454
795,1019,3.30196,-0.00524094,0.323219,1.0045
797,1017,3.30337,-0.00236943,0.321965,1.0045
799,1015,3.30293,-0.00250396,0.322164,1.00427
801,1013,3.30296,-0.00301764,0.322375,1.00389
803,1011,3.30323,-0.00309846,0.322165,1.00385
805,1009,3.30279,-0.00354709,0.322576,1.00341
807,1007,3.30191,-0.00360601,0.322995,1.00322
809,1005,3.30226,-0.00354557,0.322579,1.00339
811,1003,3.30278,-0.00404695,0.322576,1.00305
813,1001,3.30292,-0.00394877,0.322165,1.00327
815,999,3.30216,-0.00406907,0.322648,1.00304
817,997,3.30213,-0.00472082,0.322989,1.00244
819,995,3.30268,-0.00461563,0.322579,1.00266
821,993,3.30221,-0.00461242,0.322578,1.00268
823,991,3.30133,-0.00474932,0.322986,1.00239
825,989,3.30123,-0.00546572,0.323404,1.00178
827,987,3.30172,-0.00524623,0.322988,1.00233
829,985,3.30271,-0.00300521,0.322344,1.00135
831,983,3.3024,-0.00312159,0.32235,1.00126
833,981,3.30269,-0.00301249,0.322351,1.00136
835,979,3.30305,-0.00344497,0.322776,1.00106
837,977,3.30297,-0.00334401,0.321933,1.00126
839,975,3.30207,-0.00358051,0.322347,1.00094
841,973,3.30178,-0.0041733,0.322762,1.0004
843,971,3.30243,-0.00405228,0.322345,1.00061
845,969,3.30216,-0.00409789,0.322344,1.00058
847,967,3.3013,-0.00479638,0.323175,0.99982
849,965,3.30154,-0.00475802,0.322972,0.99997
851,963,3.30338,-0.00183099,0.321917,1.00015
853,961,3.30165,-0.00518691,0.322489,0.999694
855,959,3.30114,-0.00521261,0.323172,0.999523
857,957,3.30294,-0.0029742,0.322546,0.998939
859,955,3.30267,-0.00298122,0.32219,0.997574
861,953,3.30247,-0.00347807,0.32212,0.998588
863,951,3.3018,-0.00359514,0.322534,0.998357
865,949,3.30221,-0.00354937,0.322118,0.998537
867,947,3.30258,-0.00345315,0.322117,0.998871
869,945,3.30254,-0.00392862,0.322119,0.998294
871,943,3.30177,-0.0040584,0.322534,0.998063
873,941,3.30208,-0.00456533,0.322534,0.997713
875,939,3.30238,-0.00446157,0.322119,0.997919
877,937,3.30192,-0.00501341,0.322625,0.99739
879,935,3.30112,-0.00519441,0.322953,0.997111
881,933,3.30087,-0.00524829,0.322949,0.997072
883,931,3.30299,-0.00243702,0.321481,0.997036
885,929,3.30294,-0.00291764,0.321478,0.996701
887,927,3.30217,-0.00309044,0.321983,0.996421
889,925,3.30277,-0.00307942,0.321477,0.99658
891,923,3.30263,-0.0036025,0.321892,0.996093
893,921,3.30268,-0.00349176,0.321903,0.996307
895,919,3.30186,-0.00360599,0.321893,0.996082
897,917,3.30179,-0.0042498,0.322311,0.995491
899,915,3.30166,-0.00426391,0.322311,0.995493
901,913,3.30136,-0.00477596,0.322305,0.995127
903,911,3.30063,-0.00496433,0.322731,0.994858
905,909,3.3014,-0.00483763,0.322403,0.995079
907,907,3.30159,-0.00484572,0.322308,0.995076
909,905,3.30113,-0.00537861,0.322308,0.994704
911,903,3.30043,-0.00553048,0.322725,0.994454
913,901,3.3028,-0.00259509,0.321252,0.994479
915,899,3.30242,-0.00307462,0.321671,0.994034
917,897,3.30178,-0.0036002,0.322089,0.993522
919,895,3.3015,-0.00366193,0.322088,0.993466
921,893,3.30209,-0.00356982,0.321672,0.993673
923,891,3.30161,-0.00422345,0.32209,0.993073
925,889,3.30131,-0.00415483,0.322087,0.993118
927,887,3.30129,-0.0042665,0.322087,0.99304
929,885,3.30163,-0.00474332,0.322155,0.992708
931,883,3.30148,-0.00468337,0.322085,0.992751
933,881,3.30081,-0.00525938,0.322507,0.992209
935,879,3.30054,-0.00534226,0.322505,0.992153
937,877,3.30262,-0.00238475,0.321448,0.992055
939,875,3.3023,-0.00289886,0.321879,0.991693
941,873,3.30137,-0.00359549,0.322291,0.990937
943,871,3.30143,-0.00360658,0.322287,0.990921
945,869,3.30169,-0.00354876,0.322078,0.991084
947,867,3.3014,-0.00422751,0.322289,0.990501
949,865,3.30104,-0.00424351,0.322289,0.990478
951,863,3.30117,-0.00425132,0.322288,0.990483
953,861,3.30101,-0.00478475,0.322288,0.99011
955,859,3.30093,-0.0047083,0.321863,0.990294
957,857,3.30008,-0.00545216,0.322707,0.98948
959,855,3.30033,-0.00540615,0.322707,0.989541
961,853,3.30198,-0.00252759,0.321649,0.989363
963,851,3.30165,-0.00303176,0.321649,0.989018
965,849,3.30139,-0.00309464,0.321652,0.988989
967,847,3.3019,-0.00358182,0.32165,0.988628
969,845,3.3017,-0.00355123,0.321648,0.988647
971,843,3.30132,-0.00414423,0.32207,0.9881
973,841,3.30092,-0.00422425,0.322071,0.988037
975,839,3.30073,-0.00426235,0.32228,0.988014
977,837,3.30053,-0.00474413,0.322282,0.987672
979,835,3.30009,-0.00481198,0.322492,0.987489
981,833,3.3001,-0.00534876,0.32249,0.987113
983,831,3.30189,-0.00257609,0.321431,0.986879
985,829,3.30189,-0.00295746,0.321433,0.98663
987,827,3.30069,-0.0031048,0.32207,0.986348
989,825,3.30139,-0.00304745,0.321646,0.986547
991,823,3.30138,-0.00363391,0.322285,0.986011
993,821,3.30139,-0.00355469,0.321363,0.986205
995,819,3.29989,-0.00426841,0.322494,0.985426
997,817,3.30092,-0.00420515,0.321924,0.98562
999,815,3.30048,-0.00478352,0.322279,0.98508
1001,813,3.30011,-0.00474772,0.322279,0.985083
1003,811,3.30084,-0.00256342,0.321859,0.984281
1005,809,3.30149,-0.00244262,0.321433,0.984508
1007,807,3.30105,-0.00303975,0.321861,0.983969
1009,805,3.3011,-0.00296266,0.321644,0.984013
1011,803,3.30073,-0.00307709,0.321859,0.983939
1013,801,3.30101,-0.00353042,0.321858,0.983627
1015,799,3.30116,-0.00414302,0.321643,0.983218
1017,797,3.30038,-0.00416547,0.322069,0.983036
1019,795,3.30095,-0.00406162,0.321642,0.983266
1021,793,3.30061,-0.00467702,0.322068,0.982692
1023,791,3.29998,-0.00467401,0.322066,0.982687
1025,789,3.2992,-0.0049525,0.322822,0.982374
1027,787,3.30108,-0.00240823,0.321652,0.981955
1029,785,3.30118,-0.00294794,0.321436,0.981567
1031,783,3.30078,-0.00295343,0.321433,0.981554
1033,781,3.30077,-0.00309108,0.321343,0.981487
1035,779,3.30093,-0.00350792,0.321649,0.98119
1037,777,3.30077,-0.00406429,0.321861,0.980682
1039,775,3.29978,-0.00419629,0.32229,0.980449
1041,773,3.30017,-0.00426787,0.32186,0.980536
1043,771,3.30024,-0.00469874,0.32186,0.980245
1045,769,3.29966,-0.00527278,0.322287,0.979705
1047,767,3.29857,-0.0054983,0.322718,0.979403
1049,765,3.30071,-0.00240615,0.32144,0.979472
1051,763,3.3004,-0.00249657,0.321443,0.979431
1053,761,3.29987,-0.00309347,0.321871,0.978881
1055,759,3.29986,-0.00324991,0.321872,0.978781
1057,757,3.30045,-0.00364117,0.321656,0.978514
1059,755,3.29996,-0.00421879,0.321869,0.978107
1061,753,3.29937,-0.00434424,0.322086,0.977879
1063,751,3.2996,-0.00437893,0.321868,0.978003
1065,749,3.29971,-0.00494496,0.322085,0.977487
1067,747,3.29958,-0.00483785,0.321654,0.977685
1069,745,3.29855,-0.00503952,0.322413,0.977399
1071,743,3.29852,-0.00552001,0.322515,0.975515
1073,741,3.30048,-0.00302179,0.321456,0.976463
1075,739,3.29954,-0.00314822,0.321888,0.976246
1077,737,3.29963,-0.00376437,0.321888,0.975832
1079,735,3.30018,-0.00359643,0.321457,0.976095
1081,733,3.29968,-0.00419664,0.321883,0.975545
1083,731,3.29915,-0.00439716,0.321883,0.975386
1085,729,3.2996,-0.0048965,0.321885,0.975063
1087,727,3.29923,-0.00488589,0.321884,0.975062
1089,725,3.29893,-0.00550763,0.321881,0.974636
1091,723,3.29819,-0.00558037,0.322747,0.974446
1093,721,3.29841,-0.00563005,0.322314,0.97442
1095,719,3.29986,-0.00323895,0.321251,0.973857
1097,717,3.29906,-0.00336598,0.321688,0.97364
1099,715,3.29889,-0.00383192,0.321902,0.973307
1101,713,3.29962,-0.00370521,0.321251,0.973541
1103,711,3.29907,-0.00426491,0.321685,0.973042
1105,709,3.29845,-0.0044531,0.322122,0.972758
1107,707,3.29894,-0.00444695,0.321682,0.972912
1109,705,3.29905,-0.00494448,0.321684,0.972566
1111,703,3.29808,-0.00558224,0.322117,0.971977
1113,701,3.29932,-0.00271856,0.321269,0.971747
1115,699,3.29997,-0.00317614,0.321057,0.971449
1117,697,3.29911,-0.00380675,0.321488,0.97087
1119,695,3.29866,-0.00388853,0.321489,0.970802
1121,693,3.29874,-0.00445244,0.321926,0.970291
1123,691,3.29839,-0.00451701,0.321925,0.970258
1125,689,3.29815,-0.00495512,0.321923,0.969951
1127,687,3.29773,-0.00562547,0.322362,0.969364
1129,685,3.29806,-0.00559606,0.321925,0.969519
1131,683,3.29976,-0.00252817,0.320952,0.969409
1133,681,3.29857,-0.00329487,0.321734,0.968613
1135,679,3.29918,-0.00330105,0.321297,0.968754
1137,677,3.29922,-0.00366018,0.321294,0.968503
1139,675,3.29838,-0.00438454,0.321734,0.968137
1141,673,3.29822,-0.00446033,0.321736,0.96783
1143,671,3.29849,-0.00488531,0.321736,0.967547
1145,669,3.29776,-0.00556332,0.322506,0.966971
1147,667,3.29918,-0.00253088,0.321111,0.966799
1149,665,3.29876,-0.00311218,0.321548,0.966272
1151,663,3.29883,-0.00317366,0.321547,0.966224
1153,661,3.29851,-0.00368066,0.321547,0.965889
1155,659,3.29799,-0.00381092,0.321547,0.965787
1157,657,3.29839,-0.00427393,0.321547,0.965485
1159,655,3.29785,-0.00483224,0.321983,0.96497
1161,653,3.29753,-0.00498295,0.321984,0.964856
1163,651,3.29755,-0.00557278,0.322426,0.964335
1165,649,3.29932,-0.0024821,0.320918,0.964352
1167,647,3.29934,-0.00291624,0.320918,0.964066
1169,645,3.29819,-0.00375869,0.321802,0.963209
1171,643,3.29889,-0.00365294,0.321359,0.963427
1173,641,3.29813,-0.00421191,0.321799,0.962916
1175,639,3.29743,-0.00431466,0.322133,0.962842
1177,637,3.29785,-0.00485296,0.321798,0.962472
1179,635,3.29705,-0.00548787,0.322241,0.961908
1181,633,3.29816,-0.00296221,0.321617,0.961273
1183,631,3.29777,-0.00314732,0.321619,0.961133
1185,629,3.29853,-0.0030444,0.321173,0.961352
1187,627,3.29786,-0.00366008,0.321618,0.960806
1189,625,3.29741,-0.00373311,0.321953,0.960746
1191,623,3.29733,-0.00431811,0.322063,0.960225
1193,621,3.29724,-0.00491153,0.322062,0.959834
1195,619,3.29734,-0.00380179,0.321276,0.959393
1197,617,3.29849,-0.00243231,0.320996,0.959281
1199,615,3.29878,-0.00295698,0.320994,0.958945
1201,613,3.2979,-0.00357222,0.321438,0.958394
1203,611,3.29752,-0.00364244,0.32144,0.958507
1205,609,3.29709,-0.00427188,0.321884,0.957765
1207,607,3.29711,-0.00425192,0.321881,0.957794
1209,605,3.29636,-0.00486598,0.322329,0.957226
1211,603,3.29627,-0.00502234,0.322302,0.957132
1213,601,3.29816,-0.00238864,0.321264,0.956685
1215,599,3.29793,-0.00167185,0.320466,0.955958
1217,597,3.29748,-0.00236247,0.320921,0.95537
1219,595,3.29747,-0.00357884,0.321353,0.955887
1221,593,3.297,-0.00430476,0.322041,0.955256
1223,591,3.29609,-0.00444139,0.322155,0.955035
1225,589,3.29653,-0.00509705,0.322154,0.954599
1227,587,3.29627,-0.00559569,0.32215,0.954255
1229,585,3.29581,-0.00552909,0.32215,0.954307
1231,583,3.29689,-0.00324711,0.321531,0.953451
1233,581,3.29769,-0.00309921,0.321077,0.953692
1235,579,3.29679,-0.0037597,0.321585,0.95313
1237,577,3.29603,-0.0044767,0.321981,0.952494
1239,575,3.29589,-0.00450084,0.321982,0.952496
1241,573,3.2959,-0.00497854,0.322042,0.952182
1243,571,3.29496,-0.0055647,0.322432,0.951648
1245,569,3.29636,-0.00327876,0.321812,0.950807
1247,567,3.29657,-0.00316218,0.321353,0.950999
1249,565,3.2964,-0.0037486,0.32136,0.950635
1251,563,3.29506,-0.00457493,0.322265,0.949796
1253,561,3.29554,-0.00447398,0.322024,0.949992
1255,559,3.29537,-0.00513077,0.322263,0.949438
1257,557,3.29656,-0.0019829,0.321405,0.949267
1259,555,3.29647,-0.00266188,0.321407,0.948826
1261,553,3.29653,-0.00324878,0.321647,0.948319
1263,551,3.29609,-0.00382405,0.321646,0.947949
1265,549,3.29606,-0.0043624,0.32174,0.947602
1267,547,3.29597,-0.00425661,0.321646,0.94766
1269,545,3.29488,-0.00549787,0.322557,0.946493
1271,543,3.29443,-0.00565811,0.322559,0.946465
1273,541,3.29634,-0.00312083,0.321484,0.945896
1275,539,3.29611,-0.00314271,0.321484,0.945889
1277,537,3.29476,-0.00378032,0.322375,0.94531
1279,535,3.29484,-0.00451946,0.322399,0.944703
1281,533,3.29491,-0.00444458,0.321938,0.944887
1283,531,3.29371,-0.0056757,0.322856,0.943803
1285,529,3.29374,-0.00574331,0.322397,0.94389
1287,527,3.29536,-0.00322089,0.321782,0.943191
1289,525,3.2952,-0.00377962,0.321782,0.942829
1291,523,3.29436,-0.00390028,0.321996,0.942719
1293,521,3.29428,-0.00446936,0.322457,0.942226
1295,519,3.29383,-0.00509802,0.322457,0.941813
1297,517,3.29349,-0.00513367,0.322453,0.941771
1299,515,3.29497,-0.00277318,0.321844,0.940962
1301,513,3.29504,-0.00325877,0.321839,0.940622
1303,511,3.29485,-0.00327471,0.321623,0.940637
1305,509,3.29394,-0.00398187,0.322303,0.940013
1307,507,3.29416,-0.00454402,0.3223,0.939909
1309,505,3.29336,-0.00500967,0.322296,0.939117
1311,503,3.29457,-0.00219307,0.321686,0.938802
1313,501,3.29436,-0.00279191,0.321779,0.93842
1315,499,3.2938,-0.00336691,0.322151,0.937914
1317,497,3.29275,-0.00417063,0.322614,0.937229
1319,495,3.293,-0.00463294,0.322707,0.93693
1321,493,3.29279,-0.00525699,0.322615,0.936534
1323,491,3.29364,-0.00265913,0.322004,0.935826
1325,489,3.29357,-0.00281056,0.322006,0.935746
1327,487,3.29382,-0.00331689,0.322003,0.935401
1329,485,3.29332,-0.00388689,0.322003,0.935045
1331,483,3.29212,-0.00474007,0.322939,0.934218
1333,481,3.29282,-0.00462063,0.322467,0.934429
1335,479,3.29409,-0.00200246,0.321391,0.933878
1337,477,3.29307,-0.00276895,0.322327,0.933101
1339,475,3.29352,-0.00333623,0.322297,0.932882
1341,473,3.29288,-0.00393955,0.322331,0.93237
1343,471,3.29203,-0.00468122,0.322802,0.931741
1345,469,3.29217,-0.00524712,0.322797,0.931364
1347,467,3.29374,-0.00209008,0.321718,0.931166
1349,465,3.29297,-0.00327518,0.322627,0.930241
1351,463,3.29282,-0.00344439,0.322192,0.930156
1353,461,3.29272,-0.00395741,0.322188,0.929817
1355,459,3.29249,-0.002931,0.321716,0.929356
1357,457,3.29144,-0.00528088,0.322661,0.928826
1359,455,3.29369,-0.00750844,0.321111,0.92817
1361,453,3.29317,-0.00156357,0.321108,0.92783
1363,451,3.29207,-0.00243282,0.322054,0.926979
1365,449,3.2917,-0.00949028,0.322492,0.926621
1367,447,3.29182,-0.0067592,0.321108,0.926099
1369,445,3.29227,-0.00759446,0.321449,0.925455
1371,443,3.29342,-0.00416258,0.320032,0.925513
1373,441,3.29275,-0.00387954,0.320031,0.924418
1375,439,3.29151,-0.00475584,0.321407,0.923574
1377,437,3.29194,-0.00463589,0.320499,0.923803
1379,435,3.29371,-0.000325716,0.318956,0.923169
1381,433,3.29281,-0.00103378,0.319422,0.922575
1383,431,3.29258,-0.00327372,0.319891,0.922263
1385,429,3.29223,-0.00719619,0.319424,0.921519
1387,427,3.29073,-0.00948759,0.3208,0.921033
1389,425,3.29124,-0.00855204,0.319892,0.920499
1391,423,3.29229,-0.00754421,0.319285,0.920028
1393,421,3.29163,-0.00610255,0.319283,0.919662
1395,419,3.29162,-0.00678292,0.319284,0.919257
1397,417,3.29201,-0.00403891,0.31834,0.918696
1399,415,3.29077,-0.00630956,0.319282,0.918271
1401,413,3.29158,-0.0102768,0.319063,0.917803
1403,411,3.2927,-0.00279049,0.317741,0.917126
1405,409,3.29185,-0.00339137,0.318209,0.916593
1407,407,3.29115,-0.00425188,0.31902,0.915922
1409,405,3.29138,-0.0031614,0.318203,0.915459
1411,403,3.29175,-0.00661401,0.317985,0.91535
1413,401,3.29068,-0.00893942,0.318931,0.914871
1415,399,3.29242,-0.00610624,0.317094,0.914361
1417,397,3.29159,-0.00732804,0.317131,0.913453
1419,395,3.29145,-0.00742577,0.316906,0.913647
1421,393,3.2914,-0.00535528,0.316662,0.912283
1423,391,3.29327,-0.00105039,0.315175,0.911649
1425,389,3.29195,-0.00514793,0.316528,0.911175
1427,387,3.29234,-0.00891538,0.315589,0.910656
1429,385,3.29143,-0.00312171,0.316057,0.910061
1431,383,3.29078,-0.0038806,0.316525,0.909414
1433,381,3.29266,-0.00706927,0.315326,0.909458
1435,379,3.29248,-0.00500833,0.314274,0.908339
1437,377,3.29116,-0.00913654,0.315924,0.907878
1439,375,3.29245,-0.00470137,0.314302,0.907255
1441,373,3.29329,-0.00199742,0.313446,0.906722
1443,371,3.29272,-0.00272427,0.313916,0.906114
1445,369,3.2925,-0.00337587,0.313915,0.905712
1447,367,3.29234,-0.00944908,0.313697,0.904746
1449,365,3.2907,-0.00480254,0.314851,0.904534
1451,363,3.29315,-0.00536164,0.312618,0.903806
1453,361,3.29272,-0.00820805,0.313097,0.903157
1455,359,3.29141,-0.00844086,0.313781,0.902893
1457,357,3.29191,-0.00728295,0.313094,0.90247
1459,355,3.29129,-0.00695421,0.313093,0.901395
1461,353,3.2916,-0.00606495,0.313176,0.900476
1463,351,3.293,-0.00163588,0.311308,0.900203
1465,349,3.29223,-0.00387405,0.312025,0.899794
1467,347,3.29153,-0.00467054,0.312495,0.899169
1469,345,3.29123,-0.0102088,0.312022,0.898686
1471,343,3.29086,-0.0107039,0.312023,0.898382
1473,341,3.29196,-0.00166393,0.311637,0.897511
1475,339,3.29222,-0.00721226,0.310955,0.897037
1477,337,3.29132,-0.00782985,0.311422,0.896525
1479,335,3.29008,-0.0104444,0.312359,0.895908
1481,333,3.29255,-0.00433599,0.310355,0.895193
1483,331,3.29174,-0.00664892,0.310821,0.894891
1485,329,3.29087,-0.0074575,0.31129,0.894259
1487,327,3.29102,-0.00463318,0.310567,0.893714
1489,325,3.29062,-0.00533512,0.310352,0.893295
1491,323,3.2918,-0.00273447,0.309967,0.892519
1493,321,3.29193,-0.00892641,0.309712,0.891664
1495,319,3.29098,-0.00792864,0.309499,0.891005
1497,317,3.29051,-0.0103847,0.310223,0.890503
1499,315,3.29319,-0.00428839,0.307759,0.889888
1501,313,3.29172,-0.00336258,0.308437,0.889299
1503,311,3.29108,-0.0073867,0.309365,0.888842
1505,309,3.29184,-0.00303353,0.307758,0.888104
1507,307,3.29187,-0.00110173,0.307836,0.886778
1509,305,3.292,-0.00280221,0.307837,0.887026
1511,303,3.29244,-0.00725963,0.306695,0.886087
1513,301,3.29045,-0.00975646,0.308299,0.885423
1515,299,3.29139,-0.00867167,0.307157,0.885074
1517,297,3.29315,-0.00269314,0.305636,0.884122
1519,295,3.29108,-0.00685669,0.307235,0.883699
1521,293,3.2918,-0.00574492,0.306647,0.883257
1523,291,3.29177,-0.00297286,0.305631,0.882656
1525,289,3.29175,-0.00385816,0.306173,0.882038
1527,287,3.29195,-0.00781577,0.305246,0.881437
1529,285,3.29117,-0.00908898,0.305706,0.880397
1531,283,3.29045,-0.00318041,0.306168,0.879882
1533,281,3.2923,-0.00552284,0.304646,0.879199
1535,279,3.29189,-0.0060324,0.304647,0.878888
1537,277,3.29094,-0.00852641,0.305613,0.878355
1539,275,3.29073,-0.00650532,0.305106,0.875852
1541,273,3.28976,-0.00556907,0.305104,0.8767
1543,271,3.29178,-0.00281406,0.30405,0.875917
1545,269,3.2916,-0.00165281,0.303584,0.875464
1547,267,3.28981,-0.00588136,0.304975,0.875047
1549,265,3.29093,-0.00308795,0.303586,0.874601
1551,263,3.29161,-0.006048,0.302989,0.873254
1553,261,3.29059,-0.00181674,0.303919,0.872734
1555,259,3.29066,-0.00856066,0.303166,0.872882
1557,257,3.29061,-0.00640475,0.302525,0.871883
1559,255,3.28892,-0.0106662,0.304382,0.871343
1561,253,3.29165,-0.00280399,0.301931,0.870441
1563,251,3.29034,-0.0058223,0.302854,0.869617
1565,249,3.29055,-0.00585,0.302388,0.869726
1567,247,3.2922,-0.00717742,0.300963,0.868394
1569,245,3.29215,-0.00599886,0.300211,0.867946
1571,243,3.29141,-0.00674762,0.300874,0.867356
1573,241,3.29133,-0.0063349,0.300414,0.866452
1575,239,3.29139,-0.00728108,0.301206,0.865711
1577,237,3.29273,-0.00435001,0.299614,0.865308
1579,235,3.29146,-0.0033674,0.299821,0.864632
1581,233,3.29072,-0.00415649,0.300659,0.863998
1583,231,3.29085,-0.00305767,0.299818,0.863506
1585,229,3.29172,-0.00103693,0.299228,0.862374
1587,227,3.29089,-0.00361141,0.300149,0.861839
1589,225,3.29146,-0.00576213,0.298307,0.861302
1591,223,3.29005,-0.00818558,0.299281,0.860867
1593,221,3.29202,-0.00549692,0.298172,0.860279
1595,219,3.29154,-0.0033432,0.297713,0.859126
1597,217,3.28988,-0.00753561,0.299089,0.859024
1599,215,3.2906,-0.00480913,0.298169,0.858119
1601,213,3.29144,-0.00271969,0.297506,0.857021
1603,211,3.29059,-0.00352666,0.298041,0.856402
1605,209,3.29113,-0.00740489,0.296662,0.855984
1607,207,3.28987,-0.00806693,0.297118,0.855445
1609,205,3.29153,-0.00537608,0.296071,0.85486
1611,203,3.29137,-0.00331416,0.295647,0.853657
1613,201,3.29016,-0.00584627,0.296782,0.853022
1615,199,3.29027,-0.00468415,0.296065,0.852685
1617,197,3.29156,-0.000900489,0.295025,0.851459
1619,195,3.2906,-0.00514883,0.296196,0.851094
1621,193,3.29096,-0.00806211,0.294815,0.849959
1623,191,3.28957,-0.0105238,0.295735,0.849539
1625,189,3.29116,-0.00779695,0.294979,0.848963
1627,187,3.29179,-0.00495853,0.293774,0.848348
1629,185,3.28976,-0.00991542,0.295605,0.847438
1631,183,3.29071,-0.00643468,0.294226,0.84733
1633,181,3.2922,-0.000927239,0.29273,0.845948
1635,179,3.29059,-0.00522682,0.294302,0.844139
1637,177,3.29114,-0.00920192,0.293182,0.844974
1639,175,3.29003,-0.00312542,0.293638,0.844377
1641,173,3.29216,-0.00612998,0.292141,0.843314
1643,171,3.29085,-0.00675134,0.292339,0.842928
1645,169,3.29,-0.00824662,0.293052,0.841793
1647,167,3.29034,-0.00548032,0.292136,0.8411
1649,165,3.29145,-0.000954461,0.290846,0.840406
1651,163,3.29119,-0.00918306,0.291181,0.839491
1653,161,3.29076,-0.00809641,0.29064,0.838973
1655,159,3.28948,-0.0106034,0.291549,0.838521
1657,157,3.29202,-0.00436138,0.289604,0.837694
1659,155,3.29027,-0.0057362,0.29051,0.836601
1661,153,3.28963,-0.00819301,0.291131,0.836313
1663,151,3.29014,-0.00533549,0.290053,0.835667
1665,149,3.29042,-0.00441277,0.289921,0.835036
1667,147,3.29004,-0.00407109,0.290124,0.833956
1669,145,3.29002,-0.00297046,0.289491,0.83344
1671,143,3.28922,-0.00725475,0.290375,0.833238
1673,141,3.29042,-0.006894,0.28863,0.831703
1675,139,3.28938,-0.00248094,0.289536,0.831241
1677,137,3.28986,-0.00821776,0.288625,0.830922
1679,135,3.28941,-0.00603131,0.287972,0.829759
1681,133,3.29014,-0.0051196,0.288043,0.829118
1683,131,3.29023,-0.0091165,0.287137,0.828514
1685,129,3.2895,-0.00472145,0.287839,0.82805
1687,127,3.29118,-0.00719059,0.286555,0.827328
1689,125,3.28996,-0.00855463,0.287005,0.826402
1691,123,3.29056,-0.00237629,0.286806,0.825946
1693,121,3.2898,-0.0064545,0.286099,0.825274
1695,119,3.2903,-0.00453814,0.285969,0.823954
1697,117,3.29178,-0.00160519,0.284423,0.823468
1699,115,3.29019,-0.00291158,0.285319,0.822434
1701,113,3.28943,-0.00539552,0.285968,0.822142
1703,111,3.291,-0.00673215,0.284289,0.820788
1705,109,3.28959,-0.00936558,0.285188,0.820288
1707,107,3.29032,-0.00813616,0.284286,0.819968
1709,105,3.29058,-0.00259946,0.283454,0.818392
1711,103,3.29079,-0.0025719,0.283005,0.818537
1713,101,3.28997,-0.00218349,0.283003,0.817457
1715,99,3.28855,-0.0064885,0.284349,0.817158
1717,97,3.29081,-0.00021712,0.282422,0.816267
1719,95,3.28906,-0.00176604,0.283318,0.815101
1721,93,3.28919,-0.00933893,0.282865,0.814905
1723,91,3.28826,-0.00826267,0.282865,0.814237
1725,89,3.29008,-0.00548929,0.28184,0.813652
1727,87,3.28967,-0.00338959,0.281393,0.8124
1729,85,3.28821,-0.00771692,0.282739,0.812121
1731,83,3.28935,-0.00294219,0.280944,0.811482
1733,81,3.29,-0.00786408,0.280366,0.810368
1735,79,3.28995,-0.00848723,0.280365,0.810027
1737,77,3.28959,-0.00628996,0.279918,0.808797
1739,75,3.28831,-0.0107258,0.281256,0.808476
1741,73,3.29055,-0.00259607,0.278893,0.807453
1743,71,3.28956,-0.00686476,0.279783,0.807336
1745,69,3.28959,-0.00223199,0.278892,0.806359
1747,67,3.28821,-0.00366061,0.279334,0.805385
1749,65,3.29023,-0.000907477,0.278313,0.80481
1751,63,3.28853,-0.00929635,0.278757,0.803891
1753,61,3.2888,-0.00826508,0.278117,0.803329
1755,59,3.29044,-0.000696562,0.276412,0.80182
1757,57,3.28892,-0.00512262,0.278124,0.801502
1759,55,3.2892,-0.00214323,0.276408,0.800987
1761,53,3.28782,-0.0047315,0.277289,0.800551
1763,51,3.28944,-0.00602762,0.275831,0.79919
1765,49,3.28788,-0.00864055,0.276712,0.798742
1767,47,3.28852,-0.00751615,0.275826,0.798341
1769,45,3.28742,-0.0070889,0.275825,0.797255
1771,43,3.28993,-0.00357469,0.27437,0.797224
1773,41,3.28902,-0.00317241,0.27437,0.796155
1775,39,3.28784,-0.00585615,0.275248,0.795678
1777,37,3.28873,-0.0123198,0.273822,0.794459
1779,35,3.28774,-0.00792239,0.274775,0.794003
1781,33,3.28733,-0.0155396,0.274694,0.793439
1783,31,3.28824,-0.0129807,0.274125,0.792871
1785,29,3.28787,-0.00643556,0.273349,0.792231
1787,27,3.28698,-0.0132034,0.274121,0.791413
1789,25,3.2887,-0.00336226,0.272338,0.790504
1791,23,3.28767,-0.00287696,0.272037,0.789448
1793,21,3.28782,-0.00717282,0.272235,0.789014
1795,19,3.28783,-0.00093624,0.271761,0.788253
1797,17,3.28596,-0.0157186,0.27267,0.78807
1799,15,3.28655,-0.0082271,0.271759,0.786836
1801,13,3.28828,-0.000250734,0.271186,0.786343
1803,11,3.28641,-0.0113931,0.271225,0.785859
1805,9,3.28533,-0.0141033,0.272098,0.785405
1807,7,3.2872,-0.00404936,0.269878,0.784686
1809,5,3.28619,-0.00663492,0.270746,0.784274
1811,3,3.28629,-0.00796805,0.270216,0.783037