File: hust_correlation_analysis/matrices/HUST_3-7_cycle_feature_matrix.csv
cycle_number,rul,voltage,current,capacity,charge_capacity
1,2481,3.32318,-0.0162809,0.282736,0.987881
4,2478,3.311,-0.0172126,0.287342,0.982079
7,2475,3.31101,-0.0185979,0.287342,0.981551
10,2472,3.31196,-0.0193382,0.286854,0.981494
13,2469,3.312,-0.0199989,0.286373,0.98148
16,2466,3.31152,-0.0207483,0.28637,0.981164
19,2463,3.31356,-0.0178706,0.284873,0.980549
22,2460,3.31392,-0.0186029,0.284869,0.980249
25,2457,3.31405,-0.0186078,0.284398,0.980527
28,2454,3.31402,-0.0191718,0.284389,0.980283
31,2451,3.31413,-0.0199732,0.284391,0.979958
34,2448,3.31381,-0.0216424,0.284378,0.980451
37,2445,3.3139,-0.0217454,0.284361,0.980353
40,2442,3.31426,-0.0224618,0.284357,0.980044
43,2439,3.31618,-0.0196878,0.282859,0.979374
46,2436,3.31562,-0.0194966,0.282849,0.979429
49,2433,3.31635,-0.0196575,0.282848,0.979357
52,2430,3.31591,-0.020331,0.282842,0.979059
55,2427,3.31541,-0.0202959,0.282838,0.979054
58,2424,3.31601,-0.0210405,0.282833,0.97873
61,2421,3.31589,-0.0209566,0.282821,0.978745
64,2418,3.31554,-0.0217379,0.282828,0.97843
67,2415,3.31528,-0.0217243,0.283287,0.977028
70,2412,3.31547,-0.0225077,0.282824,0.978103
73,2409,3.3154,-0.022435,0.282821,0.97813
76,2406,3.31498,-0.0225158,0.282821,0.978097
79,2403,3.31708,-0.0195641,0.281322,0.977481
82,2400,3.31717,-0.0195323,0.28132,0.977494
85,2397,3.31724,-0.0203273,0.281779,0.977177
88,2394,3.31658,-0.0204449,0.281322,0.977094
91,2391,3.31703,-0.0211707,0.281441,0.97689
94,2388,3.31687,-0.0211256,0.281339,0.97691
97,2385,3.3165,-0.0217769,0.281337,0.976625
100,2382,3.31667,-0.0218053,0.28133,0.976585
103,2379,3.3164,-0.021835,0.281327,0.976569
106,2376,3.31596,-0.0225173,0.281789,0.976001
109,2373,3.31636,-0.0224853,0.281317,0.976264
112,2370,3.31586,-0.0225562,0.281915,0.976236
115,2367,3.31768,-0.019717,0.280301,0.97536
118,2364,3.31822,-0.0196658,0.279845,0.975694
121,2361,3.31754,-0.0204885,0.280314,0.975104
124,2358,3.3174,-0.0204064,0.280308,0.975115
127,2355,3.31764,-0.0203648,0.280306,0.975122
130,2352,3.31733,-0.0204814,0.280297,0.97505
133,2349,3.31724,-0.0211222,0.280298,0.974777
136,2346,3.31749,-0.0212095,0.280294,0.974729
139,2343,3.31732,-0.0211507,0.28029,0.97475
142,2340,3.31704,-0.0218427,0.280295,0.974465
145,2337,3.31694,-0.0218693,0.280306,0.974497
148,2334,3.31643,-0.0227669,0.280776,0.973873
151,2331,3.31635,-0.0227157,0.280777,0.973894
154,2328,3.31671,-0.0226305,0.280305,0.974182
157,2325,3.31814,-0.0197234,0.279269,0.973272
160,2322,3.31843,-0.0197991,0.27927,0.973252
163,2319,3.3183,-0.019721,0.279262,0.97326
166,2316,3.31829,-0.019661,0.278795,0.973552
169,2313,3.31823,-0.0204896,0.279258,0.972926
172,2310,3.31807,-0.020597,0.279868,0.972918
175,2307,3.31793,-0.0212184,0.279281,0.9727
178,2304,3.3179,-0.0212065,0.279288,0.972725
181,2301,3.31763,-0.0212374,0.279288,0.972709
184,2298,3.31767,-0.0213272,0.279283,0.972668
187,2295,3.31726,-0.0220368,0.279747,0.972089
190,2292,3.31707,-0.0221027,0.279745,0.972059
193,2289,3.31655,-0.0221038,0.279748,0.972074
196,2286,3.31692,-0.0228146,0.279747,0.971764
199,2283,3.31693,-0.0227704,0.279755,0.971804
202,2280,3.31628,-0.0228024,0.27976,0.971814
205,2277,3.31872,-0.0198141,0.278262,0.971233
208,2274,3.31835,-0.0199264,0.27873,0.970916
211,2271,3.31839,-0.0198326,0.278262,0.971225
214,2268,3.31864,-0.0197941,0.27836,0.971238
217,2265,3.31825,-0.0206819,0.278729,0.970607
220,2262,3.31771,-0.0206792,0.278726,0.970595
223,2259,3.31771,-0.0206861,0.278728,0.970603
226,2256,3.31829,-0.021362,0.278725,0.970299
229,2253,3.31789,-0.0214612,0.278722,0.970261
232,2250,3.31745,-0.0213654,0.278727,0.97031
235,2247,3.31774,-0.0213019,0.27871,0.970301
238,2244,3.31775,-0.021473,0.278703,0.970183
241,2241,3.31752,-0.0220916,0.278716,0.969966
244,2238,3.31773,-0.0221981,0.27872,0.970187
247,2235,3.31729,-0.0221257,0.278718,0.969966
250,2232,3.31714,-0.0221453,0.278718,0.969956
253,2229,3.31767,-0.0228219,0.278719,0.969679
256,2226,3.31739,-0.022812,0.278721,0.969691
259,2223,3.3168,-0.0228214,0.278945,0.969686
262,2220,3.31685,-0.0228065,0.278722,0.969696
265,2217,3.31908,-0.0200751,0.277689,0.968739
268,2214,3.31864,-0.0200068,0.277687,0.968756
271,2211,3.31853,-0.0199748,0.277678,0.968745
274,2208,3.3191,-0.019911,0.277208,0.96902
277,2205,3.31886,-0.0199022,0.277193,0.968972
280,2202,3.31847,-0.0199322,0.277747,0.968658
283,2199,3.31924,-0.0198017,0.277168,0.968921
286,2196,3.31896,-0.0198735,0.277165,0.968894
289,2193,3.31846,-0.0205658,0.277622,0.968307
292,2190,3.31849,-0.0199563,0.2776,0.96847
295,2187,3.31907,-0.0204143,0.277591,0.96829
298,2184,3.31822,-0.0206274,0.277619,0.968262
301,2181,3.31867,-0.0205502,0.277153,0.968558
304,2178,3.31851,-0.0214129,0.277618,0.967847
307,2175,3.31801,-0.0213918,0.277615,0.967928
310,2172,3.31809,-0.0214057,0.277612,0.967921
313,2169,3.31828,-0.0214052,0.277609,0.967904
316,2166,3.31849,-0.0213201,0.277151,0.968233
319,2163,3.31758,-0.022158,0.27763,0.967672
322,2160,3.31828,-0.0220697,0.277171,0.968006
325,2157,3.31794,-0.0229402,0.27764,0.967373
328,2154,3.31764,-0.0229214,0.27764,0.967381
331,2151,3.31756,-0.0228404,0.277632,0.967393
334,2148,3.31748,-0.0228929,0.277628,0.967363
337,2145,3.32006,-0.0191047,0.275655,0.967352
340,2142,3.31891,-0.0199755,0.276582,0.966433
343,2139,3.31983,-0.0200027,0.276119,0.966696
346,2136,3.31955,-0.019994,0.276135,0.966751
349,2133,3.31927,-0.0206989,0.276139,0.966479
352,2130,3.31927,-0.0207202,0.276146,0.966488
355,2127,3.31926,-0.0206866,0.276141,0.966488
358,2124,3.31914,-0.020746,0.276137,0.966452
361,2121,3.31903,-0.0206525,0.276129,0.966471
364,2118,3.31951,-0.0214366,0.276133,0.966148
367,2115,3.31922,-0.0214134,0.276118,0.966113
370,2112,3.31869,-0.0213629,0.276118,0.966133
373,2109,3.3187,-0.0214171,0.276124,0.966132
376,2106,3.31872,-0.022302,0.276602,0.965532
379,2103,3.31869,-0.0221734,0.27614,0.965872
382,2100,3.31796,-0.0222057,0.276606,0.965593
385,2097,3.31874,-0.0222243,0.276141,0.965852
388,2094,3.31811,-0.022999,0.276603,0.965248
391,2091,3.3178,-0.0229976,0.276604,0.96525
394,2088,3.318,-0.0229633,0.2766,0.96526
397,2085,3.31798,-0.0229677,0.276599,0.965251
400,2082,3.32047,-0.019295,0.274629,0.965205
403,2079,3.31974,-0.0199794,0.275316,0.964649
406,2076,3.31969,-0.0201032,0.275113,0.964665
409,2073,3.32006,-0.0208081,0.275119,0.964395
412,2070,3.31958,-0.0207802,0.275118,0.964398
415,2067,3.31969,-0.0206873,0.275111,0.964411
418,2064,3.31962,-0.0207574,0.275107,0.964364
421,2061,3.31952,-0.0208736,0.275103,0.964307
424,2058,3.31889,-0.021597,0.275565,0.963731
427,2055,3.31909,-0.0216375,0.275564,0.963704
430,2052,3.31896,-0.0216513,0.275565,0.963941
433,2049,3.31879,-0.022329,0.27558,0.963465
436,2046,3.31857,-0.0222555,0.275585,0.963526
439,2043,3.31861,-0.0223799,0.275592,0.963495
442,2040,3.31855,-0.0231075,0.27559,0.963181
445,2037,3.3182,-0.0230826,0.275587,0.963186
448,2034,3.31839,-0.0231223,0.275591,0.963181
451,2031,3.31828,-0.0231269,0.275592,0.963173
454,2028,3.32052,-0.0201013,0.274075,0.96255
457,2025,3.31983,-0.0201728,0.274986,0.962245
460,2022,3.32029,-0.0202127,0.274083,0.96253
463,2019,3.31994,-0.0209475,0.274552,0.961982
466,2016,3.31957,-0.0209837,0.274558,0.961974
469,2013,3.31944,-0.0208931,0.27456,0.962022
472,2010,3.3198,-0.0210075,0.274558,0.961972
475,2007,3.31953,-0.0216773,0.274558,0.961694
478,2004,3.31927,-0.0216615,0.274548,0.96167
481,2001,3.31937,-0.0216895,0.274545,0.961647
484,1998,3.31926,-0.0216678,0.274539,0.961886
487,1995,3.31899,-0.0217243,0.274538,0.961613
490,1992,3.31865,-0.0225056,0.275243,0.961066
493,1989,3.31906,-0.0224285,0.274562,0.961398
496,1986,3.31909,-0.0224819,0.274792,0.961403
499,1983,3.31821,-0.0232962,0.27504,0.960806
502,1980,3.3179,-0.0232412,0.275042,0.960832
505,1977,3.3181,-0.0233096,0.275041,0.960802
508,1974,3.32048,-0.0202709,0.273975,0.960174
511,1971,3.32023,-0.0202359,0.273523,0.960198
514,1968,3.32035,-0.0201486,0.273514,0.960207
517,1965,3.32035,-0.0202544,0.273511,0.960149
520,1962,3.32006,-0.0204128,0.274114,0.960122
523,1959,3.31923,-0.0209821,0.273994,0.959637
526,1956,3.31977,-0.021008,0.273984,0.959928
529,1953,3.31984,-0.0198709,0.273533,0.959173
532,1950,3.31944,-0.0218373,0.273987,0.959262
535,1947,3.31931,-0.0217817,0.273978,0.959244
538,1944,3.31998,-0.0217088,0.273506,0.959523
541,1941,3.31978,-0.0216784,0.273501,0.959524
544,1938,3.3194,-0.0217396,0.273497,0.959487
547,1935,3.31929,-0.0217033,0.273494,0.959486
550,1932,3.31909,-0.0227568,0.273983,0.958846
553,1929,3.31959,-0.0225437,0.273504,0.959171
556,1926,3.31864,-0.0226177,0.273968,0.958873
559,1923,3.31865,-0.0225546,0.273967,0.958891
562,1920,3.31952,-0.022522,0.273493,0.959146
565,1917,3.31917,-0.0231786,0.27349,0.958864
568,1914,3.31844,-0.0233434,0.273959,0.958539
571,1911,3.31821,-0.0231858,0.273956,0.95859
574,1908,3.31883,-0.0231851,0.273485,0.958838
577,1905,3.3207,-0.02038,0.27244,0.957879
580,1902,3.32037,-0.0203684,0.272449,0.957916
583,1899,3.32061,-0.0203411,0.272458,0.957957
586,1896,3.32069,-0.0210954,0.272466,0.957667
589,1893,3.3203,-0.0210927,0.272462,0.957668
592,1890,3.32002,-0.0210506,0.27255,0.957663
595,1887,3.32013,-0.0210837,0.272453,0.957641
598,1884,3.32029,-0.0217817,0.272449,0.957335
601,1881,3.32013,-0.0218942,0.272444,0.957271
604,1878,3.31935,-0.0219016,0.272914,0.957006
607,1875,3.32006,-0.0219309,0.272457,0.957301
610,1872,3.31972,-0.0227081,0.272939,0.956755
613,1869,3.31956,-0.0225577,0.272469,0.957093
616,1866,3.31898,-0.0226982,0.272939,0.956777
619,1863,3.3192,-0.0234028,0.272937,0.956481
622,1860,3.31913,-0.0233536,0.272923,0.95644
625,1857,3.31881,-0.0234076,0.272917,0.956411
628,1854,3.3209,-0.019613,0.271615,0.956086
631,1851,3.31935,-0.0233448,0.272443,0.956661
634,1848,3.3214,-0.0203743,0.271395,0.95576
637,1845,3.32094,-0.0204408,0.271488,0.9554
640,1842,3.32058,-0.0204767,0.271415,0.955793
643,1839,3.32104,-0.0211726,0.271424,0.955534
646,1836,3.32076,-0.0211605,0.271429,0.955557
649,1833,3.32043,-0.0211409,0.271418,0.955537
652,1830,3.32024,-0.0210415,0.27141,0.955544
655,1827,3.32067,-0.0212281,0.271373,0.955451
658,1824,3.320245,-0.0220466,0.271873,0.954842
661,1821,3.32042,-0.0218872,0.271402,0.955166
664,1818,3.31956,-0.0219945,0.271868,0.954854
667,1815,3.32007,-0.0227806,0.271881,0.954576
670,1812,3.31961,-0.0227504,0.271899,0.954648
673,1809,3.31945,-0.0235359,0.271899,0.954317
676,1806,3.31871,-0.0235561,0.272377,0.954084
679,1803,3.31917,-0.0234903,0.2719,0.954347
682,1800,3.31929,-0.0234789,0.2719,0.954359
685,1797,3.32139,-0.0198513,0.270383,0.953988
688,1794,3.32084,-0.0205749,0.27085,0.953413
691,1791,3.32092,-0.0205886,0.27085,0.953411
694,1788,3.32133,-0.0204809,0.270387,0.953725
697,1785,3.3208,-0.0213088,0.270853,0.95313
700,1782,3.32051,-0.0193388,0.27039,0.953009
703,1779,3.32069,-0.0193547,0.270391,0.953008
706,1776,3.32087,-0.0201834,0.270394,0.952658
709,1773,3.32044,-0.0201028,0.270394,0.952704
712,1770,3.32008,-0.0200348,0.270393,0.952727
715,1767,3.32019,-0.0201281,0.270393,0.952474
718,1764,3.32047,-0.020895,0.270392,0.95236
721,1761,3.3204,-0.0208194,0.270836,0.952394
724,1758,3.32003,-0.0208461,0.270388,0.952367
727,1755,3.31943,-0.0209937,0.270863,0.952073
730,1752,3.31967,-0.0216982,0.270857,0.95176
733,1749,3.3201,-0.0215749,0.270391,0.952078
736,1746,3.31964,-0.0216282,0.270389,0.952047
739,1743,3.32172,-0.0178335,0.26887,0.951744
742,1740,3.32161,-0.0186571,0.269425,0.951132
745,1737,3.32148,-0.0186434,0.269333,0.949705
748,1734,3.32111,-0.0206669,0.269797,0.95124
751,1731,3.32084,-0.0206262,0.269797,0.951253
754,1728,3.32125,-0.0207735,0.270238,0.951194
757,1725,3.3213,-0.0213946,0.269794,0.950923
760,1722,3.32102,-0.0213739,0.269793,0.950934
763,1719,3.32111,-0.0201123,0.269769,0.950512
766,1716,3.32099,-0.022123,0.269802,0.950647
769,1713,3.32091,-0.0220887,0.269794,0.950641
772,1710,3.32067,-0.0221182,0.269792,0.950871
775,1707,3.32056,-0.0228212,0.269789,0.950323
778,1704,3.31995,-0.0229308,0.270258,0.950012
781,1701,3.3205,-0.0228392,0.269787,0.950298
784,1698,3.32034,-0.0228578,0.269785,0.950288
787,1695,3.32019,-0.0229519,0.26979,0.950266
790,1692,3.31963,-0.023783,0.270259,0.949663
793,1689,3.31975,-0.0238062,0.270269,0.949689
796,1686,3.322092,-0.0186541,0.268282,0.948983
799,1683,3.32175,-0.0207214,0.268748,0.949082
802,1680,3.3216,-0.0185897,0.268273,0.949001
805,1677,3.32148,-0.020674,0.268744,0.949095
808,1674,3.32189,-0.0214407,0.26874,0.948761
811,1671,3.32158,-0.0214429,0.268738,0.948766
814,1668,3.32126,-0.0194557,0.268271,0.948628
817,1665,3.32115,-0.021465,0.268748,0.948774
820,1662,3.32097,-0.0202872,0.26875,0.948069
823,1659,3.32064,-0.0203033,0.268752,0.948064
826,1656,3.3206,-0.0209095,0.268748,0.947799
829,1653,3.32003,-0.0211547,0.269224,0.947469
832,1650,3.32056,-0.0211608,0.268754,0.947713
835,1647,3.3205,-0.021095,0.268752,0.947738
838,1644,3.32032,-0.0218207,0.268751,0.947429
841,1641,3.31961,-0.0219346,0.269216,0.947108
844,1638,3.32015,-0.0218069,0.268746,0.947417
847,1635,3.32012,-0.0237475,0.269194,0.947498
850,1632,3.3223,-0.020792,0.267672,0.946849
853,1629,3.32202,-0.0206209,0.268261,0.946905
856,1626,3.322,-0.0207251,0.267667,0.946853
859,1623,3.3218,-0.0196728,0.267688,0.946141
862,1620,3.32162,-0.0196061,0.267683,0.946157
865,1617,3.3211,-0.0196093,0.268275,0.946163
868,1614,3.32108,-0.0222304,0.268145,0.945995
871,1611,3.32125,-0.022375,0.268144,0.945937
874,1608,3.32127,-0.0223053,0.268142,0.945962
877,1605,3.32097,-0.0224379,0.268129,0.945866
880,1602,3.32072,-0.0212719,0.268146,0.945199
883,1599,3.32101,-0.0230925,0.268146,0.945644
886,1596,3.32096,-0.023067,0.268147,0.945658
889,1593,3.32082,-0.0218205,0.267692,0.94527
892,1590,3.32012,-0.0219499,0.268158,0.944948
895,1587,3.3224,-0.0181051,0.26663,0.944641
898,1584,3.32263,-0.0188977,0.266632,0.944315
901,1581,3.32251,-0.0189403,0.266628,0.944289
904,1578,3.32215,-0.0189378,0.266626,0.94429
907,1575,3.32133,-0.0217054,0.267555,0.943793
910,1572,3.32206,-0.0216401,0.267082,0.944074
913,1569,3.32177,-0.021617,0.267088,0.944096
916,1566,3.32181,-0.022326,0.267082,0.94379
919,1563,3.32093,-0.0223985,0.267557,0.943516
922,1560,3.32098,-0.0224269,0.267553,0.943498
925,1557,3.32103,-0.0224397,0.267547,0.942117
928,1554,3.32119,-0.0232417,0.267539,0.943106
931,1551,3.32069,-0.0232164,0.267535,0.943099
934,1548,3.32053,-0.0232074,0.267747,0.943088
937,1545,3.32083,-0.0239884,0.267539,0.942797
940,1542,3.32284,-0.0190233,0.266031,0.941808
943,1539,3.32226,-0.0190529,0.266038,0.941818
946,1536,3.32247,-0.0196591,0.266475,0.941572
949,1533,3.32237,-0.0217028,0.266496,0.941643
952,1530,3.32237,-0.0217367,0.266497,0.941621
955,1527,3.32195,-0.0217048,0.26649,0.941618
958,1524,3.32168,-0.0217313,0.266486,0.941594
961,1521,3.32121,-0.0225634,0.26695,0.940965
964,1518,3.32164,-0.0225288,0.26648,0.941242
967,1515,3.32114,-0.023283,0.266954,0.940681
970,1512,3.32079,-0.0214384,0.266501,0.940566
973,1509,3.32023,-0.0222288,0.266977,0.939973
976,1506,3.32078,-0.0220772,0.266504,0.940321
979,1503,3.32263,-0.0183761,0.265445,0.939671
982,1500,3.32231,-0.0191455,0.265443,0.939349
985,1497,3.32199,-0.0190505,0.265439,0.939382
988,1494,3.32226,-0.0191304,0.265437,0.93934
991,1491,3.32179,-0.0199544,0.265902,0.938714
994,1488,3.32191,-0.0199215,0.265433,0.938996
997,1485,3.32142,-0.020728,0.266349,0.938198
1000,1482,3.32125,-0.0207102,0.265911,0.938426
1003,1479,3.32151,-0.0215266,0.265916,0.938112
1006,1476,3.3212,-0.0214923,0.265921,0.938138
1009,1473,3.32082,-0.0214518,0.265917,0.938147
1012,1470,3.32023,-0.0222729,0.26639,0.937554
1015,1467,3.32084,-0.0221821,0.265915,0.937844
1018,1464,3.32018,-0.0222574,0.266381,0.93752
1021,1461,3.32224,-0.0192474,0.264848,0.936859
1024,1458,3.32211,-0.0191786,0.264846,0.936878
1027,1455,3.32223,-0.0192912,0.264863,0.936826
1030,1452,3.32177,-0.0201196,0.265315,0.936217
1033,1449,3.32189,-0.0199938,0.26484,0.936534
1036,1446,3.32141,-0.0207346,0.265316,0.935977
1039,1443,3.32093,-0.0208317,0.265315,0.93592
1042,1440,3.32133,-0.0216254,0.265754,0.935613
1045,1437,3.32089,-0.021584,0.265312,0.935608
1048,1434,3.32043,-0.0236061,0.265776,0.935701
1051,1431,3.32035,-0.0235466,0.265772,0.935951
1054,1428,3.32002,-0.0244636,0.266247,0.935075
1057,1425,3.31967,-0.0243956,0.266239,0.93508
1060,1422,3.32253,-0.0204557,0.264215,0.935005
1063,1419,3.32167,-0.0210743,0.264694,0.934511
1066,1416,3.32157,-0.0222605,0.265177,0.933791
1069,1413,3.32133,-0.0221678,0.265176,0.933816
1072,1410,3.32103,-0.0222403,0.265779,0.93383
1075,1407,3.32084,-0.0229283,0.265183,0.933527
1078,1404,3.32096,-0.0229335,0.265177,0.933509
1081,1401,3.32059,-0.023861,0.265654,0.932867
1084,1398,3.32067,-0.0237445,0.265176,0.933172
1087,1395,3.32039,-0.0236525,0.265387,0.933204
1090,1392,3.31999,-0.0246236,0.265653,0.932548
1093,1389,3.32189,-0.0215834,0.264605,0.931672
1096,1386,3.32232,-0.0194257,0.264104,0.931947
1099,1383,3.32167,-0.0201199,0.26413,0.931368
1102,1380,3.32138,-0.0201858,0.264117,0.931275
1105,1377,3.32146,-0.0202928,0.264122,0.931254
1108,1374,3.32143,-0.0209953,0.264078,0.930949
1111,1371,3.32073,-0.0229906,0.264587,0.93106
1114,1368,3.32064,-0.0230002,0.264584,0.931039
1117,1365,3.32071,-0.0238808,0.264584,0.930676
1120,1362,3.32067,-0.0237239,0.264565,0.93069
1123,1359,3.3199,-0.0247729,0.265058,0.930037
1126,1356,3.31974,-0.0226528,0.264595,0.930002
1129,1353,3.32241,-0.0194899,0.263051,0.929393
1132,1350,3.32214,-0.0194496,0.263049,0.929407
1135,1347,3.32142,-0.0203799,0.263523,0.928755
1138,1344,3.32093,-0.0223179,0.263997,0.928883
1141,1341,3.32126,-0.0203869,0.263518,0.928739
1144,1338,3.32036,-0.0232037,0.264473,0.928251
1147,1335,3.32052,-0.0231721,0.263987,0.928509
1150,1332,3.3199,-0.0239476,0.26447,0.927935
1153,1329,3.32,-0.0240565,0.264464,0.927875
1156,1326,3.31963,-0.0249683,0.264949,0.927254
1159,1323,3.31961,-0.0251907,0.264465,0.927421
1162,1320,3.31874,-0.0249246,0.26494,0.927248
1165,1317,3.32145,-0.0217541,0.2634,0.926656
1168,1314,3.32153,-0.0197219,0.262924,0.926555
1171,1311,3.32123,-0.020514,0.262928,0.926066
1174,1308,3.32057,-0.021199,0.263405,0.925695
1177,1305,3.32055,-0.0213353,0.263407,0.925639
1180,1302,3.3206,-0.0213146,0.263404,0.925644
1183,1299,3.32014,-0.022109,0.263408,0.924122
1186,1296,3.3199,-0.0220228,0.263413,0.925398
1189,1293,3.31944,-0.0229528,0.263899,0.924767
1192,1290,3.32198,-0.0197474,0.262346,0.924156
1195,1287,3.32158,-0.0196237,0.262343,0.922699
1198,1284,3.32127,-0.0196923,0.262931,0.92415
1201,1281,3.32086,-0.0205149,0.262811,0.923514
1204,1278,3.32146,-0.020467,0.262327,0.923788
1207,1275,3.32119,-0.0205145,0.262323,0.923762
1210,1272,3.32042,-0.0214062,0.262802,0.923121
1213,1269,3.32015,-0.0214172,0.262803,0.923124
1216,1266,3.32035,-0.0222211,0.26282,0.92286
1219,1263,3.3196,-0.0230189,0.263309,0.922309
1222,1260,3.31913,-0.0230142,0.263907,0.922317
1225,1257,3.32147,-0.0189725,0.261743,0.921999
1228,1254,3.32168,-0.0198533,0.261744,0.921642
1231,1251,3.32135,-0.019842,0.262325,0.921585
1234,1248,3.32064,-0.0207063,0.262208,0.92095
1237,1245,3.32049,-0.0207312,0.262203,0.92092
1240,1242,3.32041,-0.0228464,0.262687,0.921001
1243,1239,3.32016,-0.0235964,0.262679,0.920675
1246,1236,3.31984,-0.0236379,0.262679,0.920653
1249,1233,3.3194,-0.0245159,0.263168,0.920045
1252,1230,3.31932,-0.0244763,0.263171,0.920064
1255,1227,3.3192,-0.0252388,0.263163,0.919763
1258,1224,3.31853,-0.0252139,0.263166,0.919609
1261,1221,3.32129,-0.0211973,0.26219,0.919425
1264,1218,3.32064,-0.0221258,0.262077,0.918771
1267,1215,3.32087,-0.0220447,0.261586,0.919056
1270,1212,3.32014,-0.0228307,0.262067,0.918454
1273,1209,3.32018,-0.0229066,0.26207,0.918435
1276,1206,3.31981,-0.0238121,0.262553,0.917791
1279,1203,3.31975,-0.0237553,0.262074,0.918111
1282,1200,3.31905,-0.0246226,0.262571,0.917528
1285,1197,3.31891,-0.0234534,0.262581,0.91683
1288,1194,3.31868,-0.0233607,0.262581,0.916863
1291,1191,3.32092,-0.0202342,0.261006,0.91617
1294,1188,3.32044,-0.0222756,0.261489,0.916257
1297,1185,3.32041,-0.0222673,0.261482,0.916244
1300,1182,3.32047,-0.0230237,0.26148,0.915937
1303,1179,3.32007,-0.0230529,0.261478,0.91592
1306,1176,3.31938,-0.0239105,0.26218,0.915299
1309,1173,3.31955,-0.0239867,0.261967,0.915274
1312,1170,3.31892,-0.0247961,0.262468,0.91471
1315,1167,3.31865,-0.0234891,0.26198,0.91431
1318,1164,3.31836,-0.0234635,0.261979,0.914326
1321,1161,3.32114,-0.0202043,0.260406,0.913688
1324,1158,3.32081,-0.0202096,0.260401,0.913669
1327,1155,3.31986,-0.0232646,0.261381,0.913102
1330,1152,3.31965,-0.0232247,0.261624,0.913104
1333,1149,3.31992,-0.0239956,0.261379,0.912814
1336,1146,3.31931,-0.0239933,0.261583,0.912794
1339,1143,3.31871,-0.0248904,0.261865,0.912168
1342,1140,3.31848,-0.0249585,0.261866,0.912148
1345,1137,3.3186,-0.025736,0.261868,0.911842
1348,1134,3.31803,-0.0257503,0.262469,0.91185
1351,1131,3.31981,-0.0224788,0.260778,0.910922
1354,1128,3.3198,-0.0225058,0.26078,0.910907
1357,1125,3.31979,-0.0232973,0.260776,0.910581
1360,1122,3.31939,-0.023402,0.260777,0.910546
1363,1119,3.31861,-0.0242155,0.261275,0.909968
1366,1116,3.31927,-0.0240411,0.260776,0.910303
1369,1113,3.3187,-0.0228248,0.260779,0.90959
1372,1110,3.31782,-0.0236702,0.261273,0.908984
1375,1107,3.31739,-0.0259769,0.261769,0.909231
1378,1104,3.32016,-0.0205422,0.259694,0.908285
1381,1101,3.31984,-0.0204933,0.259694,0.908309
1384,1098,3.31903,-0.0213798,0.260189,0.907683
1387,1095,3.31893,-0.0214517,0.26019,0.907665
1390,1092,3.31896,-0.0222486,0.260189,0.907343
1393,1089,3.31873,-0.0222568,0.260189,0.907347
1396,1086,3.31786,-0.0231149,0.260682,0.90532
1399,1083,3.31785,-0.0231786,0.260681,0.906704
1402,1080,3.31769,-0.023902,0.260679,0.906401
1405,1077,3.31934,-0.0207448,0.259587,0.90542
1408,1074,3.31899,-0.0206444,0.259587,0.905452
1411,1071,3.31921,-0.0215527,0.259591,0.905129
1414,1068,3.3184,-0.0224526,0.260095,0.904529
1417,1065,3.318,-0.0223862,0.260097,0.904571
1420,1062,3.31794,-0.0230988,0.260092,0.90427
1423,1059,3.31781,-0.0231553,0.260089,0.904239
1426,1056,3.31694,-0.0241617,0.260587,0.903565
1429,1053,3.31925,-0.0199067,0.258986,0.90186
1432,1050,3.31926,-0.0207571,0.25899,0.902924
1435,1047,3.3187,-0.0216373,0.259489,0.902302
1438,1044,3.31804,-0.0216624,0.259488,0.902302
1441,1041,3.31755,-0.0225007,0.259987,0.901675
1444,1038,3.31753,-0.0225782,0.260596,0.901675
1447,1035,3.3172,-0.0234464,0.259995,0.901353
1450,1032,3.31632,-0.0242969,0.260502,0.900759
1453,1029,3.31604,-0.0243469,0.260501,0.900742
1456,1026,3.31869,-0.0208907,0.258894,0.900091
1459,1023,3.31809,-0.0209501,0.259098,0.900057
1462,1020,3.31754,-0.0218784,0.259395,0.899418
1465,1017,3.31762,-0.022706,0.259393,0.899094
1468,1014,3.31718,-0.022689,0.25939,0.8991
1471,1011,3.31635,-0.0236503,0.259895,0.898446
1474,1008,3.31657,-0.0245025,0.259892,0.898112
1477,1005,3.31606,-0.0244239,0.259887,0.898122
1480,1002,3.31798,-0.0212161,0.25878,0.897092
1483,999,3.31769,-0.0211695,0.258781,0.897123
1486,996,3.3178,-0.0220805,0.258782,0.896772
1489,993,3.31751,-0.0228477,0.258989,0.896471
1492,990,3.31653,-0.0229616,0.259284,0.896141
1495,987,3.3166,-0.0260152,0.25979,0.895868
1498,984,3.31621,-0.0259648,0.259785,0.89587
1501,981,3.31514,-0.0270066,0.260296,0.895187
1504,978,3.31784,-0.0234206,0.258676,0.894581
1507,975,3.31736,-0.0244376,0.259192,0.893927
1510,972,3.31752,-0.0221659,0.258179,0.894206
1513,969,3.31662,-0.0229802,0.258692,0.893628
1516,966,3.3168,-0.0238507,0.258698,0.893313
1519,963,3.31635,-0.0238134,0.258692,0.893323
1522,960,3.31532,-0.0247738,0.259203,0.892664
1525,957,3.31757,-0.0214488,0.25808,0.891628
1528,954,3.31706,-0.023725,0.258593,0.891658
1531,951,3.31653,-0.0244429,0.258587,0.891366
1534,948,3.31672,-0.025303,0.25858,0.891019
1537,945,3.3165,-0.0253157,0.259184,0.891001
1540,942,3.31566,-0.0263043,0.259083,0.890315
1543,939,3.31531,-0.0262712,0.259087,0.890341
1546,936,3.31526,-0.0271385,0.259091,0.890025
1549,933,3.31683,-0.0238553,0.257986,0.889039
1552,930,3.31611,-0.0247246,0.258505,0.888673
1555,927,3.3161,-0.0247838,0.258504,0.888413
1558,924,3.31555,-0.0256417,0.2585,0.888077
1561,921,3.31484,-0.0265713,0.259015,0.887433
1564,918,3.31487,-0.0274108,0.259005,0.88693
1567,915,3.31419,-0.0273945,0.259002,0.887078
1570,912,3.31592,-0.0239736,0.257881,0.886073
1573,909,3.31612,-0.024888,0.258089,0.885736
1576,906,3.31575,-0.0248284,0.257877,0.885758
1579,903,3.31469,-0.0258265,0.258407,0.885114
1582,900,3.31486,-0.0268327,0.258409,0.884755
1585,897,3.31438,-0.0275604,0.258416,0.884503
1588,894,3.31618,-0.0240415,0.257505,0.883553
1591,891,3.31601,-0.0241519,0.257297,0.883515
1594,888,3.31515,-0.0251499,0.257819,0.882846
1597,885,3.3147,-0.025889,0.257814,0.882553
1600,882,3.31419,-0.0269135,0.258335,0.881883
1603,879,3.31374,-0.0270123,0.258335,0.881845
1606,876,3.31248,-0.0279325,0.258862,0.881212
1609,873,3.31554,-0.0243856,0.25721,0.880524
1612,870,3.31512,-0.0253013,0.257221,0.880225
1615,867,3.31425,-0.0262008,0.257751,0.879412
1618,864,3.31426,-0.0270799,0.257752,0.879301
1621,861,3.31375,-0.0249159,0.257239,0.879265
1624,858,3.31278,-0.0256706,0.25776,0.878678
1627,855,3.31489,-0.0246639,0.257161,0.877633
1630,852,3.31452,-0.0254394,0.257233,0.877349
1633,849,3.31361,-0.0264036,0.25769,0.876698
1636,846,3.31367,-0.0273515,0.257691,0.876357
1639,843,3.31319,-0.0250024,0.257158,0.876578
1642,840,3.31201,-0.0282545,0.258224,0.87573
1645,837,3.31471,-0.024678,0.256559,0.875034
1648,834,3.31383,-0.023384,0.256566,0.874362
1651,831,3.31371,-0.0241973,0.256566,0.874076
1654,828,3.3129,-0.0252868,0.257103,0.873401
1657,825,3.3123,-0.0260165,0.257107,0.873165
1660,822,3.31447,-0.0225007,0.255978,0.872164
1663,819,3.31411,-0.0225629,0.255969,0.872112
1666,816,3.31351,-0.0234701,0.255968,0.871761
1669,813,3.31292,-0.0245092,0.256505,0.871104
1672,810,3.31247,-0.0253633,0.256709,0.870783
1675,807,3.31168,-0.0262839,0.257038,0.870148
1678,804,3.31437,-0.022623,0.255363,0.869457
1681,801,3.31367,-0.0226498,0.255362,0.869449
1684,798,3.3129,-0.0237097,0.255904,0.868788
1687,795,3.31249,-0.0245317,0.255911,0.868521
1690,792,3.31137,-0.0255849,0.256462,0.867877
1693,789,3.31419,-0.0219242,0.254984,0.867193
1696,786,3.3131,-0.0228902,0.255318,0.866542
1699,783,3.31292,-0.0236319,0.255314,0.866261
1702,780,3.3123,-0.0247907,0.255858,0.865554
1705,777,3.31166,-0.0256481,0.255854,0.865231
1708,774,3.31114,-0.0267101,0.256399,0.864563
1711,771,3.31328,-0.0220466,0.254709,0.8642
1714,768,3.31292,-0.022896,0.254704,0.86388
1717,765,3.31231,-0.0239859,0.255252,0.863199
1720,762,3.31174,-0.0249173,0.255252,0.862873
1723,759,3.3108,-0.0259905,0.255813,0.862244
1726,756,3.31323,-0.0198823,0.253593,0.861595
1729,753,3.31237,-0.0214734,0.254119,0.86069
1732,750,3.312,-0.0310038,0.254093,0.860588
1735,747,3.31121,-0.0227438,0.254635,0.859812
1738,744,3.31058,-0.0322215,0.254631,0.859808
1741,741,3.31028,-0.0332103,0.254631,0.859457
1744,738,3.30898,-0.0341661,0.255179,0.858826
1747,735,3.3121,-0.0280357,0.252928,0.858102
1750,732,3.31099,-0.0291217,0.253469,0.857395
1753,729,3.31103,-0.027489,0.25292,0.857112
1756,726,3.31021,-0.0286349,0.25347,0.856416
1759,723,3.30968,-0.0295384,0.253476,0.856131
1762,720,3.31196,-0.0259443,0.252325,0.855072
1765,717,3.31162,-0.0244592,0.25178,0.854764
1768,714,3.31075,-0.0253625,0.252325,0.854134
1771,711,3.31086,-0.0238372,0.251774,0.853789
1774,708,3.30972,-0.0248214,0.25231,0.853132
1777,705,3.31242,-0.0202185,0.250608,0.852713
1780,702,3.31177,-0.0210515,0.250109,0.852423
1783,699,3.31114,-0.0314984,0.250599,0.852121
1786,696,3.31038,-0.0326357,0.251146,0.851429
1789,693,3.30983,-0.0334921,0.251145,0.851356
1792,690,3.31217,-0.0274792,0.24944,0.850061
1795,687,3.31177,-0.0283986,0.249438,0.849735
1798,684,3.31074,-0.0293478,0.249994,0.849143
1801,681,3.31075,-0.0279224,0.249457,0.848817
1804,678,3.3092,-0.0313771,0.25056,0.848221
1807,675,3.31225,-0.025078,0.248302,0.847535
1810,672,3.31115,-0.0261798,0.248841,0.846816
1813,669,3.31095,-0.0245425,0.248284,0.846485
1816,666,3.31016,-0.0256971,0.248831,0.845783
1819,663,3.30947,-0.0265586,0.24883,0.845488
1822,660,3.30899,-0.0252081,0.248828,0.844804
1825,657,3.3114,-0.0213269,0.247312,0.844128
1828,654,3.3105,-0.0223763,0.247663,0.84346
1831,651,3.30971,-0.0330179,0.247664,0.843172
1834,648,3.30883,-0.0243841,0.248201,0.842432
1837,645,3.30837,-0.0351006,0.248204,0.84214
1840,642,3.31085,-0.031273,0.246486,0.841661
1843,639,3.3102,-0.0297883,0.246484,0.840791
1846,636,3.30925,-0.0308952,0.247034,0.840106
1849,633,3.30873,-0.031802,0.24703,0.839795
1852,630,3.30895,-0.0302308,0.246476,0.839462
1855,627,3.31064,-0.0265257,0.245301,0.838408
1858,624,3.3108,-0.024904,0.24475,0.838101
1861,621,3.30973,-0.0259612,0.245295,0.837432
1864,618,3.30924,-0.0267074,0.245291,0.837175
1867,615,3.3088,-0.0255557,0.245292,0.836417
1870,612,3.31123,-0.0215273,0.243219,0.835745
1873,609,3.31086,-0.0216083,0.243555,0.835701
1876,606,3.31011,-0.0322861,0.243548,0.835414
1879,603,3.30903,-0.0334232,0.244094,0.834726
1882,600,3.30826,-0.0345722,0.244641,0.834268
1885,597,3.31062,-0.0306478,0.242926,0.832195
1888,594,3.3107,-0.0290317,0.24238,0.833327
1891,591,3.3097,-0.0301852,0.242927,0.832411
1894,588,3.3089,-0.0286942,0.242925,0.831754
1897,585,3.30874,-0.029568,0.242929,0.831478
1900,582,3.31028,-0.0258882,0.241745,0.830394
1903,579,3.31059,-0.0242737,0.241197,0.830092
1906,576,3.31008,-0.0252838,0.241199,0.829749
1909,573,3.30929,-0.0237789,0.241192,0.829095
1912,570,3.30908,-0.0247336,0.241198,0.828793
1915,567,3.31042,-0.0234708,0.241171,0.827737
1918,564,3.3106,-0.0219377,0.240011,0.827417
1921,561,3.30941,-0.0228978,0.240555,0.826788
1924,558,3.30872,-0.0339502,0.240553,0.824942
1927,555,3.30766,-0.0350225,0.2411,0.825787
1930,552,3.31012,-0.0309471,0.239355,0.825114
1933,549,3.30961,-0.0296701,0.239357,0.824393
1936,546,3.30913,-0.0305161,0.239356,0.824121
1939,543,3.30822,-0.0316866,0.239902,0.823422
1942,540,3.30814,-0.0300473,0.239354,0.82312
1945,537,3.30976,-0.0261791,0.238157,0.822077
1948,534,3.30995,-0.0271824,0.238769,0.821717
1951,531,3.30863,-0.0283013,0.238703,0.82107
1954,528,3.30871,-0.0265632,0.238155,0.8208
1957,525,3.30769,-0.0277574,0.238704,0.820107
1960,522,3.30692,-0.0286273,0.238701,0.819812
1963,519,3.3096,-0.0222212,0.236956,0.818561
1966,516,3.3089,-0.0232133,0.236953,0.818439
1969,513,3.30806,-0.0243318,0.238115,0.817761
1972,510,3.30722,-0.0354356,0.237499,0.817475
1975,507,3.30603,-0.0365488,0.238049,0.816811
1978,504,3.30896,-0.032488,0.236297,0.81613
1981,501,3.30814,-0.0234445,0.236846,0.815424
1984,498,3.3079,-0.0320473,0.236296,0.815135
1987,495,3.3075,-0.0329855,0.236478,0.814826
1990,492,3.30659,-0.0314959,0.236296,0.814169
1993,489,3.3094,-0.0273926,0.234534,0.813461
1996,486,3.3084,-0.0284195,0.235073,0.812783
1999,483,3.30843,-0.0260056,0.234559,0.812671
2002,480,3.30789,-0.0271018,0.234512,0.812327
2005,477,3.30707,-0.0254901,0.23451,0.81171
2008,474,3.30986,-0.0214956,0.232758,0.811001
2011,471,3.30868,-0.0225445,0.233296,0.810338
2014,468,3.30862,-0.0235071,0.233295,0.810032
2017,465,3.30785,-0.0244052,0.233294,0.809734
2020,462,3.30673,-0.0359257,0.233838,0.809041
2023,459,3.30661,-0.0342629,0.233287,0.808722
2026,456,3.30862,-0.0303326,0.23212,0.807668
2029,453,3.30926,-0.0302992,0.231511,0.807932
2032,450,3.30851,-0.029656,0.23151,0.806999
2035,447,3.30753,-0.0307997,0.232671,0.806354
2038,444,3.30622,-0.031952,0.232612,0.805687
2041,441,3.30919,-0.0252165,0.230302,0.804996
2044,438,3.30841,-0.0264258,0.230854,0.804334
2047,435,3.30772,-0.0274515,0.230855,0.804015
2050,432,3.30777,-0.0256661,0.230304,0.803736
2053,429,3.30683,-0.0268068,0.230844,0.803044
2056,426,3.3092,-0.0216737,0.229072,0.802651
2059,423,3.30915,-0.0227617,0.229069,0.802301
2062,420,3.30791,-0.0238832,0.229609,0.80162
2065,417,3.30743,-0.0352312,0.229605,0.801338
2068,414,3.30714,-0.0334779,0.228527,0.801037
2071,411,3.309,-0.0322626,0.228381,0.799985
2074,408,3.30842,-0.0307739,0.228381,0.799304
2077,405,3.308,-0.0317892,0.228376,0.798982
2080,402,3.30683,-0.0329568,0.228931,0.798335
2083,399,3.30673,-0.0313495,0.228385,0.798007
2086,396,3.30545,-0.0324637,0.228929,0.797339
2089,393,3.30854,-0.0282473,0.22715,0.796655
2092,390,3.30733,-0.0295219,0.228093,0.795928
2095,387,3.30733,-0.0277531,0.227141,0.79565
2098,384,3.30637,-0.0289186,0.227684,0.79496
2101,381,3.30587,-0.0298786,0.227683,0.794666
2104,378,3.30927,-0.0229797,0.225356,0.79398
2107,375,3.30795,-0.0241771,0.225901,0.793296
2110,372,3.30735,-0.0357275,0.225897,0.793008
2113,369,3.30632,-0.0369477,0.226448,0.792339
2116,366,3.30588,-0.0380296,0.226448,0.792008
2119,363,3.30795,-0.0339494,0.225214,0.791005
2122,360,3.30722,-0.0339426,0.225216,0.791015
2125,357,3.30749,-0.0321361,0.224666,0.790733
2128,354,3.30626,-0.0333932,0.225208,0.790026
2131,351,3.3058,-0.0343383,0.225206,0.789717
2134,348,3.30533,-0.0328117,0.225198,0.789024
2137,345,3.30792,-0.0286575,0.223403,0.788275
2140,342,3.30835,-0.0268562,0.222859,0.788009
2143,339,3.30678,-0.0309088,0.22394,0.787251
2146,336,3.30665,-0.028162,0.223429,0.787255
2149,333,3.3063,-0.0292188,0.223389,0.786938
2152,330,3.30808,-0.0249956,0.222135,0.785899
2155,327,3.30832,-0.0233924,0.221602,0.785594
2158,324,3.30711,-0.0245405,0.222142,0.784926
2161,321,3.3068,-0.0255404,0.222142,0.784627
2164,318,3.30572,-0.0267292,0.222724,0.783954
2167,315,3.30498,-0.038513,0.222683,0.783646
2170,312,3.30755,-0.0316602,0.220883,0.782584
2173,309,3.30705,-0.0326783,0.22088,0.782272
2176,306,3.30631,-0.0340108,0.22142,0.781543
2179,303,3.30572,-0.0350785,0.221419,0.781223
2182,300,3.30534,-0.0350566,0.221415,0.781217
2185,297,3.30838,-0.02779,0.219065,0.780585
2188,294,3.30721,-0.0290033,0.219609,0.779903
2191,291,3.30738,-0.027343,0.219069,0.779593
2194,288,3.30597,-0.0312599,0.220151,0.778902
2197,285,3.30618,-0.0295474,0.219602,0.778597
2200,282,3.30483,-0.0309389,0.22054,0.777859
2203,279,3.3082,-0.0227536,0.217793,0.777489
2206,276,3.30763,-0.0236722,0.217788,0.77721
2209,273,3.30655,-0.0248738,0.218326,0.775227
2212,270,3.30592,-0.0367791,0.218321,0.776206
2215,267,3.30547,-0.037792,0.218319,0.775905
2218,264,3.30472,-0.0390761,0.219463,0.775198
2221,261,3.30747,-0.0346905,0.217046,0.774515
2224,258,3.30696,-0.0332044,0.217043,0.773812
2227,255,3.3063,-0.033223,0.217039,0.773801
2230,252,3.30608,-0.0341785,0.217038,0.77352
2233,249,3.30521,-0.0326625,0.217038,0.772824
2236,246,3.30457,-0.0336548,0.217039,0.772534
2239,243,3.30707,-0.0294864,0.215763,0.771453
2242,240,3.30665,-0.0304801,0.215763,0.771167
2245,237,3.30612,-0.0290556,0.215766,0.770466
2248,234,3.30527,-0.0328593,0.216301,0.770146
2251,231,3.30455,-0.0313159,0.216301,0.769463
2254,228,3.3073,-0.0268621,0.214476,0.76877
2257,225,3.30706,-0.0268176,0.214472,0.768775
2260,222,3.3071,-0.0250651,0.213933,0.768492
2263,219,3.30578,-0.0261965,0.21447,0.767812
2266,216,3.30526,-0.0383533,0.214468,0.767516
2269,213,3.30386,-0.0396009,0.215007,0.766818
2272,210,3.30702,-0.0353184,0.213181,0.76609
2275,207,3.30581,-0.0365124,0.213721,0.765428
2278,204,3.30606,-0.0347583,0.21318,0.765128
2281,201,3.30537,-0.0348317,0.213187,0.765133
2284,198,3.30495,-0.0340399,0.213184,0.764221
2287,195,3.30429,-0.034152,0.213185,0.764199
2290,192,3.3065,-0.0299743,0.211888,0.763072
2293,189,3.30625,-0.0309501,0.211883,0.762781
2296,186,3.30508,-0.0321321,0.212426,0.762349
2299,183,3.30536,-0.0304835,0.211887,0.761803
2302,180,3.30488,-0.0314573,0.211884,0.761513
2305,177,3.3079,-0.0259813,0.210045,0.761091
2308,174,3.3065,-0.0273477,0.21058,0.76036
2311,171,3.30663,-0.025526,0.210045,0.760096
2314,168,3.30545,-0.0266385,0.210576,0.759646
2317,165,3.30501,-0.0390423,0.210574,0.759099
2320,162,3.30381,-0.040287,0.211112,0.758415
2323,159,3.30665,-0.0347715,0.209261,0.757979
2326,156,3.3064,-0.0358343,0.209262,0.757691
2329,153,3.30502,-0.0370687,0.209803,0.757009
2332,150,3.3053,-0.0352218,0.209271,0.756759
2335,147,3.30401,-0.0364976,0.209807,0.756062
2338,144,3.30424,-0.0347514,0.209208,0.755769
2341,141,3.30712,-0.0301973,0.207425,0.755083
2344,138,3.30681,-0.0302084,0.207424,0.755081
2347,135,3.30558,-0.0315587,0.207956,0.754356
2350,132,3.30601,-0.0296097,0.20742,0.754118
2353,129,3.30447,-0.0310398,0.207955,0.753373
2356,126,3.30414,-0.0320573,0.207953,0.753074
2359,123,3.30724,-0.0274742,0.206102,0.752393
2362,120,3.30716,-0.0245175,0.20557,0.752433
2365,117,3.30626,-0.0259257,0.206101,0.7517
2368,114,3.30494,-0.0271129,0.206635,0.751023
2371,111,3.30437,-0.0395236,0.206641,0.750808
2374,108,3.30335,-0.029462,0.207183,0.750083
2377,105,3.30633,-0.0363329,0.205324,0.749412
2380,102,3.30509,-0.0375758,0.20586,0.74872
2383,99,3.30551,-0.0358416,0.205319,0.748402
2386,96,3.30426,-0.0387345,0.205847,0.74837
2389,93,3.30455,-0.0368269,0.205309,0.7481
2392,90,3.30318,-0.0382343,0.206212,0.747348
2395,87,3.30691,-0.0306859,0.203446,0.746675
2398,84,3.30655,-0.0317408,0.203441,0.74637
2401,81,3.30529,-0.0320396,0.203972,0.745941
2404,78,3.30488,-0.0331679,0.203972,0.745635
2407,75,3.30496,-0.0311887,0.203438,0.745386
2410,72,3.30388,-0.0326072,0.203968,0.744653
2413,69,3.30692,-0.0280405,0.202103,0.743932
2416,66,3.30612,-0.0262938,0.202101,0.743282
2419,63,3.30573,-0.0273789,0.2021,0.742991
2422,60,3.30499,-0.0286221,0.202637,0.742329
2425,57,3.30425,-0.0286385,0.20263,0.742307
2428,54,3.3035,-0.041362,0.20263,0.741999
2431,51,3.30639,-0.03682,0.201123,0.741286
2434,48,3.30565,-0.0380833,0.201294,0.740619
2437,45,3.30523,-0.039178,0.20129,0.740308
2440,42,3.30527,-0.0362273,0.200757,0.740328
2443,39,3.30383,-0.0375752,0.201285,0.739607
2446,36,3.30369,-0.0386115,0.201284,0.739318
2449,33,3.3058,-0.0342853,0.199939,0.738182
2452,30,3.30626,-0.0322608,0.199407,0.737954
2455,27,3.30573,-0.033495,0.199406,0.737611
2458,24,3.30577,-0.0304645,0.198874,0.737645
2461,21,3.30441,-0.0318838,0.199401,0.736915
2464,18,3.30324,-0.0331419,0.199931,0.736219
2467,15,3.30654,-0.0284413,0.19841,0.735547
2470,12,3.30536,-0.0297369,0.198581,0.734836
2473,9,3.305616,-0.0278883,0.197561,0.734566
2476,6,3.3051,-0.0277344,0.198055,0.734636
2479,3,3.3047,-0.0289999,0.19805,0.734279