File: hust_correlation_analysis/matrices/HUST_4-3_cycle_feature_matrix.csv
cycle_number,rul,voltage,current,capacity,charge_capacity
1,1144,3.3116,-0.00669701,0.333026,1.02991
3,1142,3.29927,-0.00700418,0.33802,1.02524
5,1140,3.29984,-0.00806867,0.338028,1.0246
7,1138,3.29979,-0.00855607,0.338025,1.0243
9,1136,3.30186,-0.00620289,0.336474,1.02396
11,1134,3.30166,-0.00688449,0.337099,1.02351
13,1132,3.30184,-0.00741155,0.336458,1.02316
15,1130,3.30178,-0.00798055,0.336457,1.02281
17,1128,3.30166,-0.00795299,0.336459,1.02285
19,1126,3.30139,-0.00860522,0.336458,1.02243
21,1124,3.30101,-0.00924041,0.336903,1.02186
23,1122,3.30298,-0.0062388,0.335349,1.02192
25,1120,3.30244,-0.00684584,0.335347,1.02152
27,1118,3.30225,-0.00692771,0.335336,1.02146
29,1116,3.30227,-0.00760175,0.335337,1.02103
31,1114,3.30274,-0.00754694,0.334888,1.02123
33,1112,3.30264,-0.00812378,0.33489,1.02086
35,1110,3.30244,-0.00812651,0.334884,1.02084
37,1108,3.30279,-0.00870504,0.334875,1.02046
39,1106,3.30252,-0.00868909,0.334878,1.02048
41,1104,3.30238,-0.0093461,0.334874,1.02004
43,1102,3.30207,-0.00935357,0.334869,1.02004
45,1100,3.30378,-0.00645768,0.333756,1.01986
47,1098,3.30354,-0.00703108,0.333761,1.01948
49,1096,3.30285,-0.00703981,0.334187,1.0193
51,1094,3.30299,-0.00773076,0.33419,1.01886
53,1092,3.30314,-0.00766113,0.333751,1.01906
55,1090,3.30313,-0.00821354,0.333758,1.01873
57,1088,3.3026,-0.00833187,0.334184,1.01847
59,1086,3.30326,-0.00828026,0.333745,1.01867
61,1084,3.30325,-0.00877903,0.333743,1.01832
63,1082,3.30297,-0.00881962,0.33374,1.01829
65,1080,3.30334,-0.00932797,0.333736,1.01821
67,1078,3.30309,-0.00942124,0.33374,1.01793
69,1076,3.3049,-0.00698027,0.332631,1.01744
71,1074,3.30418,-0.00720487,0.333069,1.01715
73,1072,3.30479,-0.00753909,0.332632,1.0171
75,1070,3.30418,-0.00759164,0.333073,1.01692
77,1068,3.30385,-0.00764161,0.333074,1.01686
79,1066,3.30388,-0.0076403,0.333067,1.01687
81,1064,3.30369,-0.00817756,0.333056,1.01675
83,1062,3.30333,-0.00830314,0.333065,1.01644
85,1060,3.30324,-0.00826883,0.333057,1.01644
87,1058,3.30354,-0.00882766,0.333058,1.01608
89,1056,3.30329,-0.00879312,0.333054,1.0161
91,1054,3.30338,-0.00882611,0.333062,1.01609
93,1052,3.30354,-0.00935047,0.333056,1.01577
95,1050,3.30525,-0.00650062,0.331966,1.01559
97,1048,3.305,-0.00702199,0.331963,1.01525
99,1046,3.30498,-0.00701398,0.33196,1.01524
101,1044,3.30514,-0.00699857,0.332583,1.01525
103,1042,3.30507,-0.00756504,0.331954,1.01487
105,1040,3.30438,-0.00766361,0.332463,1.01462
107,1038,3.30431,-0.00765091,0.332379,1.01462
109,1036,3.30417,-0.00769697,0.332382,1.0146
111,1034,3.30389,-0.00826534,0.332381,1.01422
113,1032,3.30388,-0.00831635,0.332465,1.01396
115,1030,3.30453,-0.00824976,0.331952,1.01444
117,1028,3.30416,-0.00883099,0.332399,1.01394
119,1026,3.30406,-0.00878978,0.332391,1.01395
121,1024,3.30469,-0.00872117,0.331877,1.01442
123,1022,3.3042,-0.00929385,0.33252,1.01362
125,1020,3.30378,-0.00935412,0.332382,1.01356
127,1018,3.30372,-0.00937462,0.33239,1.01356
129,1016,3.30563,-0.00706238,0.331278,1.01295
131,1014,3.30528,-0.00703104,0.331278,1.01299
133,1012,3.30471,-0.0071077,0.331792,1.01278
135,1010,3.30455,-0.00706561,0.331715,1.01283
137,1008,3.30457,-0.00770212,0.331717,1.01241
139,1006,3.30427,-0.00766484,0.331724,1.01246
141,1004,3.30451,-0.00771664,0.331732,1.01246
143,1002,3.30458,-0.00829318,0.331734,1.01209
145,1000,3.30483,-0.00817111,0.331298,1.01234
147,998,3.30453,-0.00824481,0.331731,1.01211
149,996,3.30487,-0.00876525,0.331729,1.01178
151,994,3.30473,-0.00874771,0.33173,1.0118
153,992,3.30455,-0.00880707,0.331813,1.01177
155,990,3.30454,-0.00873524,0.331728,1.01182
157,988,3.30458,-0.00938299,0.331732,1.0114
159,986,3.30423,-0.00934351,0.331734,1.01143
161,984,3.30428,-0.00929277,0.33174,1.01149
163,982,3.30557,-0.00647164,0.331207,1.01109
165,980,3.30539,-0.00700025,0.331072,1.01073
167,978,3.30504,-0.00706295,0.331201,1.01067
169,976,3.30511,-0.00702736,0.331067,1.01072
171,974,3.30534,-0.00760595,0.331072,1.01034
173,972,3.30506,-0.00763957,0.331073,1.01035
175,970,3.30519,-0.00757613,0.331065,1.01036
177,968,3.30522,-0.00752998,0.331076,1.01042
179,966,3.30492,-0.0082507,0.331525,1.0098
181,964,3.30505,-0.00824004,0.330944,1.00993
183,962,3.30516,-0.00824111,0.331073,1.01023
185,960,3.30524,-0.00821563,0.331075,1.00998
187,958,3.30466,-0.00872572,0.331064,1.00964
189,956,3.30473,-0.00826793,0.331065,1.00992
191,954,3.30492,-0.00883302,0.331069,1.00955
193,952,3.30422,-0.00883651,0.331512,1.0094
195,950,3.30401,-0.00889685,0.331512,1.00937
197,948,3.30447,-0.00885475,0.331063,1.00954
199,946,3.30405,-0.00949337,0.331507,1.00898
201,944,3.30414,-0.0094237,0.331073,1.00919
203,942,3.30431,-0.00940882,0.331066,1.0092
205,940,3.30628,-0.00651888,0.330588,1.009
207,938,3.30588,-0.0070568,0.330396,1.00848
209,936,3.30616,-0.00702208,0.329961,1.00867
211,934,3.30643,-0.00706476,0.329968,1.00866
213,932,3.30593,-0.00766325,0.330396,1.00809
215,930,3.30559,-0.00770081,0.3304,1.00808
217,928,3.30547,-0.00769393,0.330399,1.00808
219,926,3.30541,-0.00761263,0.330382,1.00809
221,924,3.30509,-0.00767574,0.330381,1.00803
223,922,3.30478,-0.00774369,0.33037,1.00795
225,920,3.30473,-0.00775895,0.330441,1.00794
227,918,3.304724,-0.00838126,0.330356,1.00753
229,916,3.30439,-0.00816728,0.330368,1.00768
231,914,3.30472,-0.00833417,0.33035,1.00754
233,912,3.30453,-0.00850263,0.33035,1.00744
235,910,3.30466,-0.00836134,0.330346,1.00751
237,908,3.30485,-0.00891721,0.330349,1.00717
239,906,3.30491,-0.00898404,0.330353,1.00714
241,904,3.30513,-0.00893497,0.329919,1.00732
243,902,3.30484,-0.0089549,0.329914,1.0073
245,900,3.30461,-0.00957199,0.330349,1.00676
247,898,3.30453,-0.00959359,0.330348,1.00674
249,896,3.3043,-0.0095506,0.330346,1.00675
251,894,3.30392,-0.00958118,0.330346,1.00672
253,892,3.30554,-0.00725009,0.329684,1.00602
255,890,3.30567,-0.00718236,0.32925,1.00623
257,888,3.3054,-0.00715426,0.32925,1.00627
259,886,3.30519,-0.00782944,0.329686,1.00566
261,884,3.30565,-0.00773711,0.329241,1.00587
263,882,3.30547,-0.00776328,0.329241,1.00585
265,880,3.3054,-0.00776064,0.329243,1.00722
267,878,3.30567,-0.0077719,0.329242,1.00584
269,876,3.30569,-0.00835399,0.329242,1.00546
271,874,3.30541,-0.00835027,0.32924,1.00573
273,872,3.30533,-0.00841064,0.329229,1.00542
275,870,3.30548,-0.00890677,0.329237,1.00511
277,868,3.3054,-0.0088556,0.329253,1.00518
279,866,3.30537,-0.00884698,0.329256,1.0052
281,864,3.30496,-0.00944315,0.32969,1.00464
283,862,3.3047,-0.00948422,0.329762,1.0046
285,860,3.30434,-0.00950424,0.329679,1.00457
287,858,3.30598,-0.00666142,0.328572,1.00434
289,856,3.30611,-0.00718533,0.328564,1.00399
291,854,3.30599,-0.00725528,0.328571,1.00396
293,852,3.30575,-0.00722632,0.328564,1.00396
295,850,3.30609,-0.00724541,0.328573,1.00394
297,848,3.30622,-0.00776237,0.328573,1.00363
299,846,3.30616,-0.00774659,0.328578,1.00364
301,844,3.30571,-0.00835412,0.329013,1.00309
303,842,3.30609,-0.00824587,0.328574,1.00333
305,840,3.30559,-0.00841197,0.329017,1.00306
307,838,3.30532,-0.00893972,0.329018,1.00274
309,836,3.30527,-0.00888689,0.329006,1.00276
311,834,3.30517,-0.00895455,0.32901,1.00272
313,832,3.30487,-0.00889196,0.329015,1.00274
315,830,3.30457,-0.00902325,0.329009,1.00265
317,828,3.30465,-0.00954288,0.329012,1.00233
319,826,3.30446,-0.00959678,0.328953,1.0023
321,824,3.30618,-0.00673184,0.32791,1.00209
323,822,3.30639,-0.00719494,0.327912,1.0018
325,820,3.30672,-0.00719293,0.32792,1.00182
327,818,3.30625,-0.00774042,0.32849,1.00132
329,816,3.30643,-0.00770285,0.327915,1.00149
331,814,3.30652,-0.00768383,0.327915,1.00149
333,812,3.30662,-0.00830443,0.327907,1.00107
335,810,3.30636,-0.0083137,0.327914,1.00109
337,808,3.30615,-0.00834892,0.327911,1.00106
339,806,3.30612,-0.00834127,0.327907,1.00107
341,804,3.30618,-0.00878345,0.328523,1.00075
343,802,3.30548,-0.00891242,0.328349,0.999108
345,800,3.30499,-0.00900445,0.328805,1.00036
347,798,3.305,-0.00953831,0.328796,0.999984
349,796,3.30459,-0.00953437,0.3288,1.00003
351,794,3.3047,-0.00947521,0.328363,1.00022
353,792,3.30673,-0.00715373,0.327255,0.999627
355,790,3.30664,-0.00717771,0.32726,0.999627
357,788,3.30641,-0.00717479,0.327256,0.999635
359,786,3.30668,-0.00716928,0.327243,0.999603
361,784,3.30684,-0.00776449,0.327243,0.999214
363,782,3.30672,-0.00772915,0.327244,0.999226
365,780,3.30673,-0.00780213,0.327245,0.999208
367,778,3.30656,-0.00833304,0.327689,0.998716
369,776,3.30695,-0.00832209,0.327257,0.998877
371,774,3.30628,-0.00897847,0.327698,0.998593
373,772,3.30621,-0.00887694,0.327697,0.998391
375,770,3.30611,-0.00892228,0.327696,0.998359
377,768,3.30609,-0.0094223,0.327694,0.998021
379,766,3.30524,-0.00955113,0.328139,0.997797
381,764,3.30511,-0.00958819,0.328764,0.997763
383,762,3.30519,-0.00948572,0.327688,0.997963
385,760,3.30649,-0.00720297,0.327011,0.997171
387,758,3.30628,-0.00723474,0.327016,0.997155
389,756,3.30688,-0.00723429,0.326591,0.997365
391,754,3.30674,-0.00777735,0.327035,0.996873
393,752,3.30645,-0.00771431,0.32703,0.996905
395,750,3.30677,-0.00772195,0.327039,0.996923
397,748,3.30673,-0.00831676,0.327037,0.996534
399,746,3.30641,-0.00832631,0.32717,0.996539
401,744,3.30655,-0.00890223,0.327039,0.996182
403,742,3.30651,-0.00894399,0.327034,0.996148
405,740,3.30638,-0.00888532,0.327034,0.996186
407,738,3.30629,-0.00947286,0.327162,0.995802
409,736,3.30627,-0.00943382,0.327029,0.995812
411,734,3.30564,-0.00955717,0.327471,0.995576
413,732,3.30717,-0.00655078,0.326488,0.995406
415,730,3.30703,-0.00714534,0.326365,0.995024
417,728,3.30714,-0.00717079,0.326372,0.995049
419,726,3.30706,-0.00769867,0.32638,0.994736
421,724,3.30669,-0.00775137,0.326378,0.994685
423,722,3.30668,-0.00775531,0.326366,0.994665
425,720,3.30711,-0.00779026,0.325923,0.994787
427,718,3.30667,-0.00835828,0.326364,0.994187
429,716,3.3066,-0.00840126,0.326495,0.994234
431,714,3.30701,-0.00830274,0.325918,0.99445
433,712,3.30662,-0.00902049,0.326354,0.993823
435,710,3.3062,-0.00901699,0.326357,0.993834
437,708,3.30622,-0.00911736,0.326506,0.993787
439,706,3.30614,-0.00960818,0.326359,0.993464
441,704,3.30583,-0.00955648,0.326358,0.993496
443,702,3.30763,-0.00724519,0.325251,0.992887
445,700,3.30758,-0.00717534,0.325377,0.992921
447,698,3.30739,-0.00719416,0.325243,0.992874
449,696,3.30681,-0.00783499,0.325684,0.992321
451,694,3.30658,-0.00789795,0.325687,0.992278
453,692,3.30661,-0.00790699,0.325686,0.992283
455,690,3.30652,-0.0084729,0.32568,0.991894
457,688,3.30623,-0.00852016,0.32568,0.99188
459,686,3.30636,-0.00849078,0.325672,0.991899
461,684,3.30636,-0.00903676,0.325678,0.991568
463,682,3.30624,-0.00903661,0.325686,0.991584
465,680,3.30641,-0.00958712,0.32569,0.991232
467,678,3.30828,-0.00658374,0.324583,0.991071
469,676,3.3082,-0.0071031,0.324577,0.990707
471,674,3.30778,-0.00716703,0.324572,0.990661
473,672,3.30787,-0.00717961,0.324567,0.990651
475,670,3.30775,-0.00779655,0.324571,0.990249
477,668,3.30751,-0.00780551,0.324572,0.990244
479,666,3.30702,-0.00842908,0.32501,0.989681
481,664,3.30694,-0.00841123,0.325005,0.9897
483,662,3.30694,-0.00893754,0.325016,0.989381
485,660,3.30605,-0.00908085,0.325463,0.989141
487,658,3.3058,-0.00971932,0.325908,0.988598
489,656,3.30595,-0.0096098,0.326106,0.988837
491,654,3.3075,-0.00724037,0.324355,0.988223
493,652,3.30678,-0.00732036,0.324798,0.98801
495,650,3.30718,-0.00727191,0.324343,0.988184
497,648,3.3071,-0.00786029,0.324473,0.987798
499,646,3.30684,-0.00793454,0.324339,0.987728
501,644,3.30746,-0.00782301,0.323894,0.987953
503,642,3.30718,-0.00848732,0.324336,0.987377
505,640,3.30708,-0.00848406,0.324334,0.987383
507,638,3.30669,-0.0091403,0.324784,0.986828
509,636,3.30717,-0.00907056,0.324351,0.987055
511,634,3.30886,-0.00658689,0.323256,0.986568
513,632,3.30829,-0.00720485,0.323824,0.986039
515,630,3.30861,-0.00715033,0.323245,0.986204
517,628,3.30811,-0.00786386,0.323684,0.985585
519,626,3.30764,-0.00782464,0.32368,0.985594
521,624,3.30725,-0.00849603,0.324123,0.984789
523,622,3.3075,-0.00845217,0.323679,0.98518
525,620,3.30731,-0.00836755,0.323748,0.985218
527,618,3.30668,-0.00913459,0.324117,0.984581
529,616,3.30618,-0.00917347,0.324562,0.984405
531,614,3.30606,-0.00964437,0.324586,0.984165
533,612,3.30723,-0.00729885,0.323925,0.983404
535,610,3.30708,-0.00729078,0.323924,0.983413
537,608,3.3076,-0.00784084,0.323475,0.983206
539,606,3.30728,-0.00780451,0.32348,0.98326
541,604,3.30668,-0.00851512,0.323927,0.982657
543,602,3.30718,-0.00834847,0.323486,0.982934
545,600,3.30685,-0.00901679,0.323916,0.98232
547,598,3.30685,-0.00898538,0.323483,0.982509
549,596,3.3067,-0.0095819,0.32393,0.98197
551,594,3.3083,-0.00656329,0.322817,0.981788
553,592,3.3081,-0.00724503,0.322823,0.981375
555,590,3.30781,-0.00789503,0.323274,0.980813
557,588,3.30804,-0.00782175,0.322821,0.981012
559,586,3.30772,-0.00842343,0.323275,0.980486
561,584,3.30762,-0.0084449,0.322833,0.980619
563,582,3.30737,-0.00903335,0.32328,0.98037
565,580,3.30725,-0.0090004,0.323272,0.980137
567,578,3.30691,-0.00952244,0.323281,0.979806
569,576,3.30811,-0.00657338,0.32261,0.979415
571,574,3.30806,-0.00724792,0.32261,0.978969
573,572,3.30758,-0.00783152,0.323066,0.978464
575,570,3.30712,-0.00790865,0.323059,0.978405
577,568,3.30715,-0.0085322,0.322981,0.978004
579,566,3.30685,-0.00900984,0.32306,0.977699
581,564,3.30636,-0.00912395,0.323059,0.97764
583,562,3.30685,-0.00903673,0.322617,0.977846
585,560,3.30625,-0.00972551,0.323058,0.97727
587,558,3.30781,-0.00727059,0.321943,0.976663
589,556,3.30772,-0.00732234,0.321948,0.976653
591,554,3.30774,-0.00789833,0.321952,0.976303
593,552,3.30758,-0.00791918,0.321954,0.976294
595,550,3.30751,-0.00849011,0.321951,0.975909
597,548,3.30764,-0.00846755,0.321944,0.97593
599,546,3.30699,-0.00915638,0.322394,0.975338
601,544,3.30672,-0.00976101,0.322291,0.974932
603,542,3.30854,-0.00670548,0.321281,0.974758
605,540,3.30803,-0.00738226,0.321729,0.97418
607,538,3.30772,-0.00795922,0.321733,0.973825
609,536,3.30729,-0.00861822,0.322178,0.973255
611,534,3.30752,-0.00855076,0.321854,0.973441
613,532,3.30677,-0.00923472,0.322171,0.972852
615,530,3.30647,-0.00982845,0.322169,0.972462
617,528,3.30672,-0.00967311,0.321715,0.971383
619,526,3.30809,-0.00737415,0.32106,0.971879
621,524,3.3077,-0.00735987,0.321052,0.971887
623,522,3.30732,-0.00828931,0.321506,0.97115
625,520,3.30708,-0.0085974,0.321428,0.970937
627,518,3.307,-0.00864397,0.321496,0.970899
629,516,3.30676,-0.00925012,0.32151,0.970543
631,514,3.30628,-0.00988997,0.321966,0.970001
633,512,3.30778,-0.00679875,0.320979,0.969808
635,510,3.30713,-0.00742687,0.321302,0.969263
637,508,3.3069,-0.00811145,0.3213,0.96883
639,506,3.30666,-0.00869438,0.321299,0.968467
641,504,3.30634,-0.00864107,0.321297,0.968503
643,502,3.3063,-0.00931984,0.321296,0.968056
645,500,3.30541,-0.00996248,0.321746,0.967523
647,498,3.30741,-0.00683819,0.320182,0.967486
649,496,3.30713,-0.00754717,0.320639,0.966912
651,494,3.30696,-0.00814358,0.321281,0.966534
653,492,3.30675,-0.00864708,0.320638,0.966207
655,490,3.30688,-0.00926247,0.320646,0.965835
657,488,3.30643,-0.00925081,0.320636,0.965835
659,486,3.30582,-0.00997215,0.321097,0.965254
661,484,3.30785,-0.00740964,0.319981,0.964718
663,482,3.30715,-0.00807575,0.320563,0.964148
665,480,3.30727,-0.0079908,0.319984,0.964109
667,478,3.30729,-0.00860279,0.31998,0.963965
669,476,3.30682,-0.00926659,0.320432,0.963394
671,474,3.30636,-0.00989783,0.320428,0.962975
673,472,3.30811,-0.00680317,0.319319,0.962807
675,470,3.30786,-0.00742947,0.319435,0.962353
677,468,3.30717,-0.00819785,0.319769,0.961748
679,466,3.30719,-0.00873391,0.319758,0.961387
681,464,3.30662,-0.00944272,0.320222,0.960802
683,462,3.30605,-0.00947206,0.319242,0.961048
685,460,3.30809,-0.00742215,0.319114,0.959948
687,458,3.30792,-0.00745174,0.319113,0.959928
689,456,3.30705,-0.00816554,0.319652,0.959317
691,454,3.30699,-0.00879325,0.319564,0.958938
693,452,3.30679,-0.00935326,0.319561,0.958572
695,450,3.30586,-0.0100883,0.320016,0.957973
697,448,3.3077,-0.00753378,0.3189,0.95741
699,446,3.30778,-0.00747146,0.318442,0.957586
701,444,3.30703,-0.00825424,0.318905,0.95697
703,442,3.30696,-0.00874821,0.318908,0.956652
705,440,3.30639,-0.00959502,0.319358,0.955966
707,438,3.3078,-0.00692981,0.318248,0.955476
709,436,3.30784,-0.0122019,0.317801,0.955037
711,434,3.30718,-0.01284,0.318246,0.95447
713,432,3.3067,-0.013508,0.318372,0.954035
715,430,3.30652,-0.0125908,0.318239,0.953327
717,428,3.30613,-0.0132173,0.318241,0.952931
719,426,3.30708,-0.0108112,0.31759,0.952147
721,424,3.30796,-0.00811942,0.316216,0.95169
723,422,3.3074,-0.00873799,0.316558,0.95116
725,420,3.30629,-0.00952609,0.317121,0.950509
727,418,3.30626,-0.0148633,0.316669,0.950016
729,416,3.30784,-0.0123219,0.315561,0.949443
731,414,3.30742,-0.0124205,0.316198,0.949389
733,412,3.30722,-0.0120002,0.315559,0.948382
735,410,3.30696,-0.0125587,0.315562,0.948024
737,408,3.3066,-0.011053,0.315111,0.947834
739,406,3.30834,-0.00850379,0.313993,0.947259
741,404,3.30759,-0.00921175,0.314444,0.94666
743,402,3.30739,-0.00826908,0.31399,0.946089
745,400,3.30752,-0.00730798,0.313528,0.945527
747,398,3.30663,-0.00790841,0.313985,0.945019
749,396,3.30767,-0.00545007,0.31333,0.944261
751,394,3.30763,-0.0129119,0.313339,0.943593
753,392,3.30711,-0.0120713,0.313339,0.942833
755,390,3.30681,-0.0125967,0.313341,0.94251
757,388,3.30824,-0.00851626,0.312142,0.941622
759,386,3.30767,-0.00913458,0.31223,0.941212
761,384,3.30702,-0.00990796,0.31268,0.940597
763,382,3.30693,-0.00894126,0.312272,0.940036
765,380,3.30645,-0.00948013,0.312216,0.939696
767,378,3.30777,-0.00544174,0.311116,0.938763
769,376,3.30729,-0.0124852,0.311114,0.93836
771,374,3.30678,-0.0130181,0.311111,0.938023
773,372,3.3065,-0.0126339,0.311094,0.936703
775,370,3.30825,-0.010198,0.310016,0.936338
777,368,3.3078,-0.010716,0.310016,0.936042
779,366,3.30745,-0.00980802,0.310015,0.935317
781,364,3.30721,-0.010446,0.310008,0.934911
783,362,3.30671,-0.011012,0.310019,0.934584
785,360,3.30836,-0.00755206,0.308914,0.933535
787,358,3.30801,-0.00817048,0.308912,0.932897
789,356,3.30697,-0.00884699,0.309364,0.932329
791,354,3.307,-0.0142991,0.308909,0.931787
793,352,3.30868,-0.011728,0.307804,0.931196
795,350,3.30821,-0.0123991,0.30781,0.930798
797,348,3.30786,-0.0114338,0.307802,0.930104
799,346,3.30788,-0.0110207,0.307413,0.929197
801,344,3.3071,-0.011696,0.307807,0.928659
803,342,3.30922,-0.00748168,0.306264,0.927979
805,340,3.30869,-0.00653634,0.306265,0.927282
807,338,3.30792,-0.00877534,0.306709,0.927042
809,336,3.30751,-0.0148337,0.306704,0.925963
811,334,3.30929,-0.0106352,0.305173,0.925531
813,332,3.30864,-0.00975752,0.30508,0.924524
815,330,3.30836,-0.0104242,0.305157,0.924099
817,328,3.30778,-0.0100944,0.305161,0.923015
819,326,3.30941,-0.00752532,0.304063,0.922445
821,324,3.30934,-0.00657067,0.303623,0.921901
823,322,3.30833,-0.00727975,0.304059,0.92109
825,320,3.30746,-0.0149737,0.304502,0.920397
827,318,3.30907,-0.0124477,0.304028,0.919791
829,316,3.30858,-0.0130216,0.303418,0.91946
831,314,3.30808,-0.0120277,0.303408,0.918774
833,312,3.30795,-0.0116744,0.302965,0.917812
835,310,3.30898,-0.00921561,0.302319,0.917071
837,308,3.30883,-0.00725568,0.301869,0.915821
839,306,3.30839,-0.00789448,0.301873,0.915434
841,304,3.30782,-0.0085522,0.301873,0.915026
843,302,3.30929,-0.0124117,0.300777,0.914467
845,300,3.30866,-0.0114353,0.300771,0.913751
847,298,3.30763,-0.0121564,0.301205,0.913168
849,296,3.30718,-0.0118226,0.301189,0.912047
851,294,3.30892,-0.00769581,0.299682,0.911299
853,292,3.30802,-0.00837564,0.300168,0.910754
855,290,3.30804,-0.00793985,0.299671,0.909849
857,288,3.309,-0.00542711,0.298968,0.90911
859,286,3.30812,-0.013159,0.299466,0.908215
861,284,3.30781,-0.0138087,0.299463,0.907824
863,282,3.3071,-0.0144344,0.29946,0.907437
865,280,3.30855,-0.0109338,0.29837,0.906114
867,278,3.30851,-0.00996168,0.297932,0.905554
869,276,3.30766,-0.0122402,0.29837,0.905332
871,274,3.30728,-0.0119174,0.298368,0.904219
873,272,3.30918,-0.00766714,0.296843,0.903525
875,270,3.30798,-0.0100198,0.297722,0.903128
877,268,3.30851,-0.00796451,0.296852,0.902078
879,266,3.30942,-0.0124926,0.296207,0.901029
881,264,3.30859,-0.0131813,0.296639,0.90047
883,262,3.30897,-0.0121396,0.295757,0.900046
885,260,3.3083,-0.011168,0.295757,0.899346
887,258,3.30981,-0.00761075,0.294667,0.898058
889,256,3.30977,-0.00661452,0.294227,0.897499
891,254,3.30861,-0.0143745,0.294665,0.896611
893,252,3.31001,-0.0102639,0.293588,0.895671
895,250,3.30974,-0.0115206,0.293581,0.894899
897,248,3.30909,-0.0121848,0.293577,0.894498
899,246,3.3088,-0.0101866,0.293132,0.89298
901,244,3.31004,-0.00777966,0.292499,0.892429
903,242,3.30928,-0.00899208,0.292931,0.891562
905,240,3.30967,-0.00794184,0.29206,0.891186
907,238,3.31047,-0.0123915,0.291413,0.890157
909,236,3.30983,-0.0115559,0.29141,0.889621
911,234,3.30946,-0.0120725,0.291406,0.889044
913,232,3.30865,-0.0118362,0.291411,0.887881
915,230,3.31011,-0.0075886,0.290326,0.886993
917,228,3.30955,-0.00728874,0.290321,0.885854
919,226,3.3086,-0.00961627,0.290751,0.885613
921,224,3.30941,-0.012656,0.290105,0.884175
923,222,3.3089,-0.0132138,0.290103,0.883839
925,220,3.30787,-0.0146167,0.290526,0.882839
927,218,3.30971,-0.0104077,0.289017,0.882065
929,216,3.30875,-0.0116584,0.289452,0.881181
931,214,3.30843,-0.0106431,0.289024,0.880635
933,212,3.30782,-0.012058,0.289447,0.879648
935,210,3.30914,-0.00938576,0.28838,0.87914
937,208,3.30884,-0.00905292,0.288382,0.878061
939,206,3.30813,-0.00869857,0.28838,0.876967
941,204,3.30956,-0.00612801,0.287304,0.876364
943,202,3.30901,-0.0132966,0.287295,0.876019
945,200,3.30833,-0.0130295,0.287303,0.874892
947,198,3.30979,-0.00934304,0.286226,0.873648
949,196,3.30965,-0.0100563,0.286226,0.873491
951,194,3.30878,-0.00967349,0.286219,0.872148
953,192,3.31077,-0.00529708,0.284724,0.871463
955,190,3.30988,-0.0132726,0.285151,0.870526
957,188,3.3089,-0.0145463,0.285582,0.869648
959,186,3.31099,-0.00857163,0.284256,0.868702
961,184,3.31006,-0.00992539,0.284073,0.867767
963,182,3.30948,-0.00904998,0.284079,0.866996
965,180,3.31128,-0.00537905,0.282685,0.865866
967,178,3.30964,-0.00675208,0.283419,0.86476
969,176,3.30964,-0.0139776,0.282986,0.864553
971,174,3.3088,-0.0136647,0.282991,0.863434
973,172,3.30981,-0.0111039,0.282349,0.862716
975,170,3.30952,-0.00907805,0.281919,0.86167
977,168,3.31077,-0.00863101,0.281272,0.860732
979,166,3.31012,-0.00680633,0.281286,0.85921
981,164,3.30981,-0.0139191,0.280851,0.859076
983,162,3.31071,-0.0119988,0.280247,0.857961
985,160,3.31023,-0.0117458,0.280211,0.856802
987,158,3.30984,-0.0106338,0.279785,0.856283
989,156,3.31048,-0.00877871,0.279562,0.854944
991,154,3.31076,-0.00771932,0.278704,0.854513
993,152,3.30907,-0.00914329,0.279545,0.853397
995,150,3.31109,-0.00540295,0.278158,0.852271
997,148,3.30979,-0.0133897,0.278479,0.851417
999,146,3.309,-0.012474,0.278478,0.850627
1001,144,3.31019,-0.0105524,0.277837,0.84948
1003,142,3.30949,-0.0112007,0.277838,0.849123
1005,140,3.30929,-0.00915144,0.277411,0.847832
1007,138,3.3104,-0.00545831,0.276339,0.846526
1009,136,3.30957,-0.0068175,0.276769,0.84561
1011,134,3.309,-0.0142214,0.276761,0.84524
1013,132,3.30988,-0.0122526,0.27612,0.844122
1015,130,3.30935,-0.0119902,0.276121,0.842965
1017,128,3.30875,-0.0108741,0.275688,0.842407
1019,126,3.3099,-0.00890122,0.275046,0.841279
1021,124,3.3093,-0.0086072,0.275163,0.840157
1023,122,3.30839,-0.00824188,0.275044,0.839058
1025,120,3.30978,-0.0122566,0.273974,0.838528
1027,118,3.30881,-0.0136886,0.274393,0.837548
1029,116,3.30819,-0.0133724,0.274405,0.83625
1031,114,3.30963,-0.00965572,0.273347,0.835182
1033,112,3.30856,-0.010984,0.273774,0.83429
1035,110,3.3084,-0.0100162,0.273345,0.833662
1037,108,3.30965,-0.00612873,0.27229,0.832473
1039,106,3.3086,-0.0143378,0.273313,0.831391
1041,104,3.30984,-0.0106189,0.271646,0.830241
1043,102,3.30868,-0.0120244,0.27206,0.829287
1045,100,3.30851,-0.0109978,0.271734,0.828688
1047,98,3.30945,-0.00895968,0.271,0.827602
1049,96,3.30893,-0.00860558,0.270994,0.826487
1051,94,3.30817,-0.00824809,0.270999,0.825378
1053,92,3.30938,-0.00551798,0.269929,0.824783
1055,90,3.30831,-0.0138185,0.270355,0.82386
1057,88,3.30747,-0.0152278,0.270787,0.822963
1059,86,3.30864,-0.0114737,0.269726,0.821662
1061,84,3.30749,-0.0128005,0.270157,0.820795
1063,82,3.30935,-0.00893616,0.268669,0.819671
1065,80,3.30859,-0.00857255,0.268679,0.81858
1067,78,3.30698,-0.0101415,0.269514,0.81741
1069,76,3.30865,-0.00561715,0.268035,0.81666
1071,74,3.30755,-0.00699576,0.268457,0.815742
1073,72,3.30719,-0.0135054,0.268027,0.813406
1075,70,3.30784,-0.009742,0.267393,0.813357
1077,68,3.30722,-0.00946222,0.267389,0.812201
1079,66,3.30863,-0.00558726,0.26634,0.810937
1081,64,3.30741,-0.01403,0.266758,0.809983
1083,62,3.30705,-0.0153549,0.266757,0.809263
1085,60,3.30825,-0.0115383,0.265705,0.807962
1087,58,3.30816,-0.0111297,0.265286,0.807023
1089,56,3.30909,-0.00903763,0.264649,0.805948
1091,54,3.30918,-0.00687299,0.263816,0.804802
1093,52,3.3075,-0.00838704,0.264646,0.803664
1095,50,3.30842,-0.0133759,0.264022,0.802556
1097,48,3.30797,-0.0146835,0.264011,0.80182
1099,46,3.30693,-0.0136619,0.264012,0.801093
1101,44,3.30891,-0.00981816,0.26254,0.799917
1103,42,3.30719,-0.0112626,0.263384,0.798857
1105,40,3.30909,-0.00731557,0.261913,0.797749
1107,38,3.3079,-0.00872766,0.262332,0.796837
1109,36,3.30711,-0.0084315,0.262931,0.795705
1111,34,3.30794,-0.00630013,0.261709,0.794632
1113,32,3.30677,-0.00774586,0.26213,0.793698
1115,30,3.30749,-0.0127682,0.261501,0.792595
1117,28,3.3061,-0.0124254,0.261922,0.791323
1119,26,3.30615,-0.0101436,0.261676,0.790228
1121,24,3.30701,-0.00635536,0.26056,0.788491
1123,22,3.30594,-0.0149593,0.260867,0.787794
1125,20,3.30762,-0.0109906,0.259402,0.786665
1127,18,3.3077,-0.0105215,0.258977,0.785733
1129,16,3.30629,-0.0120129,0.259396,0.784808
1131,14,3.3079,-0.00818451,0.258353,0.78346
1133,12,3.30666,-0.00960634,0.258768,0.782549
1135,10,3.30835,-0.0127352,0.257306,0.781454
1137,8,3.30745,-0.0124148,0.257302,0.780302
1139,6,3.3068,-0.0120299,0.257307,0.779216
1141,4,3.30768,-0.00991343,0.256685,0.778124
1142,3,3.30681,-0.0106974,0.257102,0.777578