File: hust_correlation_analysis/matrices/HUST_6-8_cycle_feature_matrix.csv
cycle_number,rul,voltage,current,capacity,charge_capacity
1,2452,3.33732,-0.0119926,0.274298,1.02784
4,2449,3.31726,-0.0173216,0.284557,1.0192
7,2446,3.31838,-0.0152792,0.283146,1.01832
10,2443,3.31845,-0.0166893,0.283561,1.01739
13,2440,3.31806,-0.0172367,0.283134,1.01737
16,2437,3.31995,-0.0152077,0.281724,1.0165
19,2434,3.31945,-0.0159592,0.282145,1.0159
22,2431,3.31917,-0.01658,0.282142,1.0156
25,2428,3.31872,-0.01735,0.282143,1.01523
28,2425,3.32074,-0.0153314,0.281172,1.01436
31,2422,3.32008,-0.015345,0.280719,1.01431
34,2419,3.31987,-0.0160205,0.280721,1.01372
37,2416,3.31944,-0.0166695,0.281135,1.01341
40,2413,3.31923,-0.0173221,0.281134,1.0131
43,2410,3.31906,-0.0180354,0.281552,1.0125
46,2407,3.32054,-0.0152708,0.280137,1.01195
49,2404,3.32057,-0.015305,0.280134,1.01192
52,2401,3.31982,-0.0160868,0.280557,1.01131
55,2398,3.31974,-0.016712,0.280553,1.01101
58,2395,3.31954,-0.0175058,0.281033,1.01062
61,2392,3.31927,-0.0174075,0.280551,1.01068
64,2389,3.31879,-0.0180802,0.280545,1.01034
67,2386,3.32025,-0.015436,0.279553,1.00949
70,2383,3.32057,-0.0154622,0.279551,1.00947
73,2380,3.32023,-0.0161045,0.27955,1.00918
76,2377,3.32015,-0.0167666,0.279549,1.00885
79,2374,3.32079,-0.0166355,0.279761,1.0089
82,2371,3.31986,-0.0174537,0.279556,1.00856
85,2368,3.31956,-0.0180761,0.279554,1.00826
88,2365,3.32113,-0.0155333,0.278565,1.00737
91,2362,3.32146,-0.0154602,0.278137,1.00764
94,2359,3.32069,-0.0160641,0.278555,1.0071
97,2356,3.32096,-0.0161864,0.278555,1.00704
100,2353,3.32064,-0.0168196,0.278989,1.00673
103,2350,3.32083,-0.0175796,0.278554,1.00615
106,2347,3.32067,-0.0175413,0.278561,1.00643
109,2344,3.31978,-0.0181978,0.278987,1.00589
112,2341,3.32189,-0.0155434,0.277566,1.00528
115,2338,3.32159,-0.0154863,0.278043,1.00528
118,2335,3.32152,-0.016163,0.277562,1.00496
121,2332,3.32064,-0.0162827,0.277985,1.00466
124,2329,3.3209,-0.0169502,0.277985,1.00435
127,2326,3.3205,-0.0169116,0.277984,1.00462
130,2323,3.3207,-0.0175468,0.277984,1.00407
133,2320,3.32061,-0.0176285,0.277988,1.00405
136,2317,3.32042,-0.0182958,0.277989,1.00373
139,2314,3.32204,-0.0149194,0.276572,1.00347
142,2311,3.3217,-0.0156644,0.276993,1.00287
145,2308,3.32204,-0.0155377,0.276532,1.00316
148,2305,3.32142,-0.0163469,0.276989,1.00254
151,2302,3.32129,-0.0163362,0.276989,1.00254
154,2299,3.32169,-0.0169645,0.276991,1.00225
157,2296,3.3212,-0.0169511,0.276992,1.00226
160,2293,3.32122,-0.0176756,0.276995,1.00194
163,2290,3.32044,-0.017744,0.277423,1.00168
166,2287,3.3206,-0.0183313,0.277419,1.00139
169,2284,3.32248,-0.014944,0.275793,1.00137
172,2281,3.322038,-0.0156499,0.276003,1.0006
175,2278,3.32214,-0.0156205,0.276,1.00081
178,2275,3.32206,-0.0162951,0.276002,1.00049
181,2272,3.32163,-0.0163662,0.276427,1.00022
184,2269,3.3209,-0.0171174,0.276858,0.99964
187,2266,3.32112,-0.0170251,0.276432,0.999932
190,2263,3.32075,-0.0179207,0.27686,0.999283
193,2260,3.32047,-0.0178517,0.276859,0.999314
196,2257,3.3203,-0.0183992,0.276859,0.999051
199,2254,3.3201,-0.0184529,0.27686,0.999036
202,2251,3.32262,-0.0157926,0.275437,0.998419
205,2248,3.32207,-0.0157416,0.275437,0.998438
208,2245,3.32214,-0.0157702,0.275581,0.998429
211,2242,3.32212,-0.0164406,0.275436,0.998118
214,2239,3.32122,-0.0164715,0.275862,0.997865
217,2236,3.32162,-0.0170772,0.275851,0.997526
220,2233,3.32149,-0.0172236,0.275859,0.997502
223,2230,3.32142,-0.0178881,0.275861,0.99719
226,2227,3.321,-0.0178116,0.27586,0.997218
229,2224,3.32105,-0.0179382,0.275856,0.997158
232,2221,3.32025,-0.0185655,0.276286,0.996879
235,2218,3.3207,-0.0184999,0.275857,0.996895
238,2215,3.32224,-0.0159084,0.27486,0.99601
241,2212,3.32283,-0.0158112,0.274436,0.99631
244,2209,3.32234,-0.0164456,0.27486,0.995757
247,2206,3.32189,-0.0165097,0.27486,0.995721
250,2203,3.32174,-0.0164868,0.274858,0.995738
253,2200,3.32219,-0.0170837,0.274848,0.995418
256,2197,3.32128,-0.0171838,0.275268,0.995113
259,2194,3.32059,-0.0172395,0.27569,0.994812
262,2191,3.32171,-0.0171163,0.275258,0.995096
265,2188,3.32044,-0.0171815,0.27569,0.994827
268,2185,3.31981,-0.0170707,0.276099,0.994559
271,2182,3.31879,-0.0178638,0.276629,0.993962
274,2179,3.32023,-0.0178147,0.275685,0.994513
277,2176,3.31973,-0.0185868,0.276114,0.993914
280,2173,3.31971,-0.0185865,0.27611,0.993902
283,2170,3.32169,-0.0158752,0.274677,0.99328
286,2167,3.32138,-0.0158023,0.274674,0.993302
289,2164,3.32127,-0.0158837,0.274674,0.993267
292,2161,3.32146,-0.0167133,0.274685,0.992932
295,2158,3.3212,-0.0174114,0.274784,0.992619
298,2155,3.3217,-0.0171993,0.274258,0.992963
301,2152,3.32125,-0.0172652,0.274353,0.992922
304,2149,3.32174,-0.0179312,0.274253,0.992605
307,2146,3.32042,-0.018,0.274681,0.992333
310,2143,3.32052,-0.0179547,0.274679,0.992337
313,2140,3.32079,-0.0186697,0.274677,0.992001
316,2137,3.32059,-0.0186852,0.27468,0.990527
319,2134,3.32231,-0.0159471,0.273253,0.99143
322,2131,3.3229,-0.015916,0.272829,0.991699
325,2128,3.32233,-0.0166394,0.273257,0.991132
328,2125,3.32256,-0.0166205,0.273253,0.991121
331,2122,3.32187,-0.0165924,0.273249,0.991114
334,2119,3.32153,-0.0172877,0.273676,0.990549
337,2116,3.32148,-0.0172952,0.273671,0.990529
340,2113,3.3213,-0.0173364,0.273671,0.990503
343,2110,3.32113,-0.017999,0.273676,0.99021
346,2107,3.32132,-0.0180655,0.273679,0.990208
349,2104,3.3213,-0.0187176,0.27368,0.989907
352,2101,3.32102,-0.0187105,0.27368,0.989913
355,2098,3.32067,-0.0187185,0.273678,0.989893
358,2095,3.32276,-0.0159368,0.272248,0.989318
361,2092,3.3226,-0.0160549,0.273153,0.989016
364,2089,3.32259,-0.0159347,0.272243,0.989304
367,2086,3.32228,-0.0166759,0.272671,0.988718
370,2083,3.32263,-0.01663,0.272236,0.988969
373,2080,3.32225,-0.0174586,0.272679,0.988388
376,2077,3.32217,-0.0174505,0.272681,0.988409
379,2074,3.32221,-0.0174895,0.272679,0.988383
382,2071,3.32194,-0.0180668,0.272676,0.988104
385,2068,3.32199,-0.0180729,0.272674,0.988088
388,2065,3.32118,-0.0180953,0.272674,0.988083
391,2062,3.32172,-0.0181282,0.272671,0.988059
394,2059,3.32085,-0.0188673,0.2731,0.987482
397,2056,3.32105,-0.0189012,0.273106,0.986308
400,2053,3.32298,-0.016078,0.271674,0.986929
403,2050,3.32311,-0.0161117,0.271677,0.986918
406,2047,3.32266,-0.0160959,0.271676,0.986927
409,2044,3.32291,-0.0167814,0.271676,0.986605
412,2041,3.32267,-0.0167246,0.271673,0.986625
415,2038,3.32269,-0.0168044,0.271675,0.986583
418,2035,3.32193,-0.0174922,0.272099,0.986015
421,2032,3.32186,-0.0174963,0.272098,0.986014
424,2029,3.32254,-0.0174527,0.271675,0.986295
427,2026,3.32197,-0.0182168,0.272109,0.985719
430,2023,3.32177,-0.0181686,0.27211,0.985741
433,2020,3.32124,-0.0189937,0.272538,0.985112
436,2017,3.32179,-0.0189123,0.272108,0.985385
439,2014,3.32134,-0.0189068,0.272105,0.985393
442,2011,3.32326,-0.0161876,0.271091,0.984495
445,2008,3.3229,-0.0161679,0.271092,0.984514
448,2005,3.3227,-0.016228,0.271092,0.984476
451,2002,3.32268,-0.0162689,0.271096,0.984477
454,1999,3.32345,-0.0168655,0.270674,0.984472
457,1996,3.32262,-0.0169061,0.271106,0.984221
460,1993,3.32242,-0.0176878,0.272016,0.983619
463,1990,3.32248,-0.0176304,0.271107,0.983893
466,1987,3.32266,-0.0175802,0.271105,0.983916
469,1984,3.32256,-0.0182491,0.271102,0.983596
472,1981,3.32173,-0.018295,0.271533,0.983335
475,1978,3.32223,-0.0182599,0.2711,0.983579
478,1975,3.32133,-0.018928,0.271339,0.983031
481,1972,3.32184,-0.0189674,0.271537,0.983036
484,1969,3.32368,-0.0155962,0.270318,0.982724
487,1966,3.3238,-0.0162492,0.270107,0.982435
490,1963,3.32283,-0.0162562,0.270524,0.982156
493,1960,3.32323,-0.0162347,0.270091,0.982391
496,1957,3.32279,-0.0170025,0.270517,0.981789
499,1954,3.32316,-0.0169102,0.270085,0.982064
502,1951,3.32244,-0.0170092,0.270514,0.981768
505,1948,3.32302,-0.0168703,0.270082,0.982075
508,1945,3.32217,-0.0176006,0.270949,0.981525
511,1942,3.32287,-0.0176132,0.270088,0.981741
514,1939,3.32264,-0.0183966,0.270514,0.981139
517,1936,3.32212,-0.0183489,0.270513,0.981153
520,1933,3.32157,-0.0183757,0.270513,0.98114
523,1930,3.3224,-0.0184261,0.270076,0.981341
526,1927,3.32205,-0.018926,0.270507,0.980868
529,1924,3.32143,-0.0191156,0.27094,0.980545
532,1921,3.32358,-0.0155459,0.269066,0.980536
535,1918,3.32331,-0.0163461,0.269502,0.979939
538,1915,3.32379,-0.0161355,0.269076,0.980292
541,1912,3.32267,-0.0171035,0.269943,0.97939
544,1909,3.32293,-0.0169859,0.269508,0.97967
547,1906,3.32286,-0.0169907,0.269501,0.979643
550,1903,3.3233,-0.0170337,0.269216,0.979628
553,1900,3.32292,-0.0176871,0.269495,0.979314
556,1897,3.32223,-0.0177743,0.269925,0.979027
559,1894,3.32217,-0.018492,0.269926,0.978709
562,1891,3.32298,-0.0184476,0.269502,0.978989
565,1888,3.32229,-0.0184004,0.269507,0.979023
568,1885,3.32256,-0.0191536,0.269942,0.978457
571,1882,3.32161,-0.0192043,0.269939,0.978425
574,1879,3.32223,-0.0191208,0.269498,0.978674
577,1876,3.32412,-0.0163496,0.268484,0.977797
580,1873,3.32408,-0.0163903,0.26848,0.977769
583,1870,3.3233,-0.0162524,0.268479,0.977831
586,1867,3.32337,-0.0163708,0.268476,0.977768
589,1864,3.32384,-0.0170514,0.268481,0.977468
592,1861,3.32286,-0.0171386,0.268922,0.97723
595,1858,3.32283,-0.0177651,0.268925,0.976957
598,1855,3.32276,-0.0177771,0.269403,0.97694
601,1852,3.32377,-0.017818,0.268487,0.977145
604,1849,3.32242,-0.0184616,0.269006,0.976588
607,1846,3.32232,-0.0184863,0.26891,0.976569
610,1843,3.32223,-0.0184745,0.269122,0.976559
613,1840,3.32247,-0.0191974,0.268908,0.976232
616,1837,3.32251,-0.0190548,0.268918,0.976336
619,1834,3.32389,-0.0158479,0.267914,0.975712
622,1831,3.32381,-0.0165297,0.267914,0.975395
625,1828,3.32393,-0.0165416,0.26792,0.975422
628,1825,3.32311,-0.0173325,0.26835,0.9748
631,1822,3.32388,-0.0176094,0.267914,0.974907
634,1819,3.32304,-0.0171307,0.267913,0.975127
637,1816,3.32369,-0.0180387,0.267916,0.974716
640,1813,3.32296,-0.0178216,0.268395,0.974822
643,1810,3.32277,-0.017997,0.26835,0.974508
646,1807,3.32256,-0.0186655,0.268353,0.974211
649,1804,3.32214,-0.0186327,0.268354,0.974477
652,1801,3.32262,-0.0193241,0.268357,0.973924
655,1798,3.32202,-0.019301,0.268355,0.973928
658,1795,3.32232,-0.0193064,0.268355,0.973935
661,1792,3.32372,-0.0166059,0.267341,0.972814
664,1789,3.32409,-0.0165445,0.266911,0.973311
667,1786,3.32423,-0.0165937,0.266911,0.973303
670,1783,3.32357,-0.0173114,0.267342,0.972722
673,1780,3.32341,-0.0172489,0.267343,0.972763
676,1777,3.32288,-0.01805,0.267341,0.972384
679,1774,3.32322,-0.0180056,0.26734,0.972412
682,1771,3.32332,-0.0180968,0.267341,0.973682
685,1768,3.32311,-0.0187678,0.267341,0.972057
688,1765,3.323,-0.0186674,0.267339,0.972095
691,1762,3.3225,-0.0186564,0.26755,0.972088
694,1759,3.32305,-0.0186738,0.267335,0.972077
697,1756,3.3227,-0.0192862,0.267335,0.971793
700,1753,3.32202,-0.0194277,0.26798,0.97148
703,1750,3.32434,-0.0165847,0.266316,0.970879
706,1747,3.32412,-0.0165648,0.266318,0.970894
709,1744,3.32392,-0.0166222,0.266318,0.970867
712,1741,3.32345,-0.0173742,0.266749,0.970279
715,1738,3.32402,-0.0172112,0.266311,0.970583
718,1735,3.32301,-0.0180125,0.266745,0.969975
721,1732,3.3238,-0.0180379,0.266312,0.970206
724,1729,3.32357,-0.0179981,0.266306,0.970205
727,1726,3.32268,-0.0180061,0.266741,0.969959
730,1723,3.32276,-0.018749,0.266743,0.969633
733,1720,3.32296,-0.0187592,0.267174,0.969637
736,1717,3.32304,-0.0188184,0.266746,0.969621
739,1714,3.32293,-0.019481,0.266745,0.969313
742,1711,3.32467,-0.0159716,0.265292,0.968995
745,1708,3.32453,-0.0166483,0.265292,0.968687
748,1705,3.32384,-0.01676,0.265724,0.968398
751,1702,3.324,-0.0174162,0.265722,0.968095
754,1699,3.32389,-0.0173517,0.265724,0.968127
757,1696,3.32394,-0.0174846,0.265939,0.968087
760,1693,3.32319,-0.018207,0.266162,0.967528
763,1690,3.32357,-0.018112,0.265727,0.967808
766,1687,3.32393,-0.0181615,0.265725,0.96778
769,1684,3.32254,-0.0188753,0.266165,0.967222
772,1681,3.32341,-0.01881,0.265729,0.967491
775,1678,3.32235,-0.0196637,0.266596,0.966618
778,1675,3.32282,-0.019574,0.26616,0.966892
781,1672,3.32244,-0.0196329,0.266158,0.966857
784,1669,3.32458,-0.0166762,0.26469,0.966249
787,1666,3.32406,-0.0168222,0.265133,0.96596
790,1663,3.32377,-0.0167287,0.265121,0.965978
793,1660,3.3241,-0.0175246,0.265121,0.965611
796,1657,3.32454,-0.0174761,0.264789,0.965916
799,1654,3.32315,-0.0182686,0.265564,0.965061
802,1651,3.32351,-0.0182185,0.26513,0.965326
805,1648,3.32321,-0.0182146,0.265131,0.96533
808,1645,3.3232,-0.0189593,0.265562,0.964753
811,1642,3.32269,-0.0189663,0.265483,0.964748
814,1639,3.32297,-0.01899,0.265564,0.964738
817,1636,3.32261,-0.0198123,0.265569,0.964374
820,1633,3.32266,-0.0197053,0.265568,0.964429
823,1630,3.32464,-0.0162236,0.264111,0.964104
826,1627,3.32474,-0.0167282,0.264201,0.963874
829,1624,3.32443,-0.0166331,0.264109,0.96389
832,1621,3.3238,-0.0176,0.265026,0.963231
835,1618,3.32452,-0.0175072,0.264105,0.9635
838,1615,3.32371,-0.0176061,0.264539,0.963207
841,1612,3.32354,-0.0182436,0.264532,0.962896
844,1609,3.32347,-0.0182308,0.264533,0.962905
847,1606,3.32323,-0.0182505,0.264537,0.96291
850,1603,3.32346,-0.018991,0.264366,0.962575
853,1600,3.32324,-0.0190284,0.265017,0.962557
856,1597,3.32272,-0.019778,0.264971,0.96197
859,1594,3.32221,-0.0197367,0.26496,0.961953
862,1591,3.32421,-0.0161557,0.263585,0.96165
865,1588,3.32481,-0.0168362,0.263495,0.961332
868,1585,3.32347,-0.016979,0.263933,0.96104
871,1582,3.3246,-0.0170069,0.263504,0.961296
874,1579,3.32384,-0.0177401,0.263945,0.96074
877,1576,3.32408,-0.0176005,0.263508,0.961043
880,1573,3.32355,-0.0183917,0.26394,0.960431
883,1570,3.32386,-0.0184416,0.263938,0.960396
886,1567,3.32364,-0.0190485,0.264356,0.960105
889,1564,3.32352,-0.019133,0.263933,0.960069
892,1561,3.32309,-0.019132,0.263927,0.960051
895,1558,3.32274,-0.0200054,0.264367,0.959424
898,1555,3.32293,-0.0197879,0.263931,0.959767
901,1552,3.32523,-0.0170102,0.262912,0.958889
904,1549,3.3244,-0.0169864,0.262917,0.958923
907,1546,3.32464,-0.0169823,0.262553,0.958897
910,1543,3.32424,-0.0179137,0.263353,0.958256
913,1540,3.32381,-0.0178239,0.263351,0.958288
916,1537,3.32449,-0.0177804,0.262911,0.958541
919,1534,3.32361,-0.0184497,0.263828,0.957992
922,1531,3.32367,-0.018565,0.263344,0.957933
925,1528,3.32371,-0.0192079,0.263346,0.95765
928,1525,3.32295,-0.0193571,0.263791,0.957361
931,1522,3.32352,-0.019232,0.263349,0.957896
934,1519,3.32251,-0.0200501,0.263792,0.957058
937,1516,3.32258,-0.0200485,0.263793,0.957065
940,1513,3.32457,-0.0170861,0.262323,0.95646
943,1510,3.32489,-0.0171095,0.262323,0.956442
946,1507,3.32434,-0.0179175,0.262756,0.956083
949,1504,3.32402,-0.0177168,0.26232,0.956165
952,1501,3.32425,-0.0178121,0.262321,0.956129
955,1498,3.32401,-0.018393,0.262311,0.955852
958,1495,3.32402,-0.0185006,0.262524,0.955803
961,1492,3.32349,-0.0192844,0.262759,0.955222
964,1489,3.32292,-0.0192525,0.262751,0.955216
967,1486,3.32331,-0.0193275,0.262759,0.955212
970,1483,3.32227,-0.0201462,0.263198,0.9546
973,1480,3.32287,-0.0200159,0.262754,0.954879
976,1477,3.32507,-0.0170765,0.261283,0.954275
979,1474,3.32424,-0.0171227,0.261717,0.953996
982,1471,3.32472,-0.0170404,0.26128,0.954266
985,1468,3.32311,-0.0177516,0.262154,0.953457
988,1465,3.32427,-0.0178912,0.261716,0.953653
991,1462,3.32353,-0.0186362,0.262244,0.953079
994,1459,3.32357,-0.0186721,0.262164,0.953082
997,1456,3.32327,-0.0186331,0.262159,0.953089
1000,1453,3.32321,-0.0194478,0.262156,0.952723
1003,1450,3.32294,-0.0194545,0.262154,0.952703
1006,1447,3.32226,-0.0201994,0.262593,0.95213
1009,1444,3.32231,-0.020192,0.262592,0.952127
1012,1441,3.32432,-0.0172246,0.261118,0.951521
1015,1438,3.32433,-0.0173042,0.261129,0.951521
1018,1435,3.32469,-0.0180914,0.261138,0.951199
1021,1432,3.32366,-0.0180953,0.261573,0.950934
1024,1429,3.32436,-0.0179755,0.261124,0.951213
1027,1426,3.32255,-0.0188297,0.262009,0.950343
1030,1423,3.32407,-0.0186968,0.261123,0.95088
1033,1420,3.32354,-0.0195427,0.261558,0.950242
1036,1417,3.32296,-0.0195012,0.261558,0.950261
1039,1414,3.32297,-0.0195016,0.261555,0.950263
1042,1411,3.32212,-0.0203464,0.261994,0.949629
1045,1408,3.3251,-0.0165033,0.260097,0.949702
1048,1405,3.32474,-0.0173797,0.260535,0.949067
1051,1402,3.32442,-0.0173604,0.260532,0.949067
1054,1399,3.32442,-0.0180408,0.260528,0.948757
1057,1396,3.32381,-0.0179969,0.260525,0.948761
1060,1393,3.32408,-0.0180939,0.260523,0.948722
1063,1390,3.32314,-0.0188298,0.26096,0.948375
1066,1387,3.32354,-0.0188633,0.260957,0.948107
1069,1384,3.32328,-0.0196005,0.260956,0.947773
1072,1381,3.32294,-0.0195101,0.260956,0.947822
1075,1378,3.32288,-0.0202788,0.260962,0.947488
1078,1375,3.32186,-0.020472,0.261399,0.947139
1081,1372,3.32452,-0.0174862,0.26013,0.946333
1084,1369,3.32434,-0.0174442,0.259927,0.946585
1087,1366,3.32356,-0.0182797,0.260373,0.945978
1090,1363,3.32433,-0.0181727,0.259928,0.94627
1093,1360,3.32319,-0.0189949,0.260371,0.945659
1096,1357,3.32371,-0.0188322,0.259931,0.945976
1099,1354,3.3227,-0.0198116,0.260821,0.945067
1102,1351,3.32314,-0.0197783,0.260378,0.945343
1105,1348,3.32271,-0.0205597,0.260826,0.94476
1108,1345,3.32274,-0.0203093,0.260383,0.945129
1111,1342,3.32444,-0.0174987,0.25934,0.944172
1114,1339,3.32439,-0.017579,0.259338,0.944135
1117,1336,3.32405,-0.0176012,0.259334,0.944111
1120,1333,3.3233,-0.0183723,0.259983,0.943503
1123,1330,3.32344,-0.0183417,0.259776,0.943523
1126,1327,3.32328,-0.0191099,0.259774,0.943174
1129,1324,3.32299,-0.0192224,0.260262,0.941707
1132,1321,3.32313,-0.019981,0.259797,0.942855
1135,1318,3.32282,-0.0207237,0.260235,0.942271
1138,1315,3.32258,-0.0206107,0.260233,0.942322
1141,1312,3.3248,-0.0177046,0.258752,0.941666
1144,1309,3.32413,-0.0177168,0.259181,0.941369
1147,1306,3.32343,-0.0176629,0.259178,0.941367
1150,1303,3.32362,-0.0184541,0.259177,0.94103
1153,1300,3.32366,-0.0184168,0.259172,0.941032
1156,1297,3.32272,-0.01922,0.259616,0.940417
1159,1294,3.32271,-0.0199023,0.259616,0.940125
1162,1291,3.32253,-0.0199142,0.259621,0.940126
1165,1288,3.32231,-0.0198938,0.259622,0.940149
1168,1285,3.32256,-0.0207236,0.259619,0.939766
1171,1282,3.32212,-0.0206307,0.259615,0.939797
1174,1279,3.32374,-0.0176882,0.258567,0.93888
1177,1276,3.32365,-0.0177327,0.258563,0.938856
1180,1273,3.32357,-0.0184287,0.258765,0.938542
1183,1270,3.32322,-0.0185015,0.258557,0.938499
1186,1267,3.32265,-0.01933,0.259005,0.937876
1189,1264,3.3224,-0.0193267,0.259007,0.937892
1192,1261,3.3229,-0.0201128,0.259013,0.937567
1195,1258,3.32238,-0.0200123,0.259021,0.937644
1198,1255,3.32196,-0.0208748,0.259671,0.937005
1201,1252,3.32215,-0.0207704,0.259014,0.937293
1204,1249,3.32293,-0.0178511,0.258413,0.936103
1207,1246,3.3237,-0.017816,0.257962,0.936361
1210,1243,3.32296,-0.0186556,0.258411,0.935749
1213,1240,3.32333,-0.0185554,0.25796,0.936038
1216,1237,3.32279,-0.0193831,0.25841,0.935423
1219,1234,3.32193,-0.0195444,0.258865,0.935123
1222,1231,3.32192,-0.0202162,0.258951,0.934841
1225,1228,3.32203,-0.0202572,0.258865,0.934825
1228,1225,3.3211,-0.0210551,0.259323,0.934243
1231,1222,3.32177,-0.0210163,0.259287,0.934485
1234,1219,3.32303,-0.0179395,0.257813,0.933607
1237,1216,3.32281,-0.0188434,0.258268,0.932982
1240,1213,3.32196,-0.0187418,0.258265,0.93301
1243,1210,3.32253,-0.0186361,0.257808,0.933302
1246,1207,3.32173,-0.0195314,0.258267,0.93268
1249,1204,3.32191,-0.0202579,0.258262,0.932352
1252,1201,3.32126,-0.0204698,0.258721,0.932019
1255,1198,3.321,-0.0211958,0.25921,0.931713
1258,1195,3.32079,-0.0209844,0.258719,0.931802
1261,1192,3.32263,-0.0181329,0.257669,0.93083
1264,1189,3.3223,-0.0181664,0.257669,0.930817
1267,1186,3.32266,-0.0187685,0.257671,0.930566
1270,1183,3.322,-0.0188123,0.257671,0.930546
1273,1180,3.3215,-0.0196715,0.258127,0.929928
1276,1177,3.32115,-0.0204742,0.258128,0.929576
1279,1174,3.32127,-0.0205836,0.258126,0.929538
1282,1171,3.3209,-0.0212419,0.25813,0.929257
1285,1168,3.32294,-0.0181847,0.257496,0.928363
1288,1165,3.32245,-0.0181261,0.257075,0.928387
1291,1162,3.32178,-0.0190811,0.257532,0.927731
1294,1159,3.32173,-0.0189857,0.257531,0.928012
1297,1156,3.32134,-0.019776,0.25753,0.927419
1300,1153,3.32127,-0.0198409,0.257732,0.927406
1303,1150,3.32027,-0.0206673,0.257988,0.92679
1306,1147,3.32076,-0.0213948,0.257986,0.926476
1309,1144,3.32016,-0.0213939,0.257987,0.926459
1312,1141,3.32215,-0.0184007,0.257425,0.925575
1315,1138,3.32207,-0.0191254,0.256939,0.925276
1318,1135,3.32144,-0.0191302,0.25694,0.925276
1321,1132,3.3208,-0.0200773,0.2574,0.924623
1324,1129,3.32009,-0.020828,0.257937,0.924034
1327,1126,3.32063,-0.0206768,0.257393,0.92434
1330,1123,3.31995,-0.0215114,0.257853,0.923724
1333,1120,3.3221,-0.017723,0.256332,0.923381
1336,1117,3.32188,-0.0184408,0.256332,0.923066
1339,1114,3.32126,-0.0193342,0.256792,0.922436
1342,1111,3.32121,-0.0200672,0.256793,0.922129
1345,1108,3.31999,-0.0201644,0.257257,0.921852
1348,1105,3.3204,-0.020819,0.256796,0.921825
1351,1102,3.31988,-0.0216557,0.257336,0.921215
1354,1099,3.31907,-0.0217527,0.257721,0.920924
1357,1096,3.32119,-0.0185941,0.256194,0.920283
1360,1093,3.32067,-0.0193506,0.256659,0.919715
1363,1090,3.32093,-0.0193586,0.256684,0.919953
1366,1087,3.32007,-0.0202716,0.256656,0.919304
1369,1084,3.31956,-0.0210885,0.257121,0.918718
1372,1081,3.319232,-0.0210936,0.257125,0.918726
1375,1078,3.31903,-0.0217746,0.257118,0.918399
1378,1075,3.31895,-0.0219075,0.257118,0.918349
1381,1072,3.32058,-0.0185354,0.256056,0.917559
1384,1069,3.32022,-0.0186996,0.256052,0.917477
1387,1066,3.31971,-0.0194074,0.256047,0.917157
1390,1063,3.3196,-0.0203505,0.256514,0.916499
1393,1060,3.3193,-0.0211369,0.256507,0.91616
1396,1057,3.3195,-0.0191068,0.256037,0.916043
1399,1054,3.31821,-0.0219658,0.256974,0.915549
1402,1051,3.31989,-0.0188904,0.256358,0.914617
1405,1048,3.32048,-0.0176512,0.25545,0.914202
1408,1045,3.31972,-0.0196648,0.255997,0.914322
1411,1042,3.3195,-0.0204874,0.255919,0.913975
1414,1039,3.31881,-0.0273243,0.255919,0.9133
1417,1036,3.31797,-0.0200605,0.256383,0.91292
1420,1033,3.31789,-0.0279952,0.255904,0.912976
1423,1030,3.3202,-0.0229134,0.254363,0.911902
1426,1027,3.31877,-0.0259031,0.255301,0.911363
1429,1024,3.31969,-0.0237103,0.25436,0.911557
1432,1021,3.31908,-0.0224229,0.254355,0.91087
1435,1018,3.31879,-0.0231598,0.254355,0.910568
1438,1015,3.3183,-0.0242088,0.254827,0.909885
1441,1012,3.32051,-0.0180477,0.252821,0.909529
1444,1009,3.31946,-0.0209963,0.253755,0.909008
1447,1006,3.31956,-0.0197161,0.253285,0.908579
1450,1003,3.31845,-0.0204805,0.254244,0.907982
1453,1000,3.31841,-0.0205644,0.253748,0.907943
1456,997,3.31808,-0.0213649,0.253743,0.907592
1459,994,3.31774,-0.0202163,0.253741,0.906862
1462,991,3.31992,-0.0168042,0.252199,0.906284
1465,988,3.31964,-0.0250729,0.252196,0.906264
1468,985,3.3188,-0.0178334,0.25267,0.905868
1471,982,3.31828,-0.0246342,0.252671,0.904994
1474,979,3.31766,-0.0276086,0.253144,0.904748
1477,976,3.31761,-0.027728,0.253144,0.904702
1480,973,3.31621,-0.0285651,0.253611,0.90409
1483,970,3.31892,-0.0231489,0.251591,0.903372
1486,967,3.31823,-0.0241231,0.252061,0.902967
1489,964,3.31887,-0.0228208,0.251587,0.902302
1492,961,3.31779,-0.0248164,0.252058,0.902434
1495,958,3.31724,-0.0236726,0.252053,0.901678
1498,955,3.31712,-0.0244895,0.252059,0.901366
1501,952,3.31901,-0.021229,0.250984,0.899145
1504,949,3.31869,-0.0221034,0.250984,0.900122
1507,946,3.31905,-0.0201144,0.250525,0.90027
1510,943,3.3179,-0.0207602,0.250982,0.899471
1513,940,3.31755,-0.0215995,0.250982,0.899126
1516,937,3.31696,-0.020428,0.250985,0.898401
1519,934,3.31835,-0.0193498,0.250374,0.897543
1522,931,3.31841,-0.0202342,0.250371,0.897192
1525,928,3.31859,-0.0181545,0.249899,0.897092
1528,925,3.31726,-0.0188419,0.250369,0.89655
1531,922,3.3176,-0.0279043,0.249898,0.896512
1534,919,3.31618,-0.0289567,0.250851,0.895607
1537,916,3.31795,-0.0257838,0.249769,0.894668
1540,913,3.3179,-0.0183611,0.249772,0.894294
1543,910,3.31764,-0.0273574,0.249767,0.894027
1546,907,3.31708,-0.0251295,0.249292,0.89397
1549,904,3.31692,-0.0259942,0.249289,0.893617
1552,901,3.31625,-0.0247613,0.249287,0.893138
1555,898,3.31822,-0.0216063,0.248203,0.891944
1558,895,3.31767,-0.0245606,0.248673,0.891707
1561,892,3.31792,-0.0232687,0.2482,0.891275
1564,889,3.31797,-0.0210471,0.247731,0.891229
1567,886,3.31661,-0.0241768,0.248676,0.89067
1570,883,3.31876,-0.0188596,0.247128,0.889671
1573,880,3.31846,-0.0195985,0.247118,0.889348
1576,877,3.31753,-0.0205252,0.247589,0.888715
1579,874,3.31733,-0.0191087,0.247113,0.888329
1582,871,3.31665,-0.0200183,0.247584,0.887693
1585,868,3.31611,-0.0208399,0.247583,0.887361
1588,865,3.31789,-0.0176109,0.246489,0.8864
1591,862,3.31784,-0.0175804,0.246489,0.886417
1594,859,3.31737,-0.0268331,0.246489,0.886109
1597,856,3.31627,-0.0277979,0.246963,0.885485
1600,853,3.31586,-0.0265751,0.246975,0.884796
1603,850,3.31806,-0.0212227,0.244954,0.88405
1606,847,3.31809,-0.021872,0.244923,0.883713
1609,844,3.31758,-0.0205908,0.244915,0.88298
1612,841,3.31708,-0.0213009,0.244911,0.882684
1615,838,3.31626,-0.0234803,0.245379,0.882766
1618,835,3.31574,-0.0222417,0.245377,0.88205
1621,832,3.31487,-0.0252208,0.245849,0.881804
1624,829,3.31704,-0.0197863,0.244279,0.880769
1627,826,3.31679,-0.0206,0.244347,0.880444
1630,823,3.31638,-0.0216467,0.244752,0.879786
1633,820,3.31618,-0.0201825,0.244351,0.879425
1636,817,3.31526,-0.0211982,0.244758,0.878777
1639,814,3.31762,-0.0261807,0.243184,0.878208
1642,811,3.31704,-0.0176782,0.243179,0.878166
1645,808,3.31609,-0.0186481,0.24384,0.877509
1648,805,3.31594,-0.0280068,0.243645,0.877207
1651,802,3.315,-0.0288587,0.244118,0.876615
1654,799,3.31419,-0.0275802,0.244118,0.875905
1657,796,3.31637,-0.0264656,0.243014,0.875311
1660,793,3.31534,-0.0274142,0.243488,0.874684
1663,790,3.31586,-0.0273695,0.243015,0.874968
1666,787,3.31502,-0.025986,0.24302,0.874328
1669,784,3.31443,-0.0270927,0.243502,0.873659
1672,781,3.31713,-0.0214165,0.24145,0.872959
1675,778,3.31696,-0.0221568,0.241446,0.872498
1678,775,3.31616,-0.0230544,0.241914,0.872033
1681,772,3.31581,-0.0216408,0.241437,0.871632
1684,769,3.31485,-0.0226731,0.241978,0.870973
1687,766,3.31426,-0.0235383,0.241909,0.870628
1690,763,3.31618,-0.020218,0.240804,0.869693
1693,760,3.31595,-0.0274113,0.240331,0.869335
1696,757,3.31515,-0.0262629,0.24033,0.868567
1699,754,3.31448,-0.0270304,0.240515,0.868271
1702,751,3.31436,-0.0279432,0.240327,0.867927
1705,748,3.31629,-0.0223724,0.238747,0.866906
1708,745,3.31575,-0.0253272,0.239216,0.86671
1711,742,3.31491,-0.0263377,0.239689,0.866058
1714,739,3.31471,-0.025148,0.239687,0.865549
1717,736,3.31393,-0.0272858,0.240161,0.865427
1720,733,3.31684,-0.0215602,0.238099,0.864705
1723,730,3.31556,-0.0224646,0.238573,0.864096
1726,727,3.31485,-0.0235256,0.239045,0.863421
1729,724,3.31414,-0.0265417,0.239522,0.863216
1732,721,3.31455,-0.022878,0.238566,0.862732
1735,718,3.31315,-0.0238501,0.239036,0.862086
1738,715,3.31575,-0.0203592,0.23745,0.861452
1741,712,3.31483,-0.021286,0.237919,0.860817
1744,709,3.31484,-0.0198449,0.237447,0.860443
1747,706,3.31377,-0.0297186,0.237924,0.85979
1750,703,3.31325,-0.0305285,0.237924,0.859489
1753,700,3.31554,-0.0248512,0.236329,0.858462
1756,697,3.31504,-0.018261,0.236805,0.858555
1759,694,3.31472,-0.0192226,0.236803,0.858184
1762,691,3.31378,-0.0290163,0.237278,0.857581
1765,688,3.31348,-0.0298011,0.237275,0.857272
1768,685,3.31545,-0.0241212,0.235679,0.85649
1771,682,3.31542,-0.0227793,0.235205,0.855821
1774,679,3.31434,-0.0237455,0.235682,0.855204
1777,676,3.31441,-0.0223456,0.23519,0.854783
1780,673,3.31432,-0.0231925,0.235204,0.854473
1783,670,3.31306,-0.0240558,0.235673,0.853861
1786,667,3.3148,-0.020765,0.234549,0.852868
1789,664,3.31496,-0.0192412,0.234074,0.8525
1792,661,3.31405,-0.0202686,0.234547,0.851847
1795,658,3.31358,-0.0211125,0.234545,0.851536
1798,655,3.31327,-0.0219663,0.234545,0.851459
1801,652,3.31471,-0.0275526,0.233598,0.850255
1804,649,3.31477,-0.0260318,0.232942,0.84987
1807,646,3.31345,-0.0293694,0.233894,0.849329
1810,643,3.3135,-0.0255615,0.232944,0.848862
1813,640,3.31252,-0.028915,0.233891,0.848296
1816,637,3.31516,-0.0229989,0.231812,0.847589
1819,634,3.31465,-0.0217416,0.231811,0.846862
1822,631,3.31416,-0.0225842,0.231812,0.846547
1825,628,3.31297,-0.0259148,0.232756,0.845977
1828,625,3.31293,-0.0244794,0.232287,0.845599
1831,622,3.315,-0.0186119,0.230674,0.844577
1834,619,3.31484,-0.0208901,0.23029,0.844945
1837,616,3.31444,-0.0195417,0.230675,0.84425
1840,613,3.31391,-0.0203641,0.230672,0.84395
1843,610,3.31289,-0.0212577,0.231137,0.843305
1846,607,3.31169,-0.0245974,0.232078,0.842715
1849,604,3.31488,-0.0186953,0.229998,0.842007
1852,601,3.31444,-0.0195271,0.229998,0.841697
1855,598,3.31354,-0.0206214,0.230474,0.841043
1858,595,3.313,-0.0304749,0.230962,0.840769
1861,592,3.31202,-0.031534,0.230947,0.840107
1864,589,3.31418,-0.0269963,0.229327,0.839797
1867,586,3.31321,-0.0280584,0.2298,0.839127
1870,583,3.31296,-0.0286965,0.229784,0.838848
1873,580,3.31237,-0.0275837,0.229845,0.838079
1876,577,3.31229,-0.0260633,0.229318,0.837718
1879,574,3.31494,-0.0224754,0.227704,0.837071
1882,571,3.31424,-0.0210963,0.227702,0.836154
1885,568,3.31385,-0.0219915,0.227704,0.836053
1888,565,3.31305,-0.0230801,0.228174,0.835381
1891,562,3.31263,-0.0238774,0.228171,0.835084
1894,559,3.31171,-0.0249148,0.228643,0.834435
1897,556,3.3139,-0.0212305,0.227018,0.833777
1900,553,3.31288,-0.0222405,0.227489,0.833128
1903,550,3.3132,-0.0208072,0.227013,0.832728
1906,547,3.31196,-0.0241299,0.227967,0.832192
1909,544,3.31218,-0.0227099,0.227489,0.831787
1912,541,3.31369,-0.0191278,0.226339,0.831068
1915,538,3.31317,-0.0292239,0.226514,0.830557
1918,535,3.31192,-0.0302799,0.226817,0.829907
1921,532,3.31188,-0.0312143,0.226816,0.829568
1924,529,3.31095,-0.0298264,0.226813,0.828865
1927,526,3.31282,-0.0263385,0.225658,0.827863
1930,523,3.31321,-0.024805,0.225182,0.827495
1933,520,3.31258,-0.0257194,0.225562,0.827165
1936,517,3.3115,-0.0266858,0.225653,0.826549
1939,514,3.31182,-0.0228418,0.2247,0.826065
1942,511,3.31387,-0.0214661,0.223545,0.825516
1945,508,3.31331,-0.0226687,0.224026,0.824846
1948,505,3.31303,-0.023464,0.224028,0.824572
1951,502,3.31199,-0.0244584,0.224502,0.823951
1954,499,3.31116,-0.0231376,0.224501,0.823226
1957,496,3.31403,-0.027682,0.222392,0.823241
1960,493,3.31361,-0.0193411,0.222861,0.822587
1963,490,3.31325,-0.0202515,0.22286,0.822264
1966,487,3.31252,-0.0305482,0.222854,0.821937
1969,484,3.31039,-0.0316692,0.223806,0.820993
1972,481,3.31077,-0.0301624,0.223324,0.82059
1975,478,3.31308,-0.0194384,0.222157,0.819996
1978,475,3.31292,-0.0272946,0.221682,0.818356
1981,472,3.3118,-0.0284564,0.222159,0.818967
1984,469,3.31209,-0.0269998,0.221687,0.818565
1987,466,3.31077,-0.0279049,0.222161,0.817975
1990,463,3.31333,-0.02413,0.220519,0.817337
1993,460,3.3128,-0.0252693,0.220992,0.816668
1996,457,3.31225,-0.0261444,0.22099,0.816352
1999,454,3.3117,-0.0247709,0.220988,0.81564
2002,451,3.31157,-0.0232742,0.220513,0.815244
2005,448,3.31423,-0.0194898,0.21887,0.814605
2008,445,3.31302,-0.0204684,0.219339,0.813977
2011,442,3.31274,-0.0214298,0.219337,0.813645
2014,439,3.31217,-0.0213605,0.219334,0.813661
2017,436,3.3116,-0.0295162,0.219338,0.812961
2020,433,3.31261,-0.0283928,0.218629,0.81201
2023,430,3.31287,-0.0292498,0.218632,0.811738
2026,427,3.31205,-0.0301815,0.218632,0.811408
2029,424,3.31204,-0.0262995,0.218153,0.810623
2032,421,3.31095,-0.02957,0.218623,0.810395
2035,418,3.31081,-0.0280912,0.218152,0.81
2038,415,3.312815,-0.0245094,0.216589,0.808998
2041,412,3.31304,-0.0229774,0.216499,0.808606
2044,409,3.31144,-0.0264115,0.217439,0.808051
2047,406,3.31184,-0.0248553,0.217009,0.807679
2050,403,3.3107,-0.0259446,0.21744,0.807032
2053,400,3.31329,-0.0220983,0.215787,0.806394
2056,397,3.31241,-0.0231936,0.216256,0.805733
2059,394,3.31209,-0.021647,0.215783,0.805357
2062,391,3.31167,-0.0321669,0.215784,0.805072
2065,388,3.31109,-0.0227152,0.216255,0.804717
2068,385,3.31287,-0.0190681,0.215066,0.8037
2071,382,3.31247,-0.019958,0.215067,0.80341
2074,379,3.3119,-0.0304895,0.215062,0.803123
2077,376,3.3116,-0.0314402,0.215062,0.802803
2080,373,3.31051,-0.0325188,0.215536,0.80216
2083,370,3.30925,-0.0336615,0.21601,0.801494
2086,367,3.31222,-0.0273062,0.213875,0.800784
2089,364,3.31116,-0.0283859,0.214345,0.800134
2092,361,3.31192,-0.024306,0.213404,0.799942
2095,358,3.31083,-0.0278166,0.213876,0.799442
2098,355,3.31122,-0.0262399,0.213405,0.799069
2101,352,3.31291,-0.022504,0.212212,0.79809
2104,349,3.31201,-0.0235687,0.21268,0.797436
2107,346,3.31193,-0.0219835,0.212209,0.797064
2110,343,3.31127,-0.0244764,0.212674,0.797133
2113,340,3.31063,-0.0230528,0.212672,0.796414
2116,337,3.3133,-0.0191717,0.211003,0.795755
2119,334,3.31261,-0.029801,0.211004,0.795485
2122,331,3.31153,-0.0309513,0.211471,0.79481
2125,328,3.31148,-0.0318775,0.211474,0.794521
2128,325,3.31026,-0.0329702,0.211938,0.793864
2131,322,3.31028,-0.0313445,0.21147,0.793501
2134,319,3.3122,-0.0276414,0.210271,0.792505
2137,316,3.31192,-0.0261705,0.209803,0.792103
2140,313,3.31083,-0.0297156,0.210742,0.791554
2143,310,3.31092,-0.0282002,0.210274,0.791161
2146,307,3.31096,-0.026576,0.2098,0.790781
2149,304,3.31285,-0.0227979,0.209076,0.789794
2152,301,3.31294,-0.0212195,0.208128,0.78941
2155,298,3.31193,-0.0223951,0.208593,0.788744
2158,295,3.31188,-0.0223098,0.208745,0.788766
2161,292,3.31107,-0.0231816,0.208588,0.788471
2164,289,3.31265,-0.0292712,0.207379,0.787509
2167,286,3.31243,-0.0204409,0.207382,0.785634
2170,283,3.31192,-0.0290103,0.207386,0.786428
2173,280,3.3108,-0.0324658,0.20786,0.786223
2176,277,3.31059,-0.0310172,0.207857,0.785516
2179,274,3.30977,-0.0319412,0.207857,0.785204
2182,271,3.31311,-0.0254526,0.205706,0.784459
2185,268,3.31182,-0.0291213,0.206634,0.783871
2188,265,3.31207,-0.0275085,0.206166,0.783493
2191,262,3.31121,-0.0300301,0.206628,0.78334
2194,259,3.31088,-0.0285178,0.206627,0.782874
2197,256,3.30997,-0.0293969,0.206624,0.78257
2200,253,3.31218,-0.0256214,0.205884,0.781564
2203,250,3.31022,-0.0294388,0.206342,0.780926
2206,247,3.31147,-0.0251191,0.204932,0.781062
2209,244,3.3105,-0.0262439,0.205401,0.780182
2212,241,3.31021,-0.0344746,0.204934,0.779869
2215,238,3.31209,-0.0308073,0.203715,0.778842
2218,235,3.31175,-0.0317082,0.203711,0.77854
2221,232,3.31092,-0.0328431,0.204176,0.777893
2224,229,3.31066,-0.0338827,0.204177,0.777564
2227,226,3.31068,-0.0312908,0.203714,0.777503
2230,223,3.31316,-0.0298303,0.202486,0.77675
2233,220,3.31193,-0.0309485,0.202952,0.77629
2236,217,3.31226,-0.0267463,0.202019,0.775832
2239,214,3.31118,-0.0277612,0.202484,0.775214
2242,211,3.30997,-0.0290326,0.202949,0.774522
2245,208,3.30974,-0.0299447,0.202944,0.774224
2248,205,3.31263,-0.0258812,0.201249,0.773586
2251,202,3.31156,-0.027096,0.201716,0.772916
2254,199,3.31158,-0.0254882,0.201252,0.772547
2257,196,3.3111,-0.033895,0.200786,0.772197
2260,193,3.31005,-0.0351438,0.20125,0.770037
2263,190,3.31288,-0.0310365,0.199554,0.770896
2266,187,3.31246,-0.021064,0.200014,0.770523
2269,184,3.31209,-0.0220077,0.200108,0.770216
2272,181,3.31125,-0.033134,0.200011,0.769934
2275,178,3.31076,-0.0240694,0.200474,0.769274
2278,175,3.30998,-0.0352948,0.20047,0.768957
2281,172,3.31205,-0.0313118,0.199231,0.767995
2284,169,3.31197,-0.0323327,0.199235,0.767687
2287,166,3.3107,-0.0324841,0.199704,0.767369
2290,163,3.31039,-0.0335842,0.200182,0.767028
2293,160,3.31071,-0.0292977,0.198774,0.766588
2296,157,3.30942,-0.0330579,0.199704,0.76601
2299,154,3.3122,-0.0290266,0.197938,0.76534
2302,151,3.3111,-0.0301356,0.19845,0.764682
2305,148,3.31162,-0.0258066,0.19752,0.764231
2308,145,3.31024,-0.0295759,0.198443,0.763649
2311,142,3.31086,-0.0268088,0.197514,0.763913
2314,139,3.30914,-0.0304446,0.19844,0.763371
2317,136,3.3124,-0.0238102,0.196264,0.762607
2320,133,3.31189,-0.0222791,0.196266,0.761908
2323,130,3.31124,-0.0336502,0.19626,0.761594
2326,127,3.30981,-0.0348379,0.196729,0.760953
2329,124,3.30986,-0.0358831,0.196733,0.760659
2332,121,3.31228,-0.0214866,0.195483,0.759658
2335,118,3.3121,-0.0329194,0.195504,0.759369
2338,115,3.31105,-0.0236646,0.195945,0.758689
2341,112,3.31099,-0.0324795,0.19548,0.758316
2344,109,3.30989,-0.0350349,0.195937,0.7584
2347,106,3.31337,-0.0281847,0.193755,0.75768
2350,103,3.31215,-0.0293251,0.19421,0.757251
2353,100,3.31193,-0.0303385,0.194209,0.756702
2356,97,3.31059,-0.0314684,0.194668,0.756052
2359,94,3.31038,-0.0273407,0.194205,0.755247
2362,91,3.30986,-0.0283235,0.194206,0.75496
2365,88,3.31342,-0.0215042,0.192186,0.754245
2368,85,3.31183,-0.0254475,0.192956,0.753652
2371,82,3.31144,-0.0255407,0.192957,0.753626
2374,79,3.31075,-0.0264564,0.192951,0.75334
2377,76,3.31054,-0.035334,0.192494,0.752972
2380,73,3.31345,-0.0284581,0.190316,0.752487
2383,70,3.31259,-0.0296225,0.191234,0.751591
2386,67,3.31203,-0.0306371,0.190769,0.751296
2389,64,3.3113,-0.0291943,0.190766,0.750543
2392,61,3.31075,-0.0301566,0.190763,0.750247
2395,58,3.31077,-0.0283867,0.190308,0.749894
2398,55,3.31335,-0.0217331,0.188585,0.748795
2401,52,3.31322,-0.0226807,0.18858,0.7485
2404,49,3.31194,-0.0264222,0.189485,0.747962
2407,46,3.31131,-0.0291327,0.189938,0.748018
2410,43,3.31018,-0.0302524,0.190409,0.747373
2413,40,3.30981,-0.0314057,0.1904,0.747047
2416,37,3.31258,-0.0245186,0.188658,0.745985
2419,34,3.31246,-0.0255826,0.188664,0.745683
2422,31,3.31173,-0.0282274,0.189446,0.745544
2425,28,3.31061,-0.0267161,0.189112,0.745029
2428,25,3.3109,-0.0250174,0.188654,0.744652
2431,22,3.30984,-0.0262089,0.18911,0.743999
2434,19,3.31286,-0.0219442,0.187373,0.743338
2437,16,3.31241,-0.0219086,0.187368,0.743338
2440,13,3.31161,-0.0230673,0.187824,0.742688
2443,10,3.31104,-0.0243046,0.187821,0.742305
2446,7,3.30951,-0.0360367,0.188278,0.741722
2449,4,3.30935,-0.0369632,0.18828,0.741454
2450,3,3.30948,-0.0263227,0.188274,0.741397