File: hust_correlation_analysis/matrices/HUST_2-4_cycle_feature_matrix.csv
cycle_number,rul,voltage,current,capacity,charge_capacity
1,1501,3.32061,-0.00905724,0.305968,1.01277
3,1499,3.30969,-0.0101801,0.311076,1.00703
5,1497,3.30972,-0.011281,0.311077,1.0065
7,1495,3.30938,-0.0119763,0.311077,1.00618
9,1493,3.31135,-0.00933126,0.30973,1.00574
11,1491,3.31164,-0.00991838,0.309259,1.00551
13,1489,3.31138,-0.010573,0.309255,1.00519
15,1487,3.31091,-0.0113376,0.30972,1.00459
17,1485,3.31111,-0.0120115,0.309718,1.00426
19,1483,3.31121,-0.0118733,0.309252,1.00457
21,1481,3.31078,-0.0126496,0.30925,1.00418
23,1479,3.31227,-0.009994,0.308377,1.00337
25,1477,3.31288,-0.00999765,0.307604,1.00361
27,1475,3.31225,-0.010703,0.308383,1.00304
29,1473,3.31232,-0.0105979,0.307908,1.00331
31,1471,3.31175,-0.0112896,0.30837,1.00272
33,1469,3.31222,-0.0113859,0.307903,1.0029
35,1467,3.31225,-0.0119599,0.307903,1.00244
37,1465,3.31188,-0.0120063,0.307896,1.00259
39,1463,3.31204,-0.0119963,0.307894,1.0026
41,1461,3.31195,-0.0127277,0.307829,1.00223
43,1459,3.31417,-0.00938443,0.306092,1.00221
45,1457,3.31365,-0.0100344,0.306554,1.00165
47,1455,3.31365,-0.01012,0.306554,1.00161
49,1453,3.31369,-0.0107147,0.307205,1.00131
51,1451,3.31338,-0.010788,0.30655,1.00127
53,1449,3.31343,-0.0106955,0.306548,1.00131
55,1447,3.31335,-0.0114013,0.306549,1.00123
57,1445,3.31293,-0.0114928,0.306548,1.00092
59,1443,3.31253,-0.0120967,0.307011,1.0004
61,1441,3.31309,-0.0120801,0.306544,1.00063
63,1439,3.31307,-0.0126108,0.306544,1.00037
65,1437,3.31265,-0.0126929,0.306539,1.00032
67,1435,3.31416,-0.0146223,0.305903,1.00018
69,1433,3.31396,-0.0146914,0.306056,1.00013
71,1431,3.3139,-0.0147785,0.305959,1.00009
73,1429,3.31376,-0.0152937,0.305959,0.999825
75,1427,3.31372,-0.0153932,0.305958,0.999783
77,1425,3.31332,-0.0161444,0.30642,0.999186
79,1423,3.3133,-0.0161023,0.305961,0.999441
81,1421,3.31342,-0.0163043,0.305962,0.999346
83,1419,3.31382,-0.0121715,0.305664,0.998466
85,1417,3.31385,-0.0120573,0.305199,0.998738
87,1415,3.3138,-0.0119818,0.305201,0.998615
89,1413,3.31459,-0.0144011,0.305088,0.998174
91,1411,3.31469,-0.0140062,0.304625,0.998582
93,1409,3.3144,-0.0147253,0.305088,0.997997
95,1407,3.314495,-0.0148294,0.305085,0.99795
97,1405,3.31414,-0.0147317,0.305174,0.997978
99,1403,3.31415,-0.014792,0.305078,0.997949
101,1401,3.31438,-0.0154702,0.30508,0.997614
103,1399,3.31412,-0.0154684,0.305079,0.997616
105,1397,3.31412,-0.0161127,0.305083,0.997308
107,1395,3.31497,-0.011067,0.30432,0.997097
109,1393,3.31498,-0.011737,0.304323,0.996767
111,1391,3.31368,-0.016451,0.305087,0.997172
113,1389,3.31313,-0.016754,0.305547,0.996786
115,1387,3.31576,-0.0134494,0.303751,0.996743
117,1385,3.31556,-0.0139867,0.303746,0.996458
119,1383,3.31495,-0.0141467,0.304205,0.996147
121,1381,3.31551,-0.0140606,0.303743,0.996413
123,1379,3.3149,-0.0141422,0.304207,0.996408
125,1377,3.31493,-0.0148799,0.304206,0.99579
127,1375,3.31496,-0.0147746,0.304204,0.995843
129,1373,3.31496,-0.0148617,0.304207,0.995805
131,1371,3.31473,-0.0149351,0.30421,0.995781
133,1369,3.31559,-0.0103494,0.30344,0.995305
135,1367,3.31505,-0.0158334,0.304212,0.99535
137,1365,3.31533,-0.0108319,0.303443,0.995092
139,1363,3.31439,-0.0157984,0.303942,0.995365
141,1361,3.31456,-0.0158887,0.30421,0.995317
143,1359,3.31438,-0.016414,0.304207,0.995046
145,1357,3.31423,-0.0162272,0.304203,0.995129
147,1355,3.31434,-0.0167763,0.304202,0.994856
149,1353,3.31412,-0.0168157,0.304204,0.994836
151,1351,3.31372,-0.0170318,0.304202,0.994729
153,1349,3.31582,-0.0134074,0.302867,0.994608
155,1347,3.31561,-0.0142506,0.303329,0.993979
157,1345,3.31564,-0.0141479,0.302874,0.99427
159,1343,3.31394,-0.0128636,0.303905,0.993865
161,1341,3.31405,-0.0128837,0.303908,0.993861
163,1339,3.31623,-0.0101015,0.302574,0.993324
165,1337,3.31591,-0.0101521,0.302571,0.993298
167,1335,3.31586,-0.0100582,0.302573,0.993347
169,1333,3.31591,-0.0101302,0.302573,0.993313
171,1331,3.31578,-0.0102287,0.302573,0.993264
173,1329,3.31542,-0.0108202,0.303033,0.992743
175,1327,3.3159,-0.0108319,0.302573,0.99296
177,1325,3.31554,-0.0108424,0.303225,0.992971
179,1323,3.31525,-0.0115463,0.303036,0.992395
181,1321,3.31578,-0.0114673,0.302574,0.992663
183,1319,3.31498,-0.0116296,0.303038,0.992362
185,1317,3.3154,-0.0114766,0.302575,0.992672
187,1315,3.31507,-0.0120953,0.303038,0.992144
189,1313,3.31488,-0.012176,0.30304,0.992102
191,1311,3.31466,-0.0122385,0.303042,0.992082
193,1309,3.31454,-0.0121128,0.303038,0.992128
195,1307,3.31496,-0.012837,0.303039,0.991774
197,1305,3.3146,-0.0128269,0.303039,0.991785
199,1303,3.31438,-0.0128271,0.30304,0.991784
201,1301,3.31462,-0.0130296,0.303039,0.991684
203,1299,3.31624,-0.0102174,0.302166,0.990934
205,1297,3.31638,-0.0101579,0.301701,0.991437
207,1295,3.31609,-0.0101478,0.302161,0.990958
209,1293,3.31647,-0.0101828,0.301699,0.991167
211,1291,3.3163,-0.0102779,0.301703,0.991132
213,1289,3.31579,-0.0108611,0.302164,0.990618
215,1287,3.31643,-0.0106949,0.301697,0.990902
217,1285,3.31574,-0.0108891,0.302157,0.990572
219,1283,3.31542,-0.0109688,0.30216,0.99055
221,1281,3.31595,-0.0108557,0.301696,0.990826
223,1279,3.31563,-0.0115767,0.302158,0.990233
225,1277,3.31538,-0.0116725,0.302157,0.990194
227,1275,3.3153,-0.0114864,0.302158,0.990285
229,1273,3.3153,-0.0115974,0.302158,0.990232
231,1271,3.31544,-0.0122385,0.302158,0.989918
233,1269,3.31526,-0.0122489,0.302157,0.989913
235,1267,3.31532,-0.0122446,0.30225,0.988526
237,1265,3.31506,-0.0122113,0.302158,0.98994
239,1263,3.31508,-0.0128735,0.302157,0.989608
241,1261,3.31514,-0.0128451,0.302157,0.989634
243,1259,3.31506,-0.0128562,0.302157,0.989621
245,1257,3.31473,-0.0129164,0.302156,0.989589
247,1255,3.31458,-0.0128616,0.302155,0.98961
249,1253,3.31654,-0.0103014,0.301276,0.988713
251,1251,3.3168,-0.0101341,0.30019,0.989026
253,1249,3.3166,-0.0101659,0.300804,0.988987
255,1247,3.316,-0.0152191,0.301577,0.989237
257,1245,3.31596,-0.0155381,0.30157,0.989056
259,1243,3.3156,-0.0156293,0.301569,0.988999
261,1241,3.31516,-0.0156885,0.302033,0.988749
263,1239,3.31519,-0.016016,0.302034,0.988593
265,1237,3.31586,-0.0155149,0.301711,0.989013
267,1235,3.31514,-0.015787,0.302011,0.988654
269,1233,3.3158,-0.0156026,0.301549,0.98897
271,1231,3.31545,-0.0158885,0.301559,0.988841
273,1229,3.31526,-0.0163259,0.301556,0.988622
275,1227,3.31526,-0.0162315,0.301558,0.988679
277,1225,3.31538,-0.0162788,0.30155,0.988638
279,1223,3.31527,-0.0169315,0.301552,0.988321
281,1221,3.31455,-0.0170448,0.302012,0.988033
283,1219,3.3152,-0.0169842,0.301549,0.988287
285,1217,3.31495,-0.0169216,0.301548,0.988302
287,1215,3.31677,-0.01369,0.300211,0.987988
289,1213,3.31643,-0.0143723,0.300678,0.987689
291,1211,3.31691,-0.0143193,0.300221,0.987706
293,1209,3.3167,-0.0149576,0.300227,0.987411
295,1207,3.31604,-0.0150482,0.300686,0.987141
297,1205,3.31658,-0.0149417,0.300158,0.987417
299,1203,3.31646,-0.0148984,0.300222,0.987426
301,1201,3.31605,-0.0157014,0.300679,0.986798
303,1199,3.31598,-0.0155811,0.300679,0.986861
305,1197,3.31596,-0.0156574,0.300678,0.986814
307,1195,3.31619,-0.0155874,0.30021,0.987051
309,1193,3.31575,-0.015697,0.30067,0.987031
311,1191,3.31596,-0.016405,0.300671,0.986429
313,1189,3.31574,-0.0163372,0.300674,0.986469
315,1187,3.31543,-0.0164274,0.30068,0.986446
317,1185,3.31551,-0.016928,0.300683,0.9862
319,1183,3.31549,-0.0170458,0.300683,0.986145
321,1181,3.3173,-0.0136836,0.299349,0.9859
323,1179,3.31678,-0.0144044,0.299809,0.985318
325,1177,3.31734,-0.0143507,0.299344,0.985553
327,1175,3.31715,-0.014287,0.299342,0.985583
329,1173,3.31687,-0.0143569,0.29943,0.985535
331,1171,3.31673,-0.0150325,0.299801,0.984983
333,1169,3.31668,-0.0151259,0.299801,0.984936
335,1167,3.31681,-0.0149806,0.299331,0.985211
337,1165,3.3162,-0.015031,0.299793,0.984964
339,1163,3.31648,-0.0151264,0.299794,0.984919
341,1161,3.31637,-0.015669,0.299801,0.984663
343,1159,3.31603,-0.0157618,0.299803,0.984624
345,1157,3.31626,-0.0162851,0.299805,0.984373
347,1155,3.31626,-0.0167158,0.299808,0.98417
349,1153,3.31585,-0.0163858,0.299805,0.984336
351,1151,3.31566,-0.0163697,0.299804,0.98434
353,1149,3.31613,-0.0170406,0.299803,0.984003
355,1147,3.31544,-0.0171184,0.300269,0.983746
357,1145,3.31548,-0.017058,0.299239,0.983983
359,1143,3.3155,-0.0169718,0.299801,0.984022
361,1141,3.31784,-0.0141039,0.29846,0.983504
363,1139,3.3174,-0.0143444,0.298459,0.983386
365,1137,3.31674,-0.0143923,0.298917,0.983142
367,1135,3.31742,-0.0143933,0.297882,0.983371
369,1133,3.31697,-0.0151451,0.298928,0.982793
371,1131,3.31655,-0.0151869,0.298933,0.982789
373,1129,3.31674,-0.0157177,0.298933,0.982529
375,1127,3.31672,-0.0157683,0.298937,0.982513
377,1125,3.31658,-0.015683,0.298351,0.982552
379,1123,3.3164,-0.0157039,0.29893,0.982532
381,1121,3.31678,-0.0164041,0.298927,0.982175
383,1119,3.31653,-0.0163948,0.298926,0.982173
385,1117,3.31614,-0.0164702,0.298924,0.982133
387,1115,3.3161,-0.016349,0.298923,0.982183
389,1113,3.31606,-0.0171861,0.299386,0.981551
391,1111,3.31609,-0.0169755,0.298921,0.981869
393,1109,3.31532,-0.017218,0.299386,0.981545
395,1107,3.31768,-0.0145005,0.298705,0.980964
397,1105,3.31753,-0.014432,0.298058,0.981017
399,1103,3.31608,-0.0131046,0.298617,0.980846
401,1101,3.31589,-0.0130015,0.298619,0.980901
403,1099,3.31805,-0.00968256,0.297274,0.980592
405,1097,3.31794,-0.0103063,0.297275,0.980291
407,1095,3.31732,-0.0107465,0.297736,0.979847
409,1093,3.3171,-0.0157188,0.298053,0.980377
411,1091,3.31656,-0.0158366,0.298521,0.981591
413,1089,3.31618,-0.0158944,0.298514,0.980065
415,1087,3.31633,-0.0163754,0.298513,0.97982
417,1085,3.31638,-0.01653,0.298673,0.979749
419,1083,3.31614,-0.0164807,0.298513,0.979776
421,1081,3.31604,-0.0172205,0.298521,0.979431
423,1079,3.31711,-0.0120199,0.297734,0.979225
425,1077,3.31661,-0.0125134,0.298205,0.978762
427,1075,3.31654,-0.0124295,0.297741,0.979023
429,1073,3.31627,-0.013102,0.298208,0.978476
431,1071,3.31637,-0.0131973,0.298205,0.978428
433,1069,3.31648,-0.0130612,0.297741,0.978715
435,1067,3.318,-0.010488,0.29686,0.977818
437,1065,3.31719,-0.0154765,0.29786,0.97813
439,1063,3.31831,-0.00999814,0.296391,0.978258
441,1061,3.31796,-0.0103364,0.296388,0.978092
443,1059,3.31675,-0.0157986,0.297723,0.977953
445,1057,3.31676,-0.015893,0.297632,0.977909
447,1055,3.31741,-0.0113603,0.296851,0.977363
449,1053,3.31695,-0.0118828,0.297323,0.976906
451,1051,3.31698,-0.0118279,0.297325,0.976945
453,1049,3.317,-0.0118809,0.297327,0.976926
455,1047,3.31673,-0.0125007,0.297327,0.976636
457,1045,3.31656,-0.0124706,0.297637,0.976641
459,1043,3.31733,-0.0124224,0.296863,0.976894
461,1041,3.31669,-0.0131223,0.297328,0.976331
463,1039,3.31632,-0.0132132,0.297327,0.976272
465,1037,3.31631,-0.0131168,0.297327,0.976323
467,1035,3.31859,-0.0104018,0.295977,0.97569
469,1033,3.3181,-0.0103971,0.296627,0.975705
471,1031,3.31793,-0.0103994,0.295976,0.975684
473,1029,3.31823,-0.0104533,0.295974,0.975664
475,1027,3.31755,-0.0111052,0.296444,0.975137
477,1025,3.31719,-0.0111668,0.296445,0.97512
479,1023,3.31747,-0.0117614,0.296445,0.974829
481,1021,3.3174,-0.0118351,0.296453,0.974807
483,1019,3.3177,-0.0117685,0.295991,0.975072
485,1017,3.31723,-0.0124648,0.296444,0.974479
487,1015,3.31736,-0.0125227,0.296528,0.974435
489,1013,3.31708,-0.0124465,0.296438,0.974451
491,1011,3.31676,-0.0125769,0.296438,0.974404
493,1009,3.31689,-0.0130962,0.296434,0.974128
495,1007,3.31688,-0.0132174,0.296434,0.974074
497,1005,3.31644,-0.0132028,0.296432,0.97408
499,1003,3.31831,-0.00990533,0.295087,0.973749
501,1001,3.31854,-0.0104372,0.295022,0.973481
503,999,3.31852,-0.0104394,0.295093,0.973496
505,997,3.31817,-0.0105776,0.295738,0.973431
507,995,3.31783,-0.0111614,0.295553,0.97291
509,993,3.31785,-0.011227,0.295553,0.972885
511,991,3.31789,-0.0110948,0.295089,0.973171
513,989,3.31747,-0.0118458,0.295548,0.972819
515,987,3.31757,-0.0119113,0.295548,0.97253
517,985,3.31748,-0.0119143,0.295549,0.972537
519,983,3.31761,-0.0118408,0.29508,0.972783
521,981,3.31714,-0.0125106,0.295545,0.972226
523,979,3.31847,-0.0143558,0.294993,0.972175
525,977,3.3175,-0.012457,0.295077,0.972473
527,975,3.31812,-0.0149517,0.294991,0.971873
529,973,3.31676,-0.0132978,0.295547,0.971854
531,971,3.31888,-0.010479,0.294204,0.971289
533,969,3.3181,-0.0107588,0.294828,0.970939
535,967,3.31807,-0.0105491,0.294669,0.971048
537,965,3.31825,-0.0112086,0.29467,0.970728
539,963,3.31797,-0.0111954,0.294669,0.970726
541,961,3.31782,-0.0112775,0.294753,0.97068
543,959,3.31803,-0.0118994,0.294665,0.970359
545,957,3.31797,-0.0118903,0.294665,0.970369
547,955,3.31762,-0.0119503,0.29466,0.97034
549,953,3.31717,-0.0125876,0.295124,0.969799
551,951,3.31763,-0.0126552,0.294659,0.969983
553,949,3.31733,-0.0125825,0.294659,0.970014
555,947,3.31718,-0.0133109,0.294661,0.969674
557,945,3.31714,-0.0133354,0.294665,0.969666
559,943,3.31896,-0.0105515,0.293786,0.968866
561,941,3.31862,-0.0105934,0.293789,0.968863
563,939,3.3182,-0.0112026,0.294904,0.968345
565,937,3.31862,-0.0112368,0.293788,0.968547
567,935,3.31827,-0.0111972,0.293786,0.968553
569,933,3.3181,-0.0112448,0.293779,0.968506
571,931,3.31825,-0.0118745,0.293777,0.968194
573,929,3.31823,-0.0119478,0.293777,0.968162
575,927,3.31794,-0.0120126,0.293773,0.968122
577,925,3.31751,-0.0126385,0.294235,0.967586
579,923,3.31921,-0.0143934,0.293219,0.967786
581,921,3.31767,-0.0128969,0.293763,0.967666
583,919,3.3169,-0.0134172,0.29424,0.967096
585,917,3.3196,-0.00980938,0.292428,0.967254
587,915,3.3191,-0.0106179,0.293204,0.966641
589,913,3.31871,-0.0106699,0.292896,0.96662
591,911,3.31835,-0.0112436,0.293364,0.966119
593,909,3.31891,-0.0112013,0.292898,0.966366
595,907,3.31821,-0.0119426,0.293359,0.965771
597,905,3.31792,-0.0119866,0.293357,0.965736
599,903,3.31794,-0.0120298,0.293355,0.965713
601,901,3.31798,-0.0126999,0.293351,0.965363
603,899,3.31754,-0.0127628,0.293355,0.965348
605,897,3.31729,-0.0133544,0.293821,0.964837
607,895,3.31765,-0.013396,0.293352,0.965025
609,893,3.31721,-0.0134192,0.293354,0.965027
611,891,3.31886,-0.0108043,0.292475,0.96414
613,889,3.31892,-0.0106783,0.293128,0.964231
615,887,3.31879,-0.0112588,0.292486,0.963949
617,885,3.31854,-0.0113316,0.292486,0.963911
619,883,3.31817,-0.011911,0.292953,0.963411
621,881,3.31865,-0.0119769,0.292484,0.963595
623,879,3.31778,-0.0127246,0.292951,0.963016
625,877,3.31774,-0.0126928,0.292952,0.963024
627,875,3.31783,-0.0127639,0.29295,0.962997
629,873,3.31718,-0.0134865,0.293422,0.962425
631,871,3.31949,-0.00994313,0.29168,0.962395
633,869,3.319,-0.0107383,0.292066,0.961794
635,867,3.31898,-0.0107124,0.292064,0.961805
637,865,3.3186,-0.0113888,0.292065,0.961463
639,863,3.31798,-0.0113838,0.292539,0.961275
641,861,3.31825,-0.012165,0.29254,0.960897
643,859,3.31841,-0.0119941,0.292071,0.961198
645,857,3.31793,-0.012746,0.292544,0.960628
647,855,3.31773,-0.0127875,0.292543,0.960611
649,853,3.31779,-0.0134379,0.292545,0.960295
651,851,3.31719,-0.0135699,0.292549,0.960493
653,849,3.31936,-0.00995174,0.291193,0.960026
655,847,3.31955,-0.0106359,0.290681,0.959695
657,845,3.31903,-0.010647,0.291193,0.959692
659,843,3.31841,-0.0113508,0.291661,0.959119
661,841,3.3185,-0.0114184,0.291661,0.959097
663,839,3.31793,-0.0121658,0.29213,0.958499
665,837,3.31814,-0.0122231,0.291659,0.958696
667,835,3.31829,-0.0127776,0.29166,0.958433
669,833,3.31782,-0.0134287,0.292132,0.957898
671,831,3.31728,-0.0136532,0.29213,0.957787
673,829,3.31718,-0.0135479,0.292129,0.957823
675,827,3.3194,-0.0108341,0.291421,0.957169
677,825,3.31893,-0.0108104,0.29077,0.957181
679,823,3.31845,-0.0114859,0.291235,0.956618
681,821,3.31893,-0.011381,0.290762,0.956883
683,819,3.31829,-0.0121044,0.291238,0.956316
685,817,3.31798,-0.0122187,0.291234,0.956253
687,815,3.31841,-0.0120545,0.290757,0.956557
689,813,3.318,-0.012852,0.291383,0.95593
691,811,3.31766,-0.0129486,0.291224,0.955883
693,809,3.31704,-0.0136507,0.291701,0.95533
695,807,3.31971,-0.0101226,0.289871,0.95529
697,805,3.31882,-0.0107822,0.290338,0.954729
699,803,3.31874,-0.0115478,0.290346,0.95438
701,801,3.31874,-0.0116073,0.290341,0.954338
703,799,3.3186,-0.0115152,0.290346,0.954397
705,797,3.31838,-0.0121975,0.29034,0.954049
707,795,3.3184,-0.0121652,0.290493,0.954066
709,793,3.31773,-0.0130178,0.290809,0.953423
711,791,3.31747,-0.0137278,0.291386,0.953067
713,789,3.31731,-0.0136835,0.290804,0.953084
715,787,3.3196,-0.0108666,0.289445,0.952461
717,785,3.31905,-0.0107802,0.289444,0.952514
719,783,3.31853,-0.0116256,0.289913,0.951871
721,781,3.31852,-0.0117113,0.290021,0.951818
723,779,3.31837,-0.0123045,0.289919,0.951554
725,777,3.31808,-0.0124254,0.289919,0.951506
727,775,3.31832,-0.0129914,0.289917,0.951219
729,773,3.31771,-0.0137204,0.290394,0.950665
731,771,3.31719,-0.0137928,0.291049,0.950633
733,769,3.31976,-0.0100967,0.288555,0.950634
735,767,3.31921,-0.0109136,0.289029,0.950024
737,765,3.3189,-0.0116768,0.289026,0.949643
739,763,3.31865,-0.0116039,0.289501,0.949439
741,761,3.31857,-0.0123799,0.289498,0.949085
743,759,3.31811,-0.012379,0.289497,0.949088
745,757,3.31766,-0.0130671,0.289973,0.948531
747,755,3.31809,-0.0131558,0.289499,0.948717
749,753,3.31775,-0.0137202,0.289496,0.948437
751,751,3.31964,-0.010177,0.288136,0.948155
753,749,3.31915,-0.0110546,0.288615,0.94753
755,747,3.3185,-0.0117113,0.289089,0.946986
757,745,3.31851,-0.0116803,0.288617,0.947236
759,743,3.31889,-0.0123674,0.288616,0.946899
761,741,3.3188,-0.0122965,0.288923,0.946939
763,739,3.31797,-0.0131229,0.289092,0.94632
765,737,3.31768,-0.013103,0.289091,0.946332
767,735,3.31751,-0.0138298,0.288996,0.945967
769,733,3.31925,-0.0102664,0.28772,0.945681
771,731,3.31887,-0.0110437,0.288198,0.945092
773,729,3.31902,-0.0117247,0.288197,0.944759
775,727,3.31857,-0.0117809,0.288347,0.944729
777,725,3.31851,-0.0123483,0.288195,0.944452
779,723,3.3185,-0.0125399,0.288182,0.944326
781,721,3.31802,-0.0132154,0.288183,0.94401
783,719,3.31736,-0.0132415,0.288657,0.943767
785,717,3.31791,-0.0138624,0.288182,0.943689
787,715,3.31971,-0.0102019,0.28681,0.943427
789,713,3.31859,-0.0110874,0.28777,0.942341
791,711,3.31868,-0.0119248,0.287773,0.942191
793,709,3.31888,-0.0116081,0.287291,0.942565
795,707,3.31815,-0.0125708,0.287771,0.941883
797,705,3.31831,-0.0132567,0.287771,0.941555
799,703,3.3178,-0.0131709,0.287769,0.941582
801,701,3.31712,-0.0140325,0.288245,0.940949
803,699,3.31974,-0.0102875,0.286396,0.940951
805,697,3.31927,-0.00926625,0.286398,0.940205
807,695,3.31928,-0.00980179,0.286387,0.939928
809,693,3.31921,-0.00995101,0.286392,0.939861
811,691,3.3182,-0.018025,0.286877,0.939336
813,689,3.31795,-0.010859,0.286949,0.939215
815,687,3.31767,-0.0188423,0.286875,0.938941
817,685,3.31754,-0.0188341,0.28687,0.938932
819,683,3.31946,-0.0159399,0.285507,0.938337
821,681,3.31929,-0.0148037,0.285508,0.93764
823,679,3.31935,-0.0135862,0.285026,0.937181
825,677,3.31848,-0.0174594,0.286284,0.935931
827,675,3.31882,-0.0143309,0.285022,0.936818
829,673,3.31881,-0.0144049,0.285018,0.936781
831,671,3.31761,-0.0170465,0.285971,0.936315
833,669,3.318,-0.0139254,0.285015,0.935748
835,667,3.3178,-0.0158732,0.285496,0.935855
837,665,3.3192,-0.011207,0.284117,0.934811
839,663,3.31963,-0.0110766,0.283641,0.935084
841,661,3.31985,-0.00996379,0.283172,0.934614
843,659,3.31886,-0.0107582,0.283639,0.934012
845,657,3.31865,-0.0106375,0.283639,0.934062
847,655,3.31869,-0.0114358,0.283644,0.933698
849,653,3.3182,-0.0195658,0.283637,0.933323
851,651,3.31997,-0.014087,0.282269,0.932692
853,649,3.32003,-0.0148015,0.282266,0.932339
855,647,3.31944,-0.0148447,0.282262,0.932315
857,645,3.31869,-0.0156008,0.282732,0.931732
859,643,3.31882,-0.0164176,0.282731,0.93134
861,641,3.31889,-0.016181,0.282255,0.931657
863,639,3.31838,-0.0151921,0.282406,0.930889
865,637,3.31847,-0.0159831,0.282258,0.93052
867,635,3.3201,-0.0106066,0.280899,0.929865
869,633,3.31969,-0.0130389,0.281365,0.929717
871,631,3.31989,-0.0117665,0.280904,0.92934
873,629,3.31932,-0.0107576,0.280902,0.928572
875,627,3.31889,-0.0132221,0.281363,0.928286
877,625,3.31894,-0.011492,0.280891,0.928187
879,623,3.31884,-0.0122382,0.280889,0.927821
881,621,3.32077,-0.0086113,0.279519,0.927528
883,619,3.32059,-0.0147006,0.279047,0.927126
885,617,3.31971,-0.0174607,0.279986,0.926637
887,615,3.3193,-0.0101558,0.280625,0.926554
889,613,3.31926,-0.0162481,0.279505,0.926158
891,611,3.31916,-0.0152856,0.27951,0.925388
893,609,3.31886,-0.0171821,0.279586,0.925724
895,607,3.32074,-0.0122669,0.278146,0.924817
897,605,3.32074,-0.0129793,0.278148,0.924496
899,603,3.32032,-0.013751,0.27815,0.924132
901,601,3.31955,-0.0137117,0.278621,0.924202
903,599,3.31959,-0.0144455,0.278616,0.923596
905,597,3.31949,-0.0133547,0.278147,0.923076
907,595,3.31844,-0.0142509,0.279085,0.922218
909,593,3.32114,-0.0104658,0.277245,0.922212
911,591,3.32092,-0.00924531,0.276869,0.921767
913,589,3.32016,-0.0101287,0.277243,0.921121
915,587,3.32003,-0.0101914,0.277239,0.921089
917,585,3.31943,-0.0181938,0.27724,0.920828
919,583,3.31882,-0.0190878,0.277708,0.920195
921,581,3.31918,-0.0189706,0.277238,0.920462
923,579,3.31864,-0.017847,0.277241,0.919752
925,577,3.32039,-0.0168197,0.27664,0.919277
927,575,3.32022,-0.0156952,0.27634,0.91856
929,573,3.31974,-0.0156793,0.27634,0.918566
931,571,3.31933,-0.0164347,0.276342,0.918222
933,569,3.31961,-0.0152009,0.27587,0.917768
935,567,3.31936,-0.0141262,0.275872,0.917026
937,565,3.32082,-0.0123728,0.274967,0.91687
939,563,3.32085,-0.0111394,0.2745,0.916411
941,561,3.32073,-0.0119325,0.274501,0.916049
943,559,3.32028,-0.0120015,0.274499,0.916009
945,557,3.31988,-0.0107535,0.274498,0.915356
947,555,3.31938,-0.0116968,0.274964,0.914696
949,553,3.31944,-0.0122846,0.274497,0.914637
951,551,3.32072,-0.0160995,0.273594,0.914148
953,549,3.32064,-0.0168952,0.273594,0.913775
955,547,3.32001,-0.0175685,0.273591,0.913451
957,545,3.31942,-0.0165361,0.274057,0.912475
959,543,3.3193,-0.0192299,0.274528,0.912262
961,541,3.31908,-0.0172323,0.273597,0.912393
963,539,3.31867,-0.0160238,0.273591,0.911689
965,537,3.32083,-0.015123,0.272691,0.91115
967,535,3.32067,-0.0138338,0.272227,0.910724
969,533,3.31989,-0.0119842,0.272221,0.910333
971,531,3.31975,-0.0147126,0.272684,0.910088
973,529,3.31959,-0.0134832,0.272217,0.909611
975,527,3.31919,-0.0124058,0.272216,0.908872
977,525,3.3218,-0.00866384,0.270387,0.908838
979,523,3.32076,-0.0094264,0.270849,0.908251
981,521,3.32,-0.0103047,0.271303,0.907621
983,519,3.32046,-0.0101937,0.270845,0.907902
985,517,3.31954,-0.0191629,0.271944,0.90702
987,515,3.31915,-0.0192936,0.271308,0.906958
989,513,3.31918,-0.0199451,0.271309,0.906663
991,511,3.32091,-0.0150658,0.26994,0.905689
993,509,3.32018,-0.0177299,0.270403,0.90549
995,507,3.32004,-0.0146619,0.269939,0.904628
997,505,3.32036,-0.0146266,0.269477,0.904859
999,503,3.31951,-0.0154967,0.27057,0.904045
1001,501,3.31945,-0.014194,0.269473,0.903801
1003,499,3.32113,-0.0113519,0.268565,0.902901
1005,497,3.32061,-0.0140351,0.269026,0.902685
1007,495,3.32049,-0.012018,0.268563,0.902592
1009,493,3.32005,-0.0109695,0.268561,0.901825
1011,491,3.31957,-0.0137353,0.269025,0.901586
1013,489,3.32108,-0.0162457,0.267656,0.900702
1015,487,3.321,-0.0170592,0.267666,0.900354
1017,485,3.32071,-0.0103125,0.26767,0.899983
1019,483,3.32007,-0.0165601,0.267665,0.899333
1021,481,3.31998,-0.0173589,0.267656,0.898938
1023,479,3.31935,-0.0174615,0.267656,0.898904
1025,477,3.32138,-0.0125095,0.266286,0.897935
1027,475,3.32146,-0.0132854,0.266284,0.897579
1029,473,3.32068,-0.0140122,0.266285,0.897246
1031,471,3.31985,-0.0146982,0.26674,0.896693
1033,469,3.32015,-0.0136449,0.266343,0.896141
1035,467,3.31992,-0.0124115,0.26582,0.895687
1037,465,3.32132,-0.00875337,0.264909,0.895146
1039,463,3.32191,-0.00947528,0.264451,0.895033
1041,461,3.32085,-0.0101861,0.264905,0.894476
1043,459,3.32007,-0.0110142,0.265367,0.893895
1045,457,3.32014,-0.0118171,0.265367,0.893526
1047,455,3.31954,-0.0200304,0.265368,0.893273
1049,453,3.3213,-0.015147,0.263998,0.892275
1051,451,3.32119,-0.0160235,0.263997,0.891863
1053,449,3.32029,-0.016779,0.264454,0.891301
1055,447,3.31954,-0.0156368,0.264449,0.890573
1057,445,3.31995,-0.0156364,0.26399,0.890775
1059,443,3.32141,-0.0126443,0.26308,0.88994
1061,441,3.32134,-0.0114109,0.262621,0.889464
1063,439,3.32127,-0.012186,0.262618,0.889101
1065,437,3.32022,-0.012953,0.263074,0.888538
1067,435,3.31968,-0.0118649,0.263071,0.887788
1069,433,3.31958,-0.0126131,0.263071,0.887443
1071,431,3.32161,-0.0095871,0.2617,0.886811
1073,429,3.32056,-0.0179661,0.262215,0.886283
1075,427,3.32049,-0.0187583,0.262158,0.885941
1077,425,3.31966,-0.0187142,0.262154,0.88596
1079,423,3.31923,-0.0176318,0.262153,0.885191
1081,421,3.32146,-0.0146113,0.260785,0.883298
1083,419,3.32079,-0.0134544,0.260786,0.883858
1085,417,3.32049,-0.0142213,0.260785,0.883524
1087,415,3.3204,-0.0149586,0.260786,0.88319
1089,413,3.31962,-0.0137765,0.260783,0.882466
1091,411,3.32158,-0.0107497,0.259414,0.881843
1093,409,3.32182,-0.0095454,0.258959,0.881353
1095,407,3.32089,-0.0103353,0.259413,0.880781
1097,405,3.32008,-0.011229,0.259867,0.880167
1099,403,3.31965,-0.0197019,0.25987,0.879856
1101,401,3.32095,-0.0166344,0.258958,0.879044
1103,399,3.32077,-0.0173835,0.258959,0.878724
1105,397,3.32108,-0.0161659,0.258505,0.878481
1107,395,3.31999,-0.0169889,0.258961,0.87765
1109,393,3.31958,-0.0177859,0.258961,0.877299
1111,391,3.32165,-0.0127763,0.257585,0.876289
1113,389,3.32117,-0.0135166,0.257581,0.875945
1115,387,3.32066,-0.0124406,0.257577,0.87517
1117,385,3.32042,-0.0131284,0.257575,0.874858
1119,383,3.31934,-0.0139733,0.258026,0.874253
1121,381,3.31913,-0.0147411,0.258023,0.873908
1123,379,3.32165,-0.00967618,0.256197,0.873142
1125,377,3.32028,-0.0182418,0.25665,0.872591
1127,375,3.32006,-0.0190039,0.256648,0.872249
1129,373,3.31991,-0.0197958,0.25665,0.871901
1131,371,3.31881,-0.0206105,0.257108,0.871352
1133,369,3.32073,-0.0156409,0.25574,0.870343
1135,367,3.32106,-0.0144551,0.255286,0.869839
1137,365,3.32026,-0.0151104,0.255285,0.869541
1139,363,3.31957,-0.0159166,0.255734,0.86896
1141,361,3.32192,-0.0109067,0.25391,0.868169
1143,359,3.32138,-0.0115957,0.253907,0.867861
1145,357,3.32098,-0.0104088,0.253897,0.867352
1147,355,3.32078,-0.0111734,0.253895,0.86676
1149,353,3.31996,-0.0120146,0.253895,0.866385
1151,351,3.31856,-0.0206874,0.254797,0.865587
1153,349,3.32078,-0.0176516,0.253421,0.864938
1155,347,3.3203,-0.0184469,0.253418,0.864839
1157,345,3.3198,-0.017152,0.253418,0.863905
1159,343,3.31942,-0.0180566,0.253416,0.863502
1161,341,3.32104,-0.016908,0.252491,0.863306
1163,339,3.32099,-0.0136234,0.25204,0.862222
1165,337,3.32096,-0.0124922,0.251589,0.861687
1167,335,3.32027,-0.0152873,0.252038,0.861492
1169,333,3.31965,-0.0139787,0.252037,0.860819
1171,331,3.32139,-0.0090525,0.250664,0.859746
1173,329,3.32107,-0.00979469,0.250662,0.859417
1175,327,3.3206,-0.0183614,0.250939,0.859118
1177,325,3.31964,-0.0192804,0.251108,0.858506
1179,323,3.31862,-0.0201024,0.251555,0.857928
1181,321,3.32104,-0.0149958,0.249727,0.857137
1183,319,3.32073,-0.0157048,0.249727,0.856822
1185,317,3.32008,-0.01525,0.249724,0.85577
1187,315,3.31936,-0.0162567,0.250169,0.855107
1189,313,3.3188,-0.016918,0.250169,0.854812
1191,311,3.32068,-0.0118235,0.248792,0.853801
1193,309,3.32073,-0.0127116,0.248793,0.853426
1195,307,3.32007,-0.0134306,0.248797,0.853121
1197,305,3.31927,-0.0121629,0.248848,0.852429
1199,303,3.32173,-0.00910046,0.247423,0.851777
1201,301,3.32076,-0.00990104,0.24787,0.851213
1203,299,3.31966,-0.0194573,0.248318,0.850133
1205,297,3.31958,-0.0182398,0.247866,0.8498
1207,295,3.31827,-0.0210442,0.248763,0.849408
1209,293,3.32107,-0.013832,0.246481,0.848465
1211,291,3.320306,-0.0147335,0.24693,0.8481
1213,289,3.31933,-0.0175516,0.247376,0.847669
1215,287,3.31889,-0.0163727,0.247376,0.846929
1217,285,3.32147,-0.011045,0.24555,0.846217
1219,283,3.32025,-0.0120028,0.245994,0.845575
1221,281,3.3201,-0.0128218,0.245993,0.845228
1223,279,3.31962,-0.0114559,0.245548,0.844792
1225,277,3.3184,-0.0131601,0.246444,0.843621
1227,275,3.32058,-0.0180373,0.245068,0.843027
1229,273,3.31978,-0.0188216,0.245066,0.842692
1231,271,3.31924,-0.0175359,0.245064,0.84199
1233,269,3.31929,-0.016344,0.244616,0.841459
1235,267,3.3203,-0.015294,0.244131,0.840748
1237,265,3.32001,-0.0148365,0.244406,0.839695
1239,263,3.31962,-0.0135177,0.243681,0.839214
1241,261,3.31852,-0.0165404,0.244576,0.838748
1243,259,3.32107,-0.0112144,0.243019,0.837996
1245,257,3.32016,-0.0100273,0.242743,0.837245
1247,255,3.31972,-0.0107438,0.242741,0.836943
1249,253,3.31966,-0.0115933,0.24274,0.836579
1251,251,3.31852,-0.0125317,0.243188,0.835965
1253,249,3.32005,-0.0160349,0.241805,0.834703
1255,247,3.31923,-0.0171074,0.242253,0.834285
1257,245,3.31888,-0.0178662,0.24225,0.833717
1259,243,3.31877,-0.0164298,0.241802,0.833289
1261,241,3.32016,-0.0133871,0.240868,0.832385
1263,239,3.31952,-0.0129156,0.240865,0.831321
1265,237,3.31942,-0.0138219,0.240863,0.830943
1267,235,3.31905,-0.012403,0.240417,0.830507
1269,233,3.32,-0.00933029,0.239924,0.829376
1271,231,3.31988,-0.0101904,0.239924,0.829022
1273,229,3.3194,-0.0109059,0.239923,0.828727
1275,227,3.31855,-0.0186457,0.239923,0.827674
1277,225,3.31756,-0.019571,0.240369,0.827069
1279,223,3.3195,-0.0163323,0.238984,0.826454
1281,221,3.31958,-0.017094,0.238981,0.826139
1283,219,3.31864,-0.0158448,0.239591,0.825402
1285,217,3.31749,-0.0167997,0.239425,0.824785
1287,215,3.32051,-0.0121681,0.237594,0.823705
1289,213,3.31906,-0.0131131,0.23804,0.823105
1291,211,3.31907,-0.0117516,0.237594,0.822646
1293,209,3.31815,-0.0126263,0.238037,0.822062
1295,207,3.31955,-0.00949963,0.237096,0.821156
1297,205,3.31931,-0.0192192,0.237093,0.820574
1299,203,3.31805,-0.0201726,0.23754,0.819956
1301,201,3.31789,-0.0188305,0.237089,0.819476
1303,199,3.31993,-0.0135637,0.235702,0.818431
1305,197,3.31899,-0.0165684,0.236147,0.818242
1307,195,3.31865,-0.0138002,0.235702,0.817088
1309,193,3.31783,-0.014813,0.236144,0.816443
1311,191,3.31995,-0.0114925,0.234753,0.815833
1313,189,3.3196,-0.0123206,0.234753,0.815496
1315,187,3.31847,-0.013202,0.235196,0.814914
1317,185,3.31768,-0.0209953,0.235196,0.813904
1319,183,3.31994,-0.0178508,0.233806,0.813227
1321,181,3.31864,-0.0186806,0.234247,0.812674
1323,179,3.31871,-0.0173284,0.233807,0.812201
1325,177,3.31818,-0.0168819,0.23381,0.811135
1327,175,3.31917,-0.0158303,0.233305,0.81042
1329,173,3.31913,-0.0166769,0.233305,0.81008
1331,171,3.31878,-0.0152326,0.232855,0.80962
1333,169,3.31757,-0.0149701,0.233303,0.808255
1335,167,3.3174,-0.0135676,0.232853,0.807777
1337,165,3.3189,-0.0104731,0.231903,0.806843
1339,163,3.31886,-0.0112424,0.231903,0.80654
1341,161,3.31765,-0.0203391,0.231898,0.80628
1343,159,3.31643,-0.0222393,0.232792,0.805088
1345,157,3.31898,-0.0166955,0.231216,0.804319
1347,155,3.31745,-0.0198707,0.23184,0.803864
1349,153,3.3182,-0.0182801,0.230948,0.803688
1351,151,3.31699,-0.0179663,0.23151,0.802335
1353,149,3.31833,-0.0147114,0.23044,0.80146
1355,147,3.31836,-0.0134107,0.229995,0.800946
1357,145,3.31776,-0.0164003,0.230439,0.80079
1359,143,3.31711,-0.0129878,0.229994,0.799868
1361,141,3.31866,-0.010495,0.229042,0.79868
1363,139,3.31813,-0.0197361,0.229038,0.798403
1365,137,3.31755,-0.012291,0.229481,0.79773
1367,135,3.31686,-0.0131045,0.229481,0.797414
1369,133,3.31873,-0.0167718,0.228082,0.796151
1371,131,3.31751,-0.0178551,0.228527,0.795506
1373,129,3.31735,-0.0164213,0.228079,0.795042
1375,127,3.31667,-0.0175421,0.228522,0.794373
1377,125,3.31911,-0.013896,0.226706,0.794083
1379,123,3.31785,-0.013413,0.227118,0.792783
1381,121,3.31705,-0.014473,0.227561,0.792145
1383,119,3.31672,-0.0131294,0.227119,0.791659
1385,117,3.31896,-0.00971442,0.225718,0.791038
1387,115,3.31795,-0.0113653,0.226157,0.790159
1389,113,3.31765,-0.0185957,0.225707,0.789674
1391,111,3.31647,-0.0195285,0.226752,0.789083
1393,109,3.31806,-0.0162251,0.225193,0.788209
1395,107,3.31753,-0.0181156,0.225635,0.78725
1397,105,3.31694,-0.0166518,0.225193,0.786797
1399,103,3.31637,-0.0154006,0.225187,0.786024
1401,101,3.3186,-0.0119078,0.223785,0.785421
1403,99,3.31743,-0.013623,0.224223,0.784526
1405,97,3.31749,-0.0146078,0.22422,0.784139
1407,95,3.31692,-0.0131586,0.223776,0.783676
1409,93,3.31823,-0.018412,0.222814,0.782856
1411,91,3.3179,-0.0192262,0.222811,0.78253
1413,89,3.31628,-0.0212539,0.223697,0.781306
1415,87,3.3163,-0.0198972,0.223252,0.780793
1417,85,3.31835,-0.0163258,0.221957,0.780228
1419,83,3.31746,-0.0172756,0.222287,0.778268
1421,81,3.31691,-0.0145183,0.221845,0.778415
1423,79,3.31598,-0.0155466,0.222285,0.777807
1425,77,3.31832,-0.0120934,0.22088,0.777188
1427,75,3.31711,-0.0139132,0.221324,0.776276
1429,73,3.31725,-0.0124455,0.220879,0.7758
1431,71,3.31558,-0.0220982,0.221316,0.775255
1433,69,3.31735,-0.0187761,0.220346,0.774351
1435,67,3.317894,-0.0172177,0.219462,0.774124
1437,65,3.31625,-0.0205432,0.220341,0.773659
1439,63,3.31604,-0.0200927,0.220341,0.772582
1441,61,3.31805,-0.0142209,0.21849,0.771834
1443,59,3.31712,-0.0150204,0.218925,0.771298
1445,57,3.31714,-0.0137572,0.21848,0.770739
1447,55,3.31532,-0.0158054,0.219358,0.769508
1449,53,3.31581,-0.0165001,0.218915,0.769468
1451,51,3.31751,-0.0107706,0.217505,0.768432
1453,49,3.31651,-0.0116851,0.217944,0.767851
1455,47,3.31578,-0.0214656,0.217943,0.76755
1457,45,3.31458,-0.0233138,0.218383,0.766633
1459,43,3.31729,-0.0197735,0.216975,0.766036
1461,41,3.31629,-0.0185086,0.216969,0.765251
1463,39,3.31576,-0.0180382,0.216973,0.764186
1465,37,3.31521,-0.0163614,0.216528,0.763772
1467,35,3.31705,-0.0131002,0.215554,0.76283
1469,33,3.3167,-0.0139787,0.215552,0.762492
1471,31,3.31543,-0.0150295,0.21599,0.761871
1473,29,3.31554,-0.0144034,0.216139,0.761067
1475,27,3.31659,-0.0198185,0.214571,0.760036
1477,25,3.31639,-0.0207404,0.214568,0.759893
1479,23,3.31539,-0.0193804,0.214567,0.759138
1481,21,3.31489,-0.0203209,0.214563,0.758785
1483,19,3.31702,-0.0177701,0.21418,0.757578
1485,17,3.31556,-0.0187132,0.214025,0.756998
1487,15,3.31579,-0.0172039,0.213583,0.756529
1489,13,3.31513,-0.0157841,0.213147,0.756025
1491,11,3.31662,-0.0110028,0.212169,0.754625
1493,9,3.31642,-0.0119527,0.21217,0.754033
1495,7,3.31508,-0.0129086,0.212605,0.75346
1497,5,3.31509,-0.013871,0.212606,0.753113
1499,3,3.31705,-0.0109637,0.211187,0.752247