File: hust_correlation_analysis/matrices/HUST_8-5_cycle_feature_matrix.csv
cycle_number,rul,voltage,current,capacity,charge_capacity
1,1350,3.30959,-0.00828898,0.343781,1.02728
3,1348,3.29903,-0.00875674,0.349035,1.02256
5,1346,3.29863,-0.00920908,0.349148,1.02232
7,1344,3.29833,-0.00978711,0.349033,1.02192
9,1342,3.29854,-0.01045,0.349027,1.0215
11,1340,3.30042,-0.00808899,0.347925,1.02096
13,1338,3.30074,-0.00858831,0.347463,1.02081
15,1336,3.3003,-0.00861363,0.347459,1.02079
17,1334,3.30064,-0.00923096,0.347457,1.02042
19,1332,3.30073,-0.00925355,0.347463,1.02042
21,1330,3.30052,-0.00981959,0.347462,1.02006
23,1328,3.30012,-0.00987121,0.347465,1.02005
25,1326,3.30054,-0.0103287,0.347006,1.01992
27,1324,3.30047,-0.0102385,0.346982,1.01993
29,1322,3.30176,-0.00809715,0.346336,1.01908
31,1320,3.30202,-0.00812607,0.34588,1.01922
33,1318,3.30223,-0.00806169,0.345882,1.01927
35,1316,3.30176,-0.00866033,0.346324,1.01871
37,1314,3.30206,-0.00862642,0.345968,1.01888
39,1312,3.30205,-0.00861905,0.345858,1.01886
41,1310,3.30154,-0.00927568,0.346308,1.01827
43,1308,3.3015,-0.00926429,0.346303,1.01829
45,1306,3.30127,-0.00929023,0.346302,1.01826
47,1304,3.30128,-0.00990808,0.346302,1.01786
49,1302,3.30125,-0.00970504,0.346282,1.01796
51,1300,3.30113,-0.0104392,0.346284,1.0175
53,1298,3.30073,-0.0104946,0.346295,1.01745
55,1296,3.30073,-0.0105671,0.346308,1.01772
57,1294,3.30263,-0.00812627,0.345196,1.01694
59,1292,3.30245,-0.00814892,0.345191,1.01693
61,1290,3.30229,-0.00813031,0.345185,1.01692
63,1288,3.30248,-0.00817709,0.345188,1.01691
65,1286,3.30275,-0.00871081,0.345262,1.01654
67,1284,3.30256,-0.0087529,0.345182,1.01654
69,1282,3.30242,-0.00924977,0.345182,1.0162
71,1280,3.30231,-0.00946538,0.345186,1.0161
73,1278,3.30257,-0.00985374,0.345551,1.01587
75,1276,3.30238,-0.00989638,0.345194,1.01585
77,1274,3.30259,-0.00986419,0.344741,1.01603
79,1272,3.30235,-0.00977265,0.344732,1.01606
81,1270,3.30225,-0.010486,0.345186,1.01546
83,1268,3.30198,-0.0104783,0.345179,1.01545
85,1266,3.30175,-0.0105063,0.345181,1.01542
87,1264,3.30158,-0.0104793,0.345181,1.01544
89,1262,3.30313,-0.00817535,0.344534,1.01468
91,1260,3.30314,-0.00815028,0.344437,1.01487
93,1258,3.30333,-0.00821394,0.34409,1.01487
95,1256,3.30332,-0.00877284,0.344094,1.01451
97,1254,3.30325,-0.00876346,0.344103,1.01454
99,1252,3.30297,-0.00876627,0.344098,1.01428
101,1250,3.30331,-0.00930285,0.344093,1.01445
103,1248,3.30324,-0.00930887,0.34409,1.01417
105,1246,3.30306,-0.00924809,0.344088,1.01421
107,1244,3.30295,-0.00928479,0.34408,1.01417
109,1242,3.30365,-0.00927533,0.343627,1.01434
111,1240,3.3032,-0.0098751,0.344087,1.0138
113,1238,3.30292,-0.00992205,0.344088,1.01379
115,1236,3.30274,-0.00983834,0.34408,1.01382
117,1234,3.30263,-0.0104825,0.344091,1.01344
119,1232,3.30269,-0.0104391,0.344095,1.01349
121,1230,3.30254,-0.0104942,0.344096,1.01346
123,1228,3.30235,-0.0104989,0.344086,1.01343
125,1226,3.30444,-0.00810817,0.342987,1.01289
127,1224,3.30378,-0.00822505,0.343446,1.01266
129,1222,3.3041,-0.00814613,0.342986,1.01285
131,1220,3.30378,-0.00813396,0.342987,1.01313
133,1218,3.30399,-0.00812788,0.342988,1.01288
135,1216,3.30366,-0.00877349,0.343446,1.01231
137,1214,3.30346,-0.00885033,0.343546,1.01228
139,1212,3.30394,-0.00877082,0.342992,1.0125
141,1210,3.30392,-0.00928917,0.343008,1.0122
143,1208,3.30339,-0.00933325,0.343461,1.01202
145,1206,3.30372,-0.00926617,0.343005,1.01221
147,1204,3.30362,-0.00992941,0.343465,1.01165
149,1202,3.30405,-0.00986551,0.343001,1.01184
151,1200,3.30335,-0.00988388,0.343452,1.01166
153,1198,3.30322,-0.00995161,0.34346,1.01162
155,1196,3.30355,-0.00985783,0.343002,1.01183
157,1194,3.30339,-0.0104586,0.343458,1.01129
159,1192,3.30319,-0.0105208,0.343472,1.01107
161,1190,3.3028,-0.0105119,0.343464,1.01128
163,1188,3.30516,-0.00751571,0.341918,1.01131
165,1186,3.30477,-0.00805314,0.342377,1.01081
167,1184,3.30482,-0.00816271,0.342374,1.01075
169,1182,3.30413,-0.00816724,0.342377,1.01073
171,1180,3.30434,-0.00820101,0.34238,1.01074
173,1178,3.30459,-0.00813511,0.342379,1.01078
175,1176,3.3045,-0.00873773,0.342373,1.01038
177,1174,3.30431,-0.00885221,0.342378,1.01032
179,1172,3.30427,-0.00877386,0.342382,1.01038
181,1170,3.30422,-0.00876462,0.34238,1.01039
183,1168,3.30404,-0.00871364,0.342373,1.01041
185,1166,3.30424,-0.00939749,0.342385,1.00998
187,1164,3.30437,-0.00925086,0.34237,1.01005
189,1162,3.30442,-0.00917828,0.342452,1.01006
191,1160,3.30424,-0.00939796,0.34236,1.00994
193,1158,3.30408,-0.00938386,0.342363,1.00995
195,1156,3.30421,-0.00933169,0.342446,1.00999
197,1154,3.30423,-0.00993488,0.342363,1.00961
199,1152,3.30401,-0.00985531,0.342353,1.00964
201,1150,3.30406,-0.00998117,0.342367,1.00959
203,1148,3.30394,-0.00997135,0.342722,1.00959
205,1146,3.30429,-0.009829,0.3419,1.00982
207,1144,3.30369,-0.00995209,0.342371,1.0096
209,1142,3.3038,-0.0104823,0.342362,1.00926
211,1140,3.30346,-0.0104857,0.342469,1.00927
213,1138,3.30343,-0.0105247,0.34237,1.00925
215,1136,3.30322,-0.0105247,0.342367,1.00925
217,1134,3.30381,-0.0104885,0.341911,1.00942
219,1132,3.30543,-0.00818844,0.341264,1.00866
221,1130,3.30532,-0.00816285,0.341254,1.00866
223,1128,3.30525,-0.00815081,0.341247,1.00862
225,1126,3.30543,-0.00814261,0.341236,1.00886
227,1124,3.30537,-0.00820559,0.341233,1.00857
229,1122,3.30486,-0.00760432,0.341221,1.0089
231,1120,3.30559,-0.00816646,0.34121,1.00853
233,1118,3.30508,-0.00819754,0.34175,1.00831
235,1116,3.30556,-0.00798685,0.341193,1.0086
237,1114,3.30496,-0.0082195,0.341215,1.0085
239,1112,3.3051,-0.00825298,0.341211,1.00849
241,1110,3.30512,-0.00871455,0.341211,1.00818
243,1108,3.30502,-0.00876702,0.341677,1.00812
245,1106,3.30491,-0.00877629,0.341206,1.00812
247,1104,3.30483,-0.00877728,0.341213,1.00813
249,1102,3.30465,-0.00875492,0.34156,1.00813
251,1100,3.30447,-0.00884421,0.341203,1.00807
253,1098,3.30446,-0.0094518,0.341215,1.00772
255,1096,3.30487,-0.0093528,0.340763,1.00796
257,1094,3.30462,-0.0100168,0.341221,1.00741
259,1092,3.30439,-0.01004,0.341154,1.00739
261,1090,3.30476,-0.0099468,0.340771,1.00761
263,1088,3.30497,-0.00988216,0.340764,1.00764
265,1086,3.30479,-0.00990226,0.340759,1.00761
267,1084,3.30479,-0.010049,0.340755,1.0075
269,1082,3.30485,-0.0104929,0.340759,1.00722
271,1080,3.30482,-0.0104741,0.34076,1.00724
273,1078,3.30418,-0.0106251,0.341215,1.007
275,1076,3.30435,-0.0105728,0.340765,1.00721
277,1074,3.30631,-0.00820892,0.339773,1.0067
279,1072,3.30621,-0.00817156,0.339691,1.00673
281,1070,3.30599,-0.00822895,0.339687,1.00668
283,1068,3.30598,-0.00820563,0.339681,1.00669
285,1066,3.30593,-0.00818764,0.339675,1.00669
287,1064,3.30578,-0.00823425,0.339678,1.00667
289,1062,3.30583,-0.00881034,0.339745,1.00626
291,1060,3.30596,-0.00877739,0.339666,1.00629
293,1058,3.30586,-0.00882441,0.339666,1.00624
295,1056,3.30559,-0.00882185,0.339665,1.00625
297,1054,3.30556,-0.00886727,0.339662,1.00491
299,1052,3.30627,-0.00933429,0.339223,1.00612
301,1050,3.30623,-0.00933277,0.339232,1.00613
303,1048,3.30552,-0.00944476,0.33968,1.00591
305,1046,3.305582,-0.00944251,0.339679,1.00591
307,1044,3.30621,-0.00989517,0.339225,1.00576
309,1042,3.30603,-0.00990328,0.339233,1.00577
311,1040,3.30534,-0.0100261,0.339683,1.00555
313,1038,3.305202,-0.0100078,0.339673,1.00554
315,1036,3.30569,-0.00993678,0.339291,1.00572
317,1034,3.30554,-0.00989386,0.339215,1.00574
319,1032,3.30519,-0.0106135,0.339679,1.00515
321,1030,3.30494,-0.0106611,0.33967,1.00512
323,1028,3.3053,-0.0104874,0.339238,1.00542
325,1026,3.30666,-0.00831223,0.338602,1.00462
327,1024,3.30706,-0.0082327,0.338148,1.00482
329,1022,3.30691,-0.00821283,0.338152,1.00483
331,1020,3.30707,-0.00819277,0.338159,1.00487
333,1018,3.30683,-0.00822063,0.338144,1.00481
335,1016,3.30708,-0.00827356,0.33814,1.00479
337,1014,3.3072,-0.00874954,0.338138,1.00448
339,1012,3.30702,-0.00874262,0.338133,1.00447
341,1010,3.30683,-0.00885113,0.338137,1.00438
343,1008,3.30738,-0.00878575,0.337698,1.00324
345,1006,3.30688,-0.00937393,0.338228,1.00409
347,1004,3.30677,-0.00939698,0.338146,1.00408
349,1002,3.30654,-0.00940966,0.338155,1.00409
351,1000,3.30711,-0.009298,0.337699,1.0043
353,998,3.30667,-0.00991591,0.338154,1.00376
355,996,3.30641,-0.00996674,0.338153,1.00372
357,994,3.30613,-0.009986852,0.338145,1.00371
359,992,3.3061,-0.00996518,0.338154,1.00374
361,990,3.30664,-0.00993818,0.337693,1.00389
363,988,3.3063,-0.0105303,0.338142,1.00334
365,986,3.30613,-0.0106035,0.338154,1.00331
367,984,3.30597,-0.0105005,0.338146,1.00339
369,982,3.308,-0.0082163,0.337066,1.0028
371,980,3.30795,-0.00822209,0.337071,1.00281
373,978,3.30788,-0.00824208,0.337069,1.00279
375,976,3.30814,-0.0081242,0.336616,1.00302
377,974,3.30774,-0.00877768,0.337065,1.00245
379,972,3.30774,-0.00878056,0.337063,1.00244
381,970,3.30811,-0.00870267,0.336604,1.00261
383,968,3.30785,-0.00872703,0.336602,1.0026
385,966,3.30754,-0.00878036,0.336607,1.00257
387,964,3.30773,-0.00873165,0.337072,1.00259
389,962,3.30741,-0.00941257,0.337059,1.00204
391,960,3.30708,-0.00935696,0.337066,1.00209
393,958,3.30718,-0.00995035,0.337138,1.0017
395,956,3.30711,-0.00999129,0.337073,1.00169
397,954,3.30748,-0.00986399,0.336536,1.00193
399,952,3.30737,-0.00991758,0.33662,1.00189
401,950,3.30757,-0.0103694,0.336627,1.00162
403,948,3.30703,-0.010489,0.337076,1.00139
405,946,3.3069,-0.0105404,0.337078,1.00137
407,944,3.30862,-0.00763881,0.335983,1.00114
409,942,3.30878,-0.00821686,0.335982,1.00077
411,940,3.30906,-0.00813736,0.335524,1.00095
413,938,3.30834,-0.00827721,0.335983,1.00073
415,936,3.309,-0.0086811,0.335539,1.00063
417,934,3.30842,-0.00882039,0.336003,1.00044
419,932,3.30813,-0.00876824,0.336012,1.00049
421,930,3.30789,-0.00878168,0.335999,1.00046
423,928,3.30796,-0.00878385,0.335987,1.00043
425,926,3.30808,-0.00939886,0.336083,1.00001
427,924,3.30778,-0.00939307,0.335981,1
429,922,3.30752,-0.00939273,0.335971,1.00025
431,920,3.30805,-0.0093231,0.335526,1.00018
433,918,3.30789,-0.00996585,0.335973,0.999625
435,916,3.30776,-0.0100103,0.335975,0.999342
437,914,3.30796,-0.00985492,0.335521,0.999829
439,912,3.30774,-0.0105059,0.335966,0.99927
441,910,3.30761,-0.0105162,0.335972,0.999259
443,908,3.30748,-0.0105543,0.335971,0.999245
445,906,3.30971,-0.00750357,0.334429,0.999275
447,904,3.30904,-0.00824956,0.334883,0.998634
449,902,3.30883,-0.00820278,0.334501,0.998651
451,900,3.3089,-0.00827552,0.334879,0.998612
453,898,3.30845,-0.00881882,0.33532,0.998092
455,896,3.30863,-0.00879309,0.334869,0.998246
457,894,3.30847,-0.00885948,0.334964,0.998197
459,892,3.30856,-0.00876977,0.335219,0.998296
461,890,3.30853,-0.00943815,0.334882,0.997874
463,888,3.30822,-0.00942811,0.334878,0.997873
465,886,3.30844,-0.0100246,0.33489,0.997517
467,884,3.30835,-0.00993586,0.334964,0.997574
469,882,3.30876,-0.00992017,0.33444,0.997731
471,880,3.30808,-0.00998252,0.334876,0.997514
473,878,3.30832,-0.0105583,0.33488,0.997154
475,876,3.30819,-0.0105136,0.334873,0.997161
477,874,3.3079,-0.0105847,0.334873,0.997114
479,872,3.30945,-0.00824046,0.334234,0.996407
481,870,3.30965,-0.00821588,0.333792,0.996568
483,868,3.30956,-0.00822316,0.333802,0.996602
485,866,3.30911,-0.00890914,0.334254,0.99602
487,864,3.30952,-0.00879413,0.333802,0.996492
489,862,3.30946,-0.0087695,0.333793,0.996238
491,860,3.30884,-0.00938191,0.334241,0.995694
493,858,3.30847,-0.00943919,0.334233,0.995626
495,856,3.3089,-0.0093539,0.333843,0.99581
497,854,3.30898,-0.00943595,0.333784,0.995774
499,852,3.30845,-0.0100798,0.334234,0.995208
501,850,3.30841,-0.0100348,0.334222,0.99521
503,848,3.30836,-0.0100627,0.334226,0.995194
505,846,3.30845,-0.0106387,0.33423,0.994838
507,844,3.30858,-0.0105865,0.33379,0.995048
509,842,3.30997,-0.00825172,0.333165,0.994332
511,840,3.31048,-0.00814862,0.332723,0.994832
513,838,3.3102,-0.00815189,0.332711,0.994545
515,836,3.30993,-0.00887317,0.333155,0.993933
517,834,3.31022,-0.00878613,0.332698,0.994118
519,832,3.3094,-0.00881012,0.333143,0.993947
521,830,3.30929,-0.00885796,0.333146,0.993907
523,828,3.30897,-0.00948149,0.333593,0.993362
525,826,3.30918,-0.00938946,0.333141,0.993566
527,824,3.30912,-0.00944405,0.333144,0.993544
529,822,3.30847,-0.0101244,0.333618,0.99299
531,820,3.30916,-0.0100271,0.333176,0.993507
533,818,3.30864,-0.0107007,0.333626,0.992663
535,816,3.30892,-0.0105401,0.333177,0.992924
537,814,3.31047,-0.0076487,0.332094,0.992708
539,812,3.31073,-0.00819228,0.332094,0.99234
541,810,3.31019,-0.00822997,0.332536,0.992156
543,808,3.3101,-0.00886931,0.332531,0.991737
545,806,3.31037,-0.00884489,0.332095,0.991912
547,804,3.31029,-0.00883197,0.332091,0.991941
549,802,3.31004,-0.00939558,0.33289,0.991424
551,800,3.30955,-0.00949391,0.332537,0.991346
553,798,3.30945,-0.00940652,0.332538,0.991422
555,796,3.30936,-0.0100148,0.332542,0.991028
557,794,3.30878,-0.0100435,0.332991,0.990856
559,792,3.30902,-0.0100516,0.332147,0.991012
561,790,3.30889,-0.0105948,0.332644,0.990659
563,788,3.30878,-0.010545,0.332542,0.990683
565,786,3.31017,-0.00838267,0.331904,0.989765
567,784,3.31063,-0.00819414,0.331459,0.990363
569,782,3.31054,-0.00823721,0.331459,0.990095
571,780,3.31023,-0.0088081,0.331463,0.989721
573,778,3.31016,-0.00881076,0.331459,0.989722
575,776,3.31055,-0.00932908,0.331467,0.989404
577,774,3.31044,-0.00942542,0.331466,0.989344
579,772,3.30988,-0.0100585,0.331916,0.988789
581,770,3.30958,-0.0100708,0.331913,0.988775
583,768,3.30949,-0.0100803,0.33191,0.988762
585,766,3.30954,-0.0106636,0.331913,0.98837
587,764,3.30923,-0.010618,0.331902,0.988389
589,762,3.30909,-0.010692,0.331906,0.988348
591,760,3.31106,-0.00823827,0.330812,0.987802
593,758,3.31087,-0.00822499,0.331169,0.987835
595,756,3.31065,-0.00833315,0.330819,0.987767
597,754,3.31017,-0.00893714,0.331265,0.987215
599,752,3.3105,-0.00886079,0.330818,0.98741
601,750,3.31044,-0.00888931,0.330814,0.987387
603,748,3.30988,-0.00944588,0.331258,0.986872
605,746,3.31004,-0.009561,0.330815,0.986965
607,744,3.30965,-0.0101282,0.331266,0.986457
609,742,3.30941,-0.0101533,0.331261,0.98642
611,740,3.30963,-0.010712,0.331731,0.986063
613,738,3.30922,-0.0107641,0.331263,0.986025
615,736,3.31105,-0.00822049,0.330171,0.985553
617,734,3.31094,-0.00829594,0.330174,0.985501
619,732,3.31094,-0.00833093,0.330169,0.985478
621,730,3.31107,-0.00902128,0.330171,0.985027
623,728,3.31077,-0.00885364,0.330172,0.985145
625,726,3.31046,-0.00959905,0.330625,0.984527
627,724,3.31042,-0.00955594,0.33062,0.984546
629,722,3.31063,-0.0101131,0.330174,0.984325
631,720,3.30996,-0.0100975,0.330617,0.984182
633,718,3.30976,-0.0107245,0.330621,0.98379
635,716,3.31148,-0.00774006,0.329536,0.983599
637,714,3.3115,-0.00829481,0.329628,0.983226
639,712,3.31057,-0.00835969,0.329982,0.983051
641,710,3.31053,-0.00896769,0.329983,0.982653
643,708,3.3105,-0.00893926,0.329986,0.982669
645,706,3.31012,-0.00957243,0.330431,0.982119
647,704,3.31022,-0.00955307,0.33,0.982302
649,702,3.30967,-0.0102116,0.330447,0.981743
651,700,3.31002,-0.0101283,0.329987,0.981936
653,698,3.31014,-0.0106846,0.329981,0.982975
655,696,3.31143,-0.00778625,0.328895,0.981318
657,694,3.31136,-0.00830619,0.328911,0.980998
659,692,3.31106,-0.00892671,0.329355,0.980449
661,690,3.31091,-0.00892748,0.329355,0.980447
663,688,3.31111,-0.00886123,0.328906,0.980631
665,686,3.3105,-0.00950719,0.329359,0.980069
667,684,3.31038,-0.00948728,0.329346,0.980069
669,682,3.31038,-0.0101252,0.32933,0.979839
671,680,3.30986,-0.0101976,0.329789,0.979446
673,678,3.30989,-0.0107611,0.329789,0.979062
675,676,3.30951,-0.0107555,0.329786,0.979047
677,674,3.31081,-0.00852096,0.329171,0.97827
679,672,3.3108,-0.00904953,0.329159,0.977911
681,670,3.31109,-0.00875599,0.328708,0.978244
683,668,3.31066,-0.00960878,0.329161,0.977559
685,666,3.31073,-0.00955548,0.328714,0.977732
687,664,3.31016,-0.0102507,0.329252,0.977137
689,662,3.31035,-0.0102085,0.328708,0.977309
691,660,3.31016,-0.0107101,0.329147,0.976753
693,658,3.30994,-0.0108844,0.329154,0.976694
695,656,3.31102,-0.00842657,0.32852,0.976036
697,654,3.31127,-0.00844178,0.328079,0.976175
699,652,3.31084,-0.00896022,0.32852,0.975669
701,650,3.31043,-0.0099424,0.32897,0.974893
703,648,3.31042,-0.00965406,0.328529,0.975244
705,646,3.31001,-0.0101921,0.329445,0.974749
707,644,3.3093,-0.0109056,0.329431,0.974154
709,642,3.31119,-0.00788385,0.327888,0.974087
711,640,3.31132,-0.00837806,0.327986,0.973784
713,638,3.31113,-0.00841567,0.32788,0.973746
715,636,3.3106,-0.00896296,0.328333,0.973245
717,634,3.31033,-0.00915375,0.328336,0.97312
719,632,3.3102,-0.00976217,0.328339,0.972731
721,630,3.31012,-0.0102895,0.328331,0.972382
723,628,3.30991,-0.0103484,0.32834,0.972353
725,626,3.30965,-0.0109069,0.328401,0.971981
727,624,3.3115,-0.00848389,0.327253,0.971412
729,622,3.31137,-0.00842423,0.327241,0.971432
731,620,3.3109,-0.0091255,0.327685,0.970801
733,618,3.31064,-0.00910205,0.327677,0.97079
735,616,3.31049,-0.00979213,0.327769,0.97034
737,614,3.31008,-0.0103817,0.328133,0.969824
739,612,3.3103,-0.0102934,0.327672,0.970007
741,610,3.30962,-0.0111452,0.328147,0.969361
743,608,3.31136,-0.00854624,0.327059,0.968905
745,606,3.31124,-0.00854717,0.327077,0.968945
747,604,3.31101,-0.00910118,0.327383,0.968554
749,602,3.31045,-0.00980859,0.327526,0.967971
751,600,3.31074,-0.00976851,0.32706,0.968112
753,598,3.3101,-0.0103686,0.327532,0.967577
755,596,3.31021,-0.00937483,0.327051,0.967054
757,594,3.31187,-0.00640045,0.325961,0.966811
759,592,3.31121,-0.00711195,0.326482,0.966214
761,590,3.31097,-0.0137391,0.326419,0.965907
763,588,3.31129,-0.0136402,0.325963,0.966108
765,586,3.3108,-0.0128285,0.32597,0.965367
767,584,3.30994,-0.0150492,0.326883,0.964952
769,582,3.31014,-0.0140898,0.326434,0.964441
771,580,3.31221,-0.0108551,0.324884,0.964497
773,578,3.31191,-0.0100031,0.324895,0.963782
775,576,3.31165,-0.0107136,0.324899,0.963326
777,574,3.31173,-0.00901595,0.324415,0.963275
779,572,3.31193,-0.00816433,0.323989,0.96267
781,570,3.31103,-0.0103549,0.324886,0.962247
783,568,3.31099,-0.00941825,0.324438,0.96171
785,566,3.31285,-0.00630227,0.323356,0.961576
787,564,3.31208,-0.00858067,0.324262,0.961123
789,562,3.311375,-0.0137889,0.324263,0.960448
791,560,3.31154,-0.00763088,0.324278,0.960602
793,558,3.31135,-0.0143119,0.323809,0.960236
795,556,3.31089,-0.0149485,0.324272,0.959703
797,554,3.3108,-0.0140146,0.323808,0.959137
799,552,3.3123,-0.0063807,0.323181,0.959083
801,550,3.31177,-0.0116017,0.323178,0.958412
803,548,3.31198,-0.0107095,0.322737,0.957861
805,546,3.31189,-0.0107043,0.322274,0.957963
807,544,3.31129,-0.0113632,0.322729,0.957415
809,542,3.31146,-0.0103565,0.322274,0.956903
811,540,3.31113,-0.0094724,0.322617,0.954693
813,538,3.31217,-0.00710481,0.321656,0.955447
815,536,3.31219,-0.00856064,0.321634,0.955744
817,534,3.31219,-0.00761101,0.321202,0.955242
819,532,3.31125,-0.0143816,0.321647,0.954722
821,530,3.31055,-0.0150333,0.322092,0.954418
823,528,3.31089,-0.0150498,0.32165,0.954304
825,526,3.31276,-0.0108762,0.320111,0.953652
827,524,3.31263,-0.010035,0.31967,0.953043
829,522,3.31199,-0.010703,0.320107,0.952706
831,520,3.31194,-0.0112438,0.320113,0.952112
833,518,3.31208,-0.0081733,0.319221,0.951799
835,516,3.31149,-0.0103555,0.3201,0.95137
837,514,3.31126,-0.0119983,0.320442,0.951598
839,512,3.31316,-0.00786832,0.31858,0.950963
841,510,3.31283,-0.00696986,0.318581,0.950267
843,508,3.31212,-0.00760553,0.319019,0.949702
845,506,3.31191,-0.0143022,0.319038,0.949392
847,504,3.3115,-0.0149562,0.319032,0.948971
849,502,3.31084,-0.0156505,0.319475,0.948373
851,500,3.31225,-0.0117526,0.318744,0.94744
853,498,3.31262,-0.0116813,0.317955,0.947623
855,496,3.31233,-0.0122213,0.317949,0.947265
857,494,3.31187,-0.0113164,0.317944,0.946539
859,492,3.31119,-0.0120084,0.318394,0.945745
861,490,3.31159,-0.0119995,0.317951,0.946124
863,488,3.31337,-0.0070692,0.316438,0.944708
865,486,3.31242,-0.00915951,0.317331,0.944394
867,484,3.31218,-0.00824576,0.316974,0.943803
869,482,3.31259,-0.00820638,0.316437,0.94396
871,480,3.31202,-0.00889117,0.316885,0.943401
873,478,3.31108,-0.0141238,0.316881,0.942716
875,476,3.31275,-0.0132576,0.316248,0.942259
877,474,3.31289,-0.0106938,0.315361,0.941599
879,472,3.31257,-0.0112824,0.315358,0.941215
881,470,3.31142,-0.0130109,0.316242,0.941117
883,468,3.31214,-0.0118372,0.315336,0.940801
885,466,3.31154,-0.0126495,0.315797,0.940192
887,464,3.3129,-0.00858356,0.314731,0.939366
889,462,3.31282,-0.0076275,0.314293,0.938823
891,460,3.31277,-0.00824036,0.314283,0.938418
893,458,3.31184,-0.0150836,0.314732,0.937894
895,456,3.31144,-0.0156198,0.314724,0.937519
897,454,3.31324,-0.00647645,0.313659,0.937259
899,452,3.31305,-0.011619,0.313214,0.936771
901,450,3.31246,-0.0122952,0.313646,0.936198
903,448,3.31235,-0.0129543,0.313652,0.935772
905,446,3.31174,-0.0136219,0.314093,0.935222
907,444,3.31161,-0.0126011,0.313638,0.934668
909,442,3.3128,-0.0101765,0.313012,0.93392
911,440,3.31226,-0.0109075,0.313464,0.933353
913,438,3.31219,-0.00987698,0.313017,0.933104
915,436,3.312,-0.00889714,0.312574,0.932293
917,434,3.31102,-0.00961251,0.313016,0.931713
919,432,3.31301,-0.00715425,0.311963,0.931157
921,430,3.31265,-0.013868,0.312295,0.930855
923,428,3.31185,-0.0145433,0.312397,0.928815
925,426,3.31168,-0.013583,0.311965,0.929763
927,424,3.31156,-0.0142373,0.311961,0.929344
929,422,3.31307,-0.0101338,0.310892,0.928486
931,420,3.3131,-0.0101065,0.310449,0.928638
933,418,3.31238,-0.00992729,0.310901,0.927348
935,416,3.31213,-0.0104256,0.310905,0.927044
937,414,3.3118,-0.0110496,0.310902,0.926898
939,412,3.31305,-0.00706015,0.309835,0.92571
941,410,3.31275,-0.0139443,0.309833,0.925248
943,408,3.31272,-0.0144741,0.310283,0.924989
945,406,3.31182,-0.015163,0.310274,0.924428
947,404,3.31087,-0.0144452,0.31027,0.923578
949,402,3.31388,-0.00846765,0.307883,0.923007
951,400,3.31281,-0.0108285,0.308764,0.922542
953,398,3.31192,-0.0114626,0.309196,0.921995
955,396,3.31193,-0.0120658,0.309187,0.921608
957,394,3.31375,-0.00641029,0.307249,0.920695
959,392,3.31343,-0.00699827,0.307265,0.92037
961,390,3.3126,-0.0139599,0.307794,0.919821
963,388,3.31253,-0.0145613,0.30771,0.919448
965,386,3.31235,-0.0135296,0.30726,0.918896
967,384,3.31347,-0.0110519,0.30663,0.918174
969,382,3.31322,-0.0133662,0.307078,0.917905
971,380,3.31285,-0.0124043,0.307063,0.91716
973,378,3.31236,-0.0114852,0.306958,0.916596
975,376,3.31199,-0.0120274,0.306626,0.91624
977,374,3.31341,-0.00804223,0.305563,0.915306
979,372,3.31328,-0.00862131,0.305554,0.914904
981,370,3.31244,-0.00939295,0.30599,0.914295
983,368,3.31195,-0.0153243,0.305997,0.913247
985,366,3.31176,-0.0158615,0.306045,0.912919
987,364,3.31349,-0.0117949,0.304497,0.912138
989,362,3.31244,-0.0141402,0.305373,0.911707
991,360,3.31253,-0.0130942,0.304926,0.911184
993,358,3.3124,-0.0120984,0.304493,0.910623
995,356,3.3137,-0.00808252,0.303432,0.909696
997,354,3.31315,-0.0101589,0.304186,0.909526
999,352,3.31266,-0.00932922,0.303864,0.908779
1001,350,3.3125,-0.00836757,0.303427,0.908203
1003,348,3.31186,-0.00964805,0.303855,0.907248
1005,346,3.31338,-0.0133544,0.302776,0.906737
1007,344,3.31286,-0.0124947,0.302799,0.906001
1009,342,3.31251,-0.0131464,0.302808,0.905599
1011,340,3.31184,-0.0139584,0.303247,0.904993
1013,338,3.3137,-0.0102117,0.301761,0.904017
1015,336,3.31323,-0.00930977,0.301754,0.903255
1017,334,3.31257,-0.0115504,0.30218,0.903008
1019,332,3.31206,-0.01067,0.302184,0.902275
1021,330,3.31341,-0.00805009,0.301123,0.901738
1023,328,3.31305,-0.00717706,0.301119,0.900977
1025,326,3.3132,-0.0140536,0.300688,0.900797
1027,324,3.31226,-0.0137781,0.30112,0.899528
1029,322,3.31379,-0.011226,0.300148,0.898954
1031,320,3.31315,-0.0120118,0.300501,0.89836
1033,318,3.31259,-0.0115706,0.300508,0.897353
1035,316,3.31235,-0.0105674,0.300071,0.896797
1037,314,3.31354,-0.00812964,0.299459,0.896037
1039,312,3.31337,-0.00873578,0.299542,0.895658
1041,310,3.31246,-0.0093669,0.299883,0.895384
1043,308,3.31189,-0.00907533,0.299882,0.894003
1045,306,3.31186,-0.0159673,0.29944,0.893816
1047,304,3.31329,-0.0119442,0.298396,0.892869
1049,302,3.31217,-0.0142515,0.299257,0.89247
1051,300,3.31204,-0.0132941,0.298821,0.891895
1053,298,3.31148,-0.0128854,0.298907,0.890841
1055,296,3.31326,-0.00865718,0.297277,0.890118
1057,294,3.31246,-0.00940974,0.297772,0.889539
1059,292,3.31245,-0.0083857,0.297335,0.888988
1061,290,3.31159,-0.00967991,0.297772,0.888069
1063,288,3.31263,-0.00722555,0.297155,0.887308
1065,286,3.31245,-0.00780995,0.297147,0.887198
1067,284,3.31177,-0.0148373,0.297148,0.886569
1069,282,3.31294,-0.0113352,0.296101,0.885273
1071,280,3.31251,-0.0120895,0.296423,0.884954
1073,278,3.31222,-0.012675,0.296536,0.884345
1075,276,3.3113,-0.0107313,0.296538,0.882925
1077,274,3.31272,-0.00821972,0.295486,0.882301
1079,272,3.31243,-0.00880506,0.295486,0.88195
1081,270,3.31144,-0.00859843,0.296246,0.879119
1083,268,3.31069,-0.0156344,0.29592,0.880315
1085,266,3.31251,-0.0114642,0.294436,0.879531
1087,264,3.31232,-0.0110621,0.294438,0.878477
1089,262,3.31129,-0.0117307,0.294869,0.877933
1091,260,3.31065,-0.0114557,0.294871,0.877044
1093,258,3.31261,-0.00718759,0.293391,0.876069
1095,256,3.31237,-0.00789325,0.293393,0.875643
1097,254,3.31133,-0.00855663,0.294137,0.875101
1099,252,3.31066,-0.00991429,0.294246,0.874142
1101,250,3.31218,-0.0121174,0.292768,0.873422
1103,248,3.31165,-0.0117105,0.292767,0.872377
1105,246,3.31082,-0.0124505,0.293204,0.871802
1107,244,3.3126,-0.00986128,0.292154,0.871223
1109,242,3.31213,-0.0078773,0.291726,0.869955
1111,240,3.31158,-0.0101693,0.292161,0.86976
1113,238,3.31136,-0.00918134,0.291734,0.8692
1115,236,3.31242,-0.0137415,0.291141,0.868126
1117,234,3.31146,-0.0143981,0.291554,0.867593
1119,232,3.31093,-0.0124154,0.291108,0.866266
1121,230,3.31276,-0.00980407,0.290067,0.865964
1123,228,3.3123,-0.0104341,0.29006,0.865316
1125,226,3.31112,-0.0119082,0.290934,0.864199
1127,224,3.31054,-0.0125242,0.291372,0.863822
1129,222,3.31194,-0.00832095,0.289881,0.862878
1131,220,3.31121,-0.0145109,0.289886,0.861831
1133,218,3.3105,-0.015159,0.290213,0.861439
1135,216,3.30968,-0.0164591,0.290319,0.860534
1137,214,3.31167,-0.0104867,0.288412,0.859611
1139,212,3.31121,-0.0101998,0.288414,0.858469
1141,210,3.31029,-0.0109326,0.288448,0.85791
1143,208,3.31207,-0.00837062,0.287812,0.857303
1145,206,3.31223,-0.00786294,0.28737,0.856417
1147,204,3.31084,-0.0151506,0.287804,0.855884
1149,202,3.31007,-0.0148238,0.287803,0.854747
1151,200,3.31167,-0.0105166,0.286757,0.853868
1153,198,3.31076,-0.0119183,0.28719,0.852916
1155,196,3.31023,-0.0125259,0.287185,0.852545
1157,194,3.31194,-0.00997395,0.285868,0.851939
1159,192,3.31156,-0.0095966,0.28615,0.850863
1161,190,3.31088,-0.0085844,0.285707,0.850236
1163,188,3.30967,-0.00999926,0.286569,0.849146
1165,186,3.31134,-0.00735536,0.285559,0.84859
1167,184,3.31066,-0.0145277,0.285538,0.848295
1169,182,3.30967,-0.0125725,0.285522,0.846785
1171,180,3.31126,-0.00993042,0.284481,0.846184
1173,178,3.31074,-0.00962516,0.284899,0.845054
1175,176,3.31064,-0.00862147,0.284053,0.844466
1177,174,3.30981,-0.0093247,0.28479,0.843917
1179,172,3.31128,-0.013943,0.283436,0.842982
1181,170,3.31035,-0.0146525,0.283875,0.842466
1183,168,3.30981,-0.0143683,0.283565,0.841306
1185,166,3.31136,-0.0116565,0.282843,0.840802
1187,164,3.31007,-0.0130884,0.283699,0.839704
1189,162,3.31004,-0.0120231,0.283269,0.839137
1191,160,3.31128,-0.0083902,0.28232,0.837846
1193,158,3.31043,-0.00904398,0.282229,0.83743
1195,156,3.30984,-0.0153891,0.282231,0.836335
1197,154,3.3095,-0.0159917,0.282222,0.835969
1199,152,3.31064,-0.0123339,0.281197,0.83467
1201,150,3.30973,-0.0130974,0.281615,0.834074
1203,148,3.30963,-0.0119428,0.281185,0.833555
1205,146,3.30902,-0.0116664,0.281175,0.832383
1207,144,3.31051,-0.00897368,0.280134,0.832066
1209,142,3.30998,-0.00871315,0.280109,0.830669
1211,140,3.30906,-0.0161528,0.280569,0.830121
1213,138,3.31088,-0.0123953,0.279113,0.828995
1215,136,3.31009,-0.0114965,0.279119,0.828215
1217,134,3.30884,-0.0145992,0.279967,0.827481
1219,132,3.31063,-0.0101231,0.278591,0.826772
1221,130,3.31005,-0.00979204,0.278513,0.825624
1223,128,3.30891,-0.0104975,0.278936,0.825093
1225,126,3.30872,-0.0094002,0.278495,0.824506
1227,124,3.30994,-0.0141382,0.277899,0.823446
1229,122,3.30964,-0.0131852,0.277463,0.822791
1231,120,3.3086,-0.0145176,0.277893,0.821896
1233,118,3.310302,-0.011752,0.276864,0.821365
1235,116,3.30989,-0.0114667,0.276885,0.820226
1237,114,3.30895,-0.0104553,0.276859,0.819471
1239,112,3.30789,-0.0118771,0.277288,0.818543
1241,110,3.30959,-0.00923861,0.276269,0.81797
1243,108,3.30864,-0.0156247,0.27635,0.816891
1245,106,3.30859,-0.0127686,0.275416,0.816129
1247,104,3.30927,-0.0109075,0.275684,0.814833
1249,102,3.30933,-0.0114869,0.27482,0.814629
1251,100,3.30877,-0.0111095,0.274809,0.813509
1253,98,3.30983,-0.0136347,0.273796,0.812546
1255,96,3.30896,-0.0150233,0.274214,0.811616
1257,94,3.30858,-0.0155628,0.27421,0.811309
1259,92,3.30827,-0.0145182,0.273779,0.810702
1261,90,3.30909,-0.0125582,0.273186,0.80959
1263,88,3.30805,-0.0133574,0.273617,0.809019
1265,86,3.30845,-0.0111711,0.27277,0.806541
1267,84,3.30939,-0.00864736,0.272181,0.807106
1269,82,3.30869,-0.00816818,0.272184,0.80605
1271,80,3.30834,-0.0164085,0.272186,0.805291
1273,78,3.30989,-0.013587,0.271158,0.804778
1275,76,3.30903,-0.0124878,0.271169,0.804085
1277,74,3.30837,-0.0122536,0.271159,0.80286
1279,72,3.30781,-0.0129307,0.270824,0.802494
1281,70,3.30868,-0.010244,0.270565,0.801794
1283,68,3.30824,-0.00820473,0.270145,0.800417
1285,66,3.30772,-0.00887912,0.270141,0.800043
1287,64,3.30883,-0.0137025,0.269546,0.79923
1289,62,3.30869,-0.012698,0.26893,0.798341
1291,60,3.30807,-0.0123962,0.269125,0.797184
1293,58,3.30674,-0.0147982,0.269969,0.79693
1295,56,3.30877,-0.0109245,0.26853,0.795802
1297,54,3.30834,-0.00988047,0.26813,0.795235
1299,52,3.30686,-0.00957972,0.268536,0.793919
1301,50,3.30899,-0.00682403,0.267102,0.793499
1303,48,3.30806,-0.012647,0.2671,0.792758
1305,46,3.30706,-0.0140459,0.267513,0.79185
1307,44,3.30635,-0.0147747,0.26751,0.791443
1309,42,3.30846,-0.0102837,0.266091,0.790672
1311,40,3.30784,-0.00991494,0.266088,0.789548
1313,38,3.3073,-0.00882734,0.265746,0.788947
1315,36,3.30647,-0.0102442,0.266085,0.788036
1317,34,3.30809,-0.00756054,0.265077,0.787455
1319,32,3.30685,-0.0139753,0.265078,0.786408
1321,30,3.30603,-0.0131387,0.265095,0.785585
1323,28,3.30811,-0.0102166,0.263668,0.785263
1325,26,3.30771,-0.00813736,0.263262,0.783901
1327,24,3.30628,-0.0158765,0.264101,0.783308
1329,22,3.3062,-0.0102522,0.263657,0.782575
1331,20,3.30748,-0.0143751,0.262648,0.782048
1333,18,3.30598,-0.0152034,0.263077,0.781485
1335,16,3.30533,-0.0148423,0.263061,0.780315
1337,14,3.30468,-0.0138295,0.263065,0.779553
1339,12,3.30702,-0.00919466,0.261231,0.778951
1341,10,3.30594,-0.00898474,0.26164,0.777868
1343,8,3.3054,-0.00968848,0.261641,0.777228
1345,6,3.30672,-0.0120354,0.260244,0.776524
1347,4,3.30599,-0.0134137,0.260245,0.775775
1348,3,3.30551,-0.0134954,0.260251,0.775761