File: hust_correlation_analysis/matrices/HUST_2-8_cycle_feature_matrix.csv
cycle_number,rul,voltage,current,capacity,charge_capacity
1,1483,3.31842,-0.0123935,0.347125,1.02304
3,1481,3.30265,-0.0131587,0.353692,1.01753
5,1479,3.30208,-0.0143243,0.353698,1.01689
7,1477,3.30218,-0.0148008,0.353694,1.01682
9,1475,3.30408,-0.0124352,0.352023,1.01619
11,1473,3.30355,-0.0130541,0.352018,1.01582
13,1471,3.30381,-0.013668,0.352016,1.01548
15,1469,3.30342,-0.0136822,0.352013,1.01548
17,1467,3.3034,-0.014378,0.352015,1.01508
19,1465,3.30357,-0.0149411,0.352013,1.01477
21,1463,3.30383,-0.0148189,0.35152,1.01502
23,1461,3.30298,-0.0155583,0.352015,1.01444
25,1459,3.30449,-0.0125207,0.350845,1.0142
27,1457,3.30513,-0.0130495,0.350345,1.01406
29,1455,3.30508,-0.0130625,0.350335,1.01404
31,1453,3.30575,-0.0136319,0.349836,1.01387
33,1451,3.30581,-0.0136862,0.349838,1.01385
35,1449,3.30559,-0.0137334,0.349833,1.01381
37,1447,3.30542,-0.0142388,0.349825,1.0135
39,1445,3.30532,-0.0142545,0.350306,1.01348
41,1443,3.30476,-0.0150587,0.350306,1.01284
43,1441,3.30503,-0.0149377,0.349818,1.01309
45,1439,3.30516,-0.0149426,0.349809,1.01307
47,1437,3.30493,-0.0155667,0.349809,1.0127
49,1435,3.30461,-0.015505,0.349805,1.01274
51,1433,3.30602,-0.0132136,0.34913,1.01191
53,1431,3.30581,-0.0133502,0.349119,1.0118
55,1429,3.30633,-0.0131498,0.348631,1.01211
57,1427,3.3064,-0.0137172,0.348628,1.01202
59,1425,3.30616,-0.0137344,0.348622,1.01175
61,1423,3.30641,-0.0143168,0.348618,1.01139
63,1421,3.30583,-0.0144453,0.349102,1.01113
65,1419,3.3055,-0.0144411,0.349099,1.01113
67,1417,3.30573,-0.0150718,0.349582,1.01075
69,1415,3.30603,-0.0149599,0.348605,1.011
71,1413,3.30576,-0.0150193,0.3486,1.01094
73,1411,3.30545,-0.0156433,0.349093,1.01043
75,1409,3.30562,-0.0157253,0.348614,1.01085
77,1407,3.30727,-0.0132453,0.347938,1.00988
79,1405,3.30698,-0.0132232,0.347936,1.00988
81,1403,3.30723,-0.0131139,0.34745,1.01013
83,1401,3.30702,-0.0137792,0.347931,1.00956
85,1399,3.30682,-0.01376,0.347926,1.00956
87,1397,3.30667,-0.0138075,0.348007,1.0095
89,1395,3.30683,-0.0137473,0.347429,1.0097
91,1393,3.30664,-0.0144978,0.347914,1.00908
93,1391,3.30653,-0.0144953,0.347913,1.00909
95,1389,3.30675,-0.0159882,0.347893,1.0095
97,1387,3.30677,-0.0150384,0.347922,1.00881
99,1385,3.30657,-0.0149999,0.34793,1.00886
101,1383,3.30633,-0.0150001,0.347934,1.00887
103,1381,3.30643,-0.0155621,0.347932,1.00853
105,1379,3.30615,-0.0156077,0.347928,1.0085
107,1377,3.30603,-0.0156138,0.347925,1.0085
109,1375,3.30605,-0.0156457,0.348024,1.00847
111,1373,3.30815,-0.0131746,0.34675,1.00641
113,1371,3.30786,-0.0131854,0.346751,1.00788
115,1369,3.30756,-0.0131736,0.346749,1.00788
117,1367,3.30742,-0.0131945,0.346746,1.00786
119,1365,3.30721,-0.0138924,0.347234,1.00729
121,1363,3.30748,-0.0137914,0.346754,1.00754
123,1361,3.30759,-0.0137845,0.346763,1.00758
125,1359,3.30749,-0.014439,0.34725,1.00703
127,1357,3.3073,-0.0144519,0.347249,1.00702
129,1355,3.30698,-0.0144289,0.347248,1.00704
131,1353,3.30671,-0.0144561,0.347332,1.00701
133,1351,3.30684,-0.0150046,0.347235,1.00666
135,1349,3.30684,-0.0150689,0.347241,1.00664
137,1347,3.30673,-0.0150959,0.347233,1.0066
139,1345,3.30671,-0.0151141,0.347234,1.0066
141,1343,3.30676,-0.0156697,0.347232,1.00627
143,1341,3.30609,-0.0157514,0.347723,1.00606
145,1339,3.30621,-0.0156821,0.347242,1.00629
147,1337,3.30831,-0.0126024,0.346082,1.0061
149,1335,3.30844,-0.0131651,0.346088,1.0058
151,1333,3.30784,-0.0132073,0.346576,1.0056
153,1331,3.30811,-0.0131174,0.34609,1.00582
155,1329,3.30781,-0.0132327,0.346658,1.00558
157,1327,3.30769,-0.0138325,0.346574,1.00524
159,1325,3.30758,-0.013844,0.346573,1.00505
161,1323,3.30748,-0.0138747,0.346573,1.00521
163,1321,3.30766,-0.0139992,0.346581,1.00516
165,1319,3.3075,-0.0144148,0.346585,1.00492
167,1317,3.30742,-0.0144144,0.346583,1.00518
169,1315,3.30677,-0.0145199,0.347078,1.00469
171,1313,3.30712,-0.0151426,0.347082,1.00436
173,1311,3.30725,-0.0151385,0.347081,1.00436
175,1309,3.30685,-0.0151324,0.347083,1.00437
177,1307,3.30668,-0.0151217,0.347165,1.00438
179,1305,3.30655,-0.0150888,0.347084,1.00439
181,1303,3.30694,-0.0157003,0.347169,1.00404
183,1301,3.30663,-0.0156908,0.347085,1.00405
185,1299,3.30646,-0.015709,0.347084,1.00403
187,1297,3.30626,-0.0157313,0.347086,1.00404
189,1295,3.30828,-0.0126367,0.345916,1.00382
191,1293,3.30827,-0.0132254,0.345914,1.00346
193,1291,3.30825,-0.013279,0.345914,1.00344
195,1289,3.30809,-0.0132809,0.345917,1.00344
197,1287,3.308,-0.0132551,0.346005,1.00346
199,1285,3.30779,-0.0133099,0.345911,1.0034
201,1283,3.30786,-0.0132966,0.345821,1.00338
203,1281,3.30794,-0.013866,0.346638,1.00308
205,1279,3.30792,-0.0138571,0.345911,1.00309
207,1277,3.30783,-0.0138706,0.345908,1.00308
209,1275,3.30805,-0.0144833,0.346014,1.00273
211,1273,3.30743,-0.0145642,0.346398,1.00251
213,1271,3.30779,-0.0145093,0.345908,1.00271
215,1269,3.30784,-0.0145066,0.345907,1.00272
217,1267,3.30794,-0.0144987,0.345909,1.0013
219,1265,3.30743,-0.0151778,0.346398,1.00216
221,1263,3.30713,-0.0151387,0.346398,1.00219
223,1261,3.30696,-0.015193,0.3464,1.00216
225,1259,3.30692,-0.0151742,0.3464,1.00217
227,1257,3.307,-0.0151786,0.346396,1.00216
229,1255,3.30716,-0.0157718,0.346391,1.00179
231,1253,3.30694,-0.0157635,0.346383,1.0018
233,1251,3.30673,-0.0157644,0.346372,1.00176
235,1249,3.30661,-0.0157121,0.346367,1.00177
237,1247,3.30679,-0.0158474,0.346357,1.00166
239,1245,3.30639,-0.0174797,0.346839,1.00179
241,1243,3.3066,-0.0158991,0.346351,1.0016
243,1241,3.30613,-0.0176503,0.346836,1.00168
245,1239,3.30677,-0.0178226,0.346795,1.00149
247,1237,3.30805,-0.0142929,0.346358,1.00151
249,1235,3.30641,-0.0178179,0.346791,1.00147
251,1233,3.30792,-0.0150005,0.345657,1.00117
253,1231,3.30779,-0.0150196,0.345659,1.00117
255,1229,3.30797,-0.014979,0.345649,1.00118
257,1227,3.30794,-0.0155919,0.345648,1.00082
259,1225,3.30788,-0.0155964,0.34564,1.00079
261,1223,3.30767,-0.0155887,0.345632,1.00078
263,1221,3.30753,-0.0156006,0.345631,1.00078
265,1219,3.30772,-0.0156392,0.345635,1.00077
267,1217,3.30765,-0.0162188,0.345649,1.00046
269,1215,3.30743,-0.0162199,0.345749,1.0005
271,1213,3.30747,-0.0162694,0.345667,1.00049
273,1211,3.30731,-0.0166123,0.345666,1.00029
275,1209,3.3074,-0.0169085,0.345666,1.00012
277,1207,3.30729,-0.0168423,0.345665,1.00016
279,1205,3.30717,-0.0171675,0.345659,0.999945
281,1203,3.30716,-0.0168527,0.345649,1.00012
283,1201,3.30754,-0.0174117,0.345641,0.999779
285,1199,3.3074,-0.0174232,0.345638,0.999763
287,1197,3.30712,-0.0174228,0.345632,0.99974
289,1195,3.30693,-0.0174642,0.345638,0.999735
291,1193,3.3088,-0.0144249,0.344487,0.99952
293,1191,3.30879,-0.0150134,0.344497,0.999204
295,1189,3.3089,-0.0149539,0.3445,0.99925
297,1187,3.30859,-0.0149848,0.344499,0.999227
299,1185,3.3085,-0.0149919,0.344498,0.999035
301,1183,3.30882,-0.0155959,0.344496,0.998871
303,1181,3.30881,-0.015599,0.344489,0.998851
305,1179,3.30869,-0.0155671,0.344491,0.998869
307,1177,3.30789,-0.0156233,0.344964,0.99863
309,1175,3.3082,-0.015537,0.344463,0.998829
311,1173,3.30834,-0.0156023,0.344463,0.998794
313,1171,3.30854,-0.0161906,0.344471,0.998465
315,1169,3.30795,-0.0163078,0.34498,0.998276
317,1167,3.30769,-0.0163183,0.344984,0.99828
319,1165,3.30827,-0.0162014,0.345224,0.99853
321,1163,3.30786,-0.0168977,0.344988,0.997958
323,1161,3.30784,-0.0168735,0.344986,0.997981
325,1159,3.30762,-0.016912,0.344984,0.997939
327,1157,3.30738,-0.016949,0.344985,0.997918
329,1155,3.30785,-0.0175291,0.344984,0.997601
331,1153,3.30781,-0.017497,0.344983,0.997609
333,1151,3.30756,-0.0175061,0.344978,0.997586
335,1149,3.30729,-0.0175133,0.344967,0.997561
337,1147,3.3076,-0.0174295,0.344484,0.9978
339,1145,3.30936,-0.0150385,0.343814,0.997001
341,1143,3.30913,-0.0150239,0.343823,0.997032
343,1141,3.30908,-0.013324,0.343342,0.996949
345,1139,3.30877,-0.0140539,0.343833,0.996368
347,1137,3.30881,-0.0140354,0.343834,0.996376
349,1135,3.30923,-0.0139764,0.34406,0.996557
351,1133,3.30896,-0.0139768,0.34334,0.996569
353,1131,3.30832,-0.014086,0.343817,0.99631
355,1129,3.30868,-0.0156091,0.343816,0.996689
357,1127,3.30841,-0.0162898,0.344305,0.996128
359,1125,3.30831,-0.0162966,0.344304,0.996113
361,1123,3.30804,-0.0163062,0.344303,0.996105
363,1121,3.30802,-0.0163456,0.344306,0.996093
365,1119,3.30843,-0.0152808,0.343825,0.995647
367,1117,3.30829,-0.0152389,0.343837,0.99569
369,1115,3.30803,-0.0152684,0.343942,0.995696
371,1113,3.30769,-0.0159169,0.344327,0.995137
373,1111,3.30748,-0.0159007,0.344327,0.995153
375,1109,3.30747,-0.0158973,0.344324,0.995143
377,1107,3.30726,-0.0159157,0.344811,0.995139
379,1105,3.30928,-0.0133821,0.343155,0.994558
381,1103,3.30923,-0.0134152,0.343151,0.994533
383,1101,3.30924,-0.0134371,0.343635,0.994527
385,1099,3.30912,-0.013432,0.34315,0.994534
387,1097,3.30911,-0.0134562,0.343153,0.994519
389,1095,3.30904,-0.0140158,0.343161,0.994221
391,1093,3.30909,-0.0139808,0.343161,0.994245
393,1091,3.30916,-0.0140161,0.34325,0.994244
395,1089,3.30861,-0.0146448,0.343662,0.993704
397,1087,3.30827,-0.0146573,0.344388,0.993626
399,1085,3.30826,-0.014677,0.343657,0.9937
401,1083,3.30851,-0.0147003,0.343657,0.99368
403,1081,3.30843,-0.0152915,0.343114,0.993297
405,1079,3.30813,-0.0153062,0.343645,0.993283
407,1077,3.30808,-0.0153231,0.343645,0.99328
409,1075,3.30801,-0.0153499,0.343639,0.993258
411,1073,3.30792,-0.0153419,0.343642,0.993261
413,1071,3.30778,-0.0158961,0.343654,0.992977
415,1069,3.30981,-0.0127685,0.342499,0.992795
417,1067,3.30956,-0.0134802,0.34348,0.992229
419,1065,3.30944,-0.0134802,0.342996,0.992218
421,1063,3.30914,-0.0134565,0.342995,0.992235
423,1061,3.30943,-0.0140855,0.342999,0.99188
425,1059,3.30931,-0.0140346,0.342997,0.991915
427,1057,3.3092,-0.0140648,0.342995,0.991884
429,1055,3.30896,-0.0140661,0.342992,0.991872
431,1053,3.30881,-0.0147721,0.343483,0.991294
433,1051,3.309,-0.0146752,0.342987,0.99151
435,1049,3.30874,-0.0146352,0.342979,0.991522
437,1047,3.30851,-0.0147314,0.342987,0.991476
439,1045,3.30859,-0.015382,0.343487,0.990958
441,1043,3.30832,-0.0153726,0.343489,0.990967
443,1041,3.30816,-0.0153506,0.344229,0.991021
445,1039,3.30829,-0.0159433,0.343502,0.990677
447,1037,3.3081,-0.0159445,0.343488,0.990638
449,1035,3.30784,-0.0159701,0.343478,0.990591
451,1033,3.30765,-0.0160216,0.34347,0.99055
453,1031,3.30945,-0.0128591,0.342298,0.99034
455,1029,3.30951,-0.013484,0.342298,0.989975
457,1027,3.30943,-0.0134769,0.342291,0.989959
459,1025,3.30936,-0.0134939,0.342776,0.989954
461,1023,3.30927,-0.013515,0.342291,0.989941
463,1021,3.30942,-0.0141644,0.34231,0.989599
465,1019,3.30909,-0.0141188,0.342302,0.989624
467,1017,3.30903,-0.0141295,0.342783,0.989605
469,1015,3.30863,-0.014808,0.342794,0.98906
471,1013,3.30855,-0.0148143,0.342791,0.989038
473,1011,3.30884,-0.014733,0.342291,0.989242
475,1009,3.30842,-0.0148475,0.343511,0.989004
477,1007,3.30828,-0.0154632,0.342699,0.988645
479,1005,3.30827,-0.0154798,0.342782,0.988644
481,1003,3.30813,-0.0154804,0.34278,0.988631
483,1001,3.30794,-0.0154528,0.342776,0.988623
485,999,3.30792,-0.016053,0.342776,0.988292
487,997,3.30776,-0.0160801,0.342779,0.988282
489,995,3.30945,-0.0135896,0.342109,0.987534
491,993,3.30924,-0.013611,0.342119,0.987534
493,991,3.30928,-0.0135792,0.342127,0.987577
495,989,3.30918,-0.014189,0.342126,0.987226
497,987,3.3091,-0.0141926,0.342115,0.987206
499,985,3.3088,-0.0142194,0.342109,0.987165
501,983,3.30897,-0.0142237,0.342107,0.987166
503,981,3.30883,-0.0148122,0.342105,0.986813
505,979,3.30878,-0.0148163,0.342102,0.986821
507,977,3.30848,-0.0148188,0.342103,0.98681
509,975,3.30822,-0.0155596,0.34308,0.986209
511,973,3.30812,-0.0155838,0.342543,0.986222
513,971,3.30792,-0.0155444,0.342613,0.986268
515,969,3.30783,-0.0161198,0.342619,0.985938
517,967,3.30786,-0.0161435,0.34262,0.985947
519,965,3.30983,-0.0129855,0.341939,0.985732
521,963,3.30924,-0.0136256,0.341947,0.985184
523,961,3.30939,-0.0135504,0.341438,0.985359
525,959,3.30948,-0.0136147,0.341432,0.985316
527,957,3.30954,-0.0141991,0.341425,0.984974
529,955,3.30928,-0.0142385,0.341424,0.984926
531,953,3.30901,-0.0142594,0.341423,0.984911
533,951,3.30924,-0.014236,0.34142,0.984927
535,949,3.30843,-0.0149644,0.341916,0.984334
537,947,3.30844,-0.0149495,0.34192,0.984364
539,945,3.30849,-0.0149593,0.341935,0.984401
541,943,3.30851,-0.0153962,0.34194,0.98416
543,941,3.30829,-0.0155785,0.341947,0.984072
545,939,3.30795,-0.0162097,0.342442,0.983532
547,937,3.30825,-0.0161352,0.341938,0.983732
549,935,3.30812,-0.0160996,0.341931,0.983739
551,933,3.30974,-0.0129439,0.340753,0.983477
553,931,3.30921,-0.0137027,0.341248,0.982875
555,929,3.30969,-0.0136199,0.340754,0.983099
557,927,3.30959,-0.0136187,0.340751,0.983088
559,925,3.309,-0.0142945,0.341243,0.982517
561,923,3.30892,-0.0143569,0.341263,0.982792
563,921,3.30874,-0.015013,0.341768,0.982018
565,919,3.30854,-0.0149412,0.34178,0.982096
567,917,3.30843,-0.0149479,0.341781,0.982091
569,915,3.30846,-0.0155842,0.341786,0.981743
571,913,3.3084,-0.0155823,0.341785,0.981742
573,911,3.30822,-0.0155932,0.341782,0.981732
575,909,3.30832,-0.0161822,0.341784,0.981397
577,907,3.30811,-0.0161846,0.341786,0.981396
579,905,3.30998,-0.012964,0.340611,0.981443
581,903,3.30924,-0.0136092,0.341111,0.980647
583,901,3.30915,-0.0137446,0.341113,0.980578
585,899,3.30961,-0.0136832,0.340618,0.980801
587,897,3.30928,-0.0143274,0.341125,0.980275
589,895,3.30898,-0.0143546,0.34113,0.980283
591,893,3.3091,-0.0149703,0.341132,0.979933
593,891,3.30903,-0.014889,0.341133,0.979987
595,889,3.3088,-0.0149591,0.341616,0.979945
597,887,3.30832,-0.0156861,0.341635,0.979367
599,885,3.30868,-0.015579,0.34114,0.979615
601,883,3.30855,-0.0155807,0.341138,0.979619
603,881,3.30803,-0.0162212,0.341639,0.979092
605,879,3.30757,-0.0162558,0.341742,0.979053
607,877,3.30746,-0.0162306,0.34164,0.979074
609,875,3.30943,-0.013717,0.340463,0.978446
611,873,3.30887,-0.0138722,0.340961,0.978186
613,871,3.30885,-0.0143825,0.340966,0.977924
615,869,3.30931,-0.0142713,0.340464,0.978147
617,867,3.30933,-0.0143395,0.340467,0.978109
619,865,3.3086,-0.0144519,0.340961,0.977871
621,863,3.30869,-0.0150492,0.341567,0.977516
623,861,3.3084,-0.0150718,0.340959,0.977509
625,859,3.30832,-0.0156697,0.340957,0.977157
627,857,3.30825,-0.0157387,0.341643,0.977119
629,855,3.30883,-0.0155869,0.340457,0.977384
631,853,3.30708,-0.0163715,0.341941,0.97658
633,851,3.30799,-0.0163652,0.34095,0.976742
635,849,3.31043,-0.0130765,0.339282,0.976759
637,847,3.31006,-0.0137761,0.339781,0.976182
639,845,3.30983,-0.0137431,0.34051,0.976204
641,843,3.30931,-0.0145044,0.34028,0.9756
643,841,3.30979,-0.0144198,0.339782,0.97583
645,839,3.30976,-0.0143954,0.339858,0.975834
647,837,3.30901,-0.0151196,0.341013,0.975256
649,835,3.30889,-0.0151089,0.340277,0.975254
651,833,3.30897,-0.0157353,0.340275,0.974894
653,831,3.30864,-0.0157106,0.340171,0.975134
655,829,3.30849,-0.0157765,0.340268,0.974849
657,827,3.30837,-0.016399,0.340269,0.974489
659,825,3.30825,-0.0163705,0.34026,0.974499
661,823,3.30978,-0.0138628,0.340074,0.973695
663,821,3.30964,-0.0139632,0.339672,0.973659
665,819,3.30916,-0.0138024,0.339597,0.973751
667,817,3.30955,-0.0145232,0.339602,0.973351
669,815,3.30935,-0.0145223,0.339603,0.973358
671,813,3.30888,-0.0151119,0.340106,0.972845
673,811,3.3094,-0.0151294,0.339603,0.973017
675,809,3.30882,-0.0158079,0.340106,0.972455
677,807,3.30814,-0.0158912,0.340601,0.972219
679,805,3.30819,-0.0158219,0.3401,0.972441
681,803,3.30798,-0.0165168,0.340604,0.971875
683,801,3.30833,-0.0164672,0.340097,0.972068
685,799,3.30958,-0.0139635,0.339432,0.971266
687,797,3.30972,-0.013906,0.339433,0.971313
689,795,3.30951,-0.0139176,0.339437,0.971307
691,793,3.30948,-0.0145813,0.339442,0.970945
693,791,3.30935,-0.0145929,0.339445,0.970955
695,789,3.30862,-0.0151779,0.339949,0.97045
697,787,3.30864,-0.0152654,0.33995,0.970405
699,785,3.30818,-0.0159263,0.340456,0.969863
701,783,3.3085,-0.0158633,0.340685,0.970076
703,781,3.30841,-0.0164789,0.339947,0.969712
705,779,3.3076,-0.0165914,0.340449,0.969469
707,777,3.30946,-0.0139626,0.339275,0.968893
709,775,3.30987,-0.0138952,0.338773,0.969105
711,773,3.30947,-0.014635,0.339271,0.96851
713,771,3.30903,-0.0145989,0.339329,0.968492
715,769,3.30939,-0.0145709,0.33875,0.968672
717,767,3.30902,-0.0153172,0.339261,0.968092
719,765,3.30863,-0.0152614,0.339255,0.968105
721,763,3.30791,-0.016018,0.339753,0.967493
723,761,3.3085,-0.0159978,0.339264,0.96761
725,759,3.30777,-0.0165976,0.33977,0.967199
727,757,3.30768,-0.0166096,0.340503,0.967196
729,755,3.30878,-0.0139777,0.339102,0.966451
731,753,3.30948,-0.0140243,0.339078,0.9666
733,751,3.30959,-0.0146603,0.338591,0.966227
735,749,3.30917,-0.0146615,0.33859,0.966225
737,747,3.30926,-0.0153093,0.338692,0.965861
739,745,3.30923,-0.0152762,0.338571,0.965833
741,743,3.30861,-0.0160477,0.339092,0.965276
743,741,3.30831,-0.0160176,0.339095,0.965295
745,739,3.30751,-0.0167348,0.3396,0.964716
747,737,3.3083,-0.0166183,0.339098,0.964961
749,735,3.30964,-0.0141573,0.338435,0.964369
751,733,3.30933,-0.0140632,0.338435,0.964184
753,731,3.30922,-0.0146552,0.33843,0.96383
755,729,3.30923,-0.0147287,0.337887,0.96379
757,727,3.30878,-0.0154264,0.338936,0.963224
759,725,3.30842,-0.0154204,0.338934,0.963225
761,723,3.30798,-0.016045,0.338931,0.962857
763,721,3.30764,-0.0160655,0.338928,0.962832
765,719,3.3068,-0.0167509,0.339942,0.961881
767,717,3.30788,-0.0166937,0.338919,0.962457
769,715,3.3091,-0.0141917,0.338257,0.961642
771,713,3.30881,-0.014157,0.338256,0.961658
773,711,3.30878,-0.0148918,0.338358,0.961244
775,709,3.30884,-0.0148643,0.338262,0.959813
777,707,3.30802,-0.0155571,0.338765,0.960946
779,705,3.30852,-0.015402,0.338248,0.960947
781,703,3.30784,-0.0161867,0.33875,0.960314
783,701,3.30819,-0.016139,0.338236,0.960493
785,699,3.30734,-0.0168444,0.338744,0.959913
787,697,3.30694,-0.0168366,0.338735,0.959905
789,695,3.30954,-0.0142961,0.33756,0.959275
791,693,3.31004,-0.0141632,0.337789,0.959523
793,691,3.30948,-0.0149083,0.337587,0.958982
795,689,3.30876,-0.0154913,0.338088,0.958464
797,687,3.30916,-0.0154802,0.337701,0.958708
799,685,3.30808,-0.0163014,0.338618,0.957895
801,683,3.30837,-0.0160562,0.338089,0.956704
803,681,3.30763,-0.0169012,0.338594,0.957492
805,679,3.3073,-0.0169245,0.338592,0.957481
807,677,3.30927,-0.01424,0.33741,0.956875
809,675,3.30889,-0.0142886,0.337891,0.956843
811,673,3.30862,-0.0149278,0.337403,0.956473
813,671,3.30957,-0.0149336,0.336887,0.956635
815,669,3.30907,-0.0156503,0.337401,0.956068
817,667,3.30886,-0.0156201,0.337405,0.95594
819,665,3.30827,-0.0163319,0.337927,0.955557
821,663,3.30828,-0.0168944,0.337936,0.955258
823,661,3.31012,-0.0134943,0.336759,0.955102
825,659,3.30936,-0.0142875,0.337276,0.954476
827,657,3.30993,-0.0142948,0.336758,0.954648
829,655,3.30932,-0.0149387,0.33727,0.954106
831,653,3.30902,-0.0149459,0.337266,0.954086
833,651,3.309,-0.015615,0.337683,0.953716
835,649,3.30884,-0.0156209,0.337261,0.953704
837,647,3.30821,-0.0163769,0.337774,0.953108
839,645,3.30795,-0.0163576,0.337772,0.953106
841,643,3.30773,-0.0170119,0.337771,0.952738
843,641,3.31001,-0.014183,0.336157,0.952245
845,639,3.30976,-0.0143213,0.336604,0.952184
847,637,3.30911,-0.0150804,0.337127,0.951606
849,635,3.30905,-0.0150392,0.337127,0.951645
851,633,3.309,-0.0156793,0.337132,0.951291
853,631,3.30836,-0.0164552,0.338364,0.950697
855,629,3.3081,-0.0164627,0.337646,0.950686
857,627,3.30797,-0.0169934,0.338382,0.950375
859,625,3.30988,-0.0137208,0.336464,0.950113
861,623,3.30905,-0.0144183,0.336973,0.949779
863,621,3.30883,-0.0144852,0.33697,0.949481
865,619,3.30876,-0.0151067,0.336976,0.949149
867,617,3.30857,-0.0151257,0.337076,0.949128
869,615,3.30779,-0.015773,0.337492,0.9486
871,613,3.30771,-0.0164811,0.337489,0.948215
873,611,3.30802,-0.0164034,0.336971,0.948425
875,609,3.30781,-0.0171495,0.337494,0.947859
877,607,3.30941,-0.0137766,0.336321,0.947642
879,605,3.30919,-0.0145003,0.336316,0.947242
881,603,3.30838,-0.0151961,0.336842,0.94669
883,601,3.30808,-0.0151948,0.336846,0.94669
885,599,3.30755,-0.0159129,0.337361,0.946108
887,597,3.30813,-0.0158648,0.33683,0.946283
889,595,3.30673,-0.0165799,0.33735,0.945718
891,593,3.30671,-0.0166186,0.338088,0.945689
893,591,3.30642,-0.0172001,0.337341,0.945337
895,589,3.30896,-0.0146085,0.336156,0.944675
897,587,3.3086,-0.0145871,0.336145,0.944674
899,585,3.30849,-0.01525,0.336258,0.944322
901,583,3.30811,-0.0152055,0.336156,0.944347
903,581,3.30752,-0.0159622,0.336682,0.943779
905,579,3.3071,-0.0167373,0.337204,0.943163
907,577,3.30748,-0.0167705,0.336693,0.943349
909,575,3.3073,-0.0172934,0.336689,0.94305
911,573,3.30879,-0.0146277,0.336024,0.942239
913,571,3.3091,-0.0145257,0.335496,0.942453
915,569,3.30814,-0.015286,0.336017,0.941848
917,567,3.30796,-0.0153192,0.336016,0.941833
919,565,3.30742,-0.0160953,0.336539,0.941235
921,563,3.30713,-0.0166992,0.336534,0.941131
923,561,3.30714,-0.016734,0.336534,0.940875
925,559,3.30859,-0.0140698,0.335888,0.940093
927,557,3.30879,-0.014731,0.335906,0.939784
929,555,3.30831,-0.0154257,0.336515,0.939255
931,553,3.30775,-0.0154247,0.336434,0.939232
933,551,3.30709,-0.0161721,0.336957,0.938626
935,549,3.30708,-0.0168999,0.336956,0.93823
937,547,3.30722,-0.0167137,0.336423,0.938484
939,545,3.30639,-0.0174602,0.337433,0.937889
941,543,3.30779,-0.0148455,0.336783,0.93706
943,541,3.30807,-0.0146865,0.335758,0.937302
945,539,3.30734,-0.0155282,0.336281,0.936643
947,537,3.30757,-0.0154106,0.335747,0.936876
949,535,3.30667,-0.0161803,0.336278,0.936275
951,533,3.3068,-0.0168799,0.336267,0.935867
953,531,3.30682,-0.0169443,0.336277,0.935863
955,529,3.30895,-0.0141487,0.335106,0.935322
957,527,3.30825,-0.014889,0.335641,0.934753
959,525,3.30818,-0.0154857,0.335635,0.934421
961,523,3.30795,-0.0155406,0.335639,0.934395
963,521,3.30713,-0.0162812,0.336158,0.933785
965,519,3.30695,-0.0169087,0.336153,0.933412
967,517,3.30668,-0.0169515,0.336149,0.933394
969,515,3.30624,-0.0176802,0.336681,0.932824
971,513,3.30776,-0.0148758,0.335494,0.932228
973,511,3.30732,-0.0149251,0.335491,0.932199
975,509,3.30661,-0.0156362,0.336022,0.931642
977,507,3.30649,-0.0162564,0.336022,0.931292
979,505,3.30588,-0.0171001,0.336555,0.930655
981,503,3.30562,-0.017043,0.336551,0.93067
983,501,3.30548,-0.017757,0.33656,0.930321
985,499,3.30743,-0.0149931,0.335363,0.929672
987,497,3.30677,-0.0157494,0.335909,0.929109
989,495,3.30639,-0.0157566,0.336663,0.929122
991,493,3.30574,-0.0164774,0.336455,0.928574
993,491,3.30595,-0.0172036,0.336456,0.928188
995,489,3.30579,-0.0178468,0.336457,0.927831
997,487,3.30696,-0.0150697,0.335809,0.927052
999,485,3.30714,-0.0150842,0.335273,0.927218
1001,483,3.30712,-0.015686,0.335374,0.926895
1003,481,3.3066,-0.0164479,0.335811,0.926321
1005,479,3.30623,-0.0171723,0.335816,0.92593
1007,477,3.30508,-0.0180408,0.336904,0.925136
1009,475,3.307,-0.015107,0.335713,0.924594
1011,473,3.30676,-0.0150832,0.335782,0.924628
1013,471,3.30574,-0.0157923,0.336264,0.924091
1015,469,3.30483,-0.0166311,0.336735,0.923435
1017,467,3.30462,-0.0173063,0.336797,0.923048
1019,465,3.30538,-0.0173469,0.336248,0.923191
1021,463,3.30725,-0.0144227,0.335057,0.922632
1023,461,3.3052,-0.0152707,0.33614,0.921817
1025,459,3.30484,-0.0159428,0.336137,0.921435
1027,457,3.30539,-0.0167296,0.336629,0.921021
1029,455,3.30433,-0.0173943,0.336678,0.920477
1031,453,3.30448,-0.0173827,0.336134,0.920654
1033,451,3.30615,-0.0146531,0.335495,0.919837
1035,449,3.30604,-0.0153059,0.335609,0.919517
1037,447,3.30526,-0.0159596,0.336057,0.919017
1039,445,3.30527,-0.0167301,0.336058,0.918594
1041,443,3.30493,-0.0173549,0.336054,0.91825
1043,441,3.30422,-0.0182266,0.336529,0.917581
1045,439,3.30616,-0.0153127,0.335404,0.917015
1047,437,3.30583,-0.0153261,0.335393,0.916979
1049,435,3.30563,-0.0160318,0.335387,0.916576
1051,433,3.30472,-0.0168092,0.33593,0.915979
1053,431,3.30342,-0.0175921,0.336478,0.915374
1055,429,3.30428,-0.0182586,0.335921,0.915173
1057,427,3.30565,-0.0154503,0.335276,0.914358
1059,425,3.30542,-0.0161544,0.335271,0.913957
1061,423,3.30467,-0.0169513,0.335823,0.91338
1063,421,3.30392,-0.0177611,0.336379,0.912762
1065,419,3.30349,-0.0184371,0.336381,0.912412
1067,417,3.30579,-0.0155624,0.335187,0.911795
1069,415,3.30481,-0.0163136,0.335739,0.911217
1071,413,3.30451,-0.0163902,0.335738,0.911169
1073,411,3.30409,-0.0170413,0.335734,0.910813
1075,409,3.30392,-0.017795,0.335733,0.910412
1077,407,3.30524,-0.0148993,0.335089,0.909618
1079,405,3.30502,-0.0156331,0.335581,0.909213
1081,403,3.30464,-0.0163532,0.335078,0.908811
1083,401,3.30391,-0.0171331,0.335637,0.908235
1085,399,3.30332,-0.0186676,0.336193,0.907236
1087,397,3.3055,-0.0138773,0.334436,0.906542
1089,395,3.30517,-0.0146126,0.334436,0.906149
1091,393,3.30433,-0.0153283,0.334997,0.905606
1093,391,3.30359,-0.0161845,0.335566,0.905
1095,389,3.30322,-0.0168464,0.335572,0.904666
1097,387,3.30519,-0.0211802,0.334479,0.904123
1099,385,3.30423,-0.0219716,0.334934,0.903523
1101,383,3.30388,-0.0226536,0.33493,0.903165
1103,381,3.30283,-0.0235235,0.335487,0.902511
1105,379,3.30504,-0.0187547,0.333725,0.901805
1107,377,3.30469,-0.0194204,0.333721,0.901447
1109,375,3.30427,-0.0184044,0.333719,0.900744
1111,373,3.30377,-0.0191137,0.333718,0.900367
1113,371,3.30286,-0.0198923,0.334279,0.899782
1115,369,3.30464,-0.01696,0.333079,0.899154
1117,367,3.30421,-0.0165668,0.333078,0.898125
1119,365,3.30357,-0.0173917,0.333643,0.897532
1121,363,3.3024,-0.0200547,0.335277,0.897034
1123,361,3.30237,-0.0188016,0.334218,0.896632
1125,359,3.30334,-0.0178576,0.334158,0.895865
1127,357,3.30228,-0.0205723,0.33535,0.895324
1129,355,3.30059,-0.017594,0.337022,0.894886
1131,353,3.30206,-0.020093,0.334718,0.894501
1133,351,3.30317,-0.0172197,0.334091,0.893665
1135,349,3.30341,-0.0141822,0.332945,0.893126
1137,347,3.30176,-0.0187597,0.334654,0.892445
1139,345,3.30186,-0.0239163,0.333513,0.891792
1141,343,3.30125,-0.0171628,0.33408,0.891204
1143,341,3.30231,-0.0217707,0.33345,0.8904
1145,339,3.3022,-0.0206651,0.332877,0.889916
1147,337,3.30201,-0.019449,0.33231,0.889481
1149,335,3.30178,-0.0182982,0.331746,0.889023
1151,333,3.3033,-0.0160956,0.331119,0.887838
1153,331,3.30213,-0.0187452,0.332254,0.88735
1155,329,3.30175,-0.0194453,0.332253,0.886983
1157,327,3.30104,-0.0183754,0.332252,0.886302
1159,325,3.30329,-0.0135416,0.330486,0.885579
1161,323,3.30165,-0.0181351,0.332196,0.88513
1163,321,3.302,-0.0157731,0.331053,0.884251
1165,319,3.30077,-0.0184419,0.332202,0.883757
1167,317,3.30238,-0.0155549,0.331577,0.882908
1169,315,3.30433,-0.0197603,0.327036,0.882564
1171,313,3.30351,-0.0193589,0.327037,0.881517
1173,311,3.30254,-0.0221338,0.328164,0.881006
1175,309,3.30426,-0.0191579,0.326969,0.880378
1177,307,3.30426,-0.0179265,0.326408,0.87994
1179,305,3.30321,-0.0195754,0.327535,0.878771
1181,303,3.3024,-0.0203117,0.327534,0.87838
1183,301,3.30382,-0.0173411,0.326906,0.877581
1185,299,3.30038,-0.0145193,0.332066,0.876974
1187,297,3.30056,-0.0209808,0.330903,0.876741
1189,295,3.30084,-0.0177985,0.329749,0.876242
1191,293,3.29953,-0.0175288,0.330321,0.87497
1193,291,3.30257,-0.0181824,0.327895,0.87446
1195,289,3.30111,-0.0209851,0.328546,0.873907
1197,287,3.30007,-0.0159869,0.329695,0.873412
1199,285,3.29949,-0.0175938,0.330275,0.872425
1201,283,3.30174,-0.0183682,0.327918,0.871666
1203,281,3.30096,-0.0210048,0.328493,0.871372
1205,279,3.30115,-0.0237315,0.326774,0.870739
1207,277,3.29979,-0.0176122,0.328646,0.869586
1209,275,3.30133,-0.0164847,0.327297,0.869052
1211,273,3.30163,-0.0191982,0.325584,0.868681
1213,271,3.30137,-0.0179692,0.327305,0.86832
1215,269,3.29962,-0.0235339,0.329626,0.867296
1217,267,3.30087,-0.0205246,0.32905,0.866446
1219,265,3.30073,-0.0212636,0.328999,0.866063
1221,263,3.30146,-0.0161594,0.324385,0.865347
1223,261,3.30507,-0.0135579,0.321126,0.864299
1225,259,3.30407,-0.0227937,0.320936,0.863349
1227,257,3.30304,-0.0236803,0.321496,0.862735
1229,255,3.30283,-0.0223861,0.320931,0.862552
1231,253,3.30409,-0.0194563,0.320303,0.861471
1233,251,3.30319,-0.0210521,0.320865,0.860494
1235,249,3.30317,-0.0198055,0.320302,0.860058
1237,247,3.30281,-0.0204818,0.320298,0.859697
1239,245,3.30428,-0.0155957,0.319115,0.858787
1241,243,3.30345,-0.0171493,0.319679,0.857844
1243,241,3.30271,-0.0180749,0.320237,0.857194
1245,239,3.3021,-0.0187876,0.32024,0.856852
1247,237,3.30382,-0.0144636,0.319053,0.855633
1249,235,3.30323,-0.0229676,0.319047,0.855233
1251,233,3.30207,-0.0238152,0.319607,0.854659
1253,231,3.30107,-0.0254758,0.320171,0.853656
1255,229,3.30349,-0.0184095,0.317856,0.852893
1257,227,3.30296,-0.0191399,0.317854,0.854022
1259,225,3.3028,-0.0168234,0.317294,0.85137
1261,223,3.30388,-0.0157445,0.317975,0.850658
1263,221,3.30345,-0.0145233,0.316663,0.850189
1265,219,3.30252,-0.0161257,0.317225,0.849212
1267,217,3.30114,-0.0189155,0.318348,0.848721
1269,215,3.30329,-0.0216445,0.316603,0.848065
1271,213,3.30251,-0.0165551,0.317155,0.847728
1273,211,3.30216,-0.0220687,0.316588,0.846564
1275,209,3.30195,-0.0208318,0.316025,0.846103
1277,207,3.30339,-0.0158285,0.314843,0.845207
1279,205,3.30335,-0.0153624,0.314284,0.844363
1281,203,3.30214,-0.0240245,0.314838,0.843787
1283,201,3.30199,-0.0227698,0.314276,0.843317
1285,199,3.30372,-0.0185715,0.313089,0.841992
1287,197,3.30249,-0.0194264,0.313642,0.841398
1289,195,3.30238,-0.0188857,0.313079,0.840572
1291,193,3.30434,-0.0157667,0.3119,0.839978
1293,191,3.30381,-0.0146671,0.311991,0.839267
1295,189,3.30284,-0.0162459,0.312449,0.838315
1297,187,3.3021,-0.0248375,0.312446,0.837946
1299,185,3.30365,-0.0139361,0.311831,0.835704
1301,183,3.30285,-0.015547,0.312394,0.836199
1303,181,3.30247,-0.0162708,0.312394,0.835844
1305,179,3.30106,-0.0250154,0.312955,0.835268
1307,177,3.30255,-0.0226856,0.312335,0.834114
1309,175,3.30226,-0.0214867,0.311768,0.833605
1311,173,3.30114,-0.0224202,0.312329,0.832985
1313,171,3.30042,-0.0219503,0.312317,0.831947
1315,169,3.30261,-0.0167468,0.31056,0.831227
1317,167,3.30235,-0.0156084,0.310003,0.830711
1319,165,3.30132,-0.0171917,0.310558,0.829762
1321,163,3.30236,-0.0220603,0.30993,0.828952
1323,161,3.30222,-0.0208364,0.309463,0.828458
1325,159,3.30207,-0.0202798,0.308805,0.827631
1327,157,3.30114,-0.0212411,0.309358,0.827001
1329,155,3.30323,-0.016034,0.307626,0.826315
1331,153,3.30225,-0.0176199,0.30818,0.825615
1333,151,3.30152,-0.0164445,0.308178,0.824693
1335,149,3.30097,-0.0172894,0.308184,0.824304
1337,147,3.30239,-0.0229037,0.307565,0.823163
1339,145,3.30131,-0.0237907,0.308126,0.82257
1341,143,3.30151,-0.0212138,0.307001,0.82163
1343,141,3.30307,-0.0161539,0.305821,0.820688
1345,139,3.30248,-0.0169688,0.305816,0.820288
1347,137,3.30215,-0.0184353,0.305813,0.81956
1349,135,3.301,-0.0193551,0.306364,0.818939
1351,133,3.30265,-0.014909,0.305185,0.817684
1353,131,3.30183,-0.0236879,0.30518,0.817324
1355,129,3.30079,-0.0245945,0.30573,0.816713
1357,127,3.30053,-0.0233543,0.30517,0.816225
1359,125,3.30237,-0.0190262,0.304023,0.814929
1361,123,3.30216,-0.0177331,0.303442,0.814251
1363,121,3.30142,-0.0173632,0.303448,0.813398
1365,119,3.30268,-0.0142423,0.302829,0.812597
1367,117,3.30211,-0.0237827,0.302857,0.811904
1369,115,3.30166,-0.0226858,0.302834,0.811196
1371,113,3.3014,-0.0214212,0.302277,0.810706
1373,111,3.30285,-0.0190654,0.301654,0.809525
1375,109,3.30182,-0.0179062,0.301651,0.808825
1377,107,3.30137,-0.0194061,0.301646,0.808092
1379,105,3.30366,-0.0140883,0.299923,0.807418
1381,103,3.3024,-0.0230957,0.30047,0.806811
1383,101,3.30143,-0.0247518,0.301021,0.805865
1385,99,3.3011,-0.0234998,0.300465,0.805356
1387,97,3.30223,-0.0203237,0.299845,0.804575
1389,95,3.30235,-0.0198247,0.299292,0.803725
1391,93,3.30171,-0.018688,0.299295,0.803029
1393,91,3.30073,-0.0203071,0.299876,0.802111
1395,89,3.30267,-0.0170967,0.298683,0.801495
1397,87,3.3016,-0.018007,0.299236,0.800912
1399,85,3.30091,-0.0175483,0.299239,0.799885
1401,83,3.30277,-0.0225384,0.298083,0.799291
1403,81,3.30158,-0.0232463,0.298628,0.798779
1405,79,3.30068,-0.0229411,0.298619,0.797649
1407,77,3.30013,-0.0236571,0.298617,0.797542
1409,75,3.30237,-0.0183972,0.296918,0.796577
1411,73,3.30187,-0.0180348,0.296893,0.795493
1413,71,3.30067,-0.018929,0.297448,0.79491
1415,69,3.29989,-0.0196065,0.297443,0.794584
1417,67,3.30174,-0.0151744,0.296274,0.793273
1419,65,3.30131,-0.0159772,0.296276,0.792908
1421,63,3.2999,-0.0250841,0.296826,0.792339
1423,61,3.30242,-0.0184483,0.294559,0.791128
1425,59,3.30096,-0.0214336,0.295663,0.790677
1427,57,3.30011,-0.0202778,0.295756,0.789959
1429,55,3.29992,-0.0197295,0.295114,0.789138
1431,53,3.30198,-0.0225698,0.2934,0.788442
1433,51,3.30113,-0.022182,0.293403,0.787373
1435,49,3.29996,-0.0229168,0.293953,0.786892
1437,47,3.29963,-0.0217753,0.293397,0.786303
1439,45,3.30134,-0.0172834,0.292234,0.785015
1441,43,3.30124,-0.0160209,0.291684,0.784511
1443,41,3.29994,-0.0169158,0.292232,0.783933
1445,39,3.29843,-0.0268186,0.292776,0.783001
1447,37,3.30043,-0.0235722,0.291615,0.782404
1449,35,3.30028,-0.0222988,0.291067,0.781895
1451,33,3.29911,-0.0239617,0.292061,0.780954
1453,31,3.29781,-0.0248631,0.292155,0.780374
1455,29,3.29999,-0.0194337,0.290445,0.779663
1457,27,3.29947,-0.0201632,0.290461,0.777843
1459,25,3.29854,-0.0218939,0.290997,0.778397
1461,23,3.29941,-0.0208278,0.290942,0.777726
1463,21,3.29811,-0.0218579,0.291504,0.777132
1465,19,3.29789,-0.0212241,0.290943,0.776298
1467,17,3.29679,-0.0221832,0.291493,0.775704
1469,15,3.29914,-0.0167373,0.289775,0.774978
1471,13,3.29878,-0.0154818,0.289225,0.774455
1473,11,3.29716,-0.0183932,0.290321,0.774047
1475,9,3.29599,-0.020086,0.290871,0.773099
1477,7,3.29561,-0.0188024,0.290318,0.772593
1479,5,3.29752,-0.0238368,0.289601,0.772011
1481,3,3.29655,-0.0226745,0.289148,0.771283