File: hust_correlation_analysis/matrices/HUST_1-8_cycle_feature_matrix.csv
cycle_number,rul,voltage,current,capacity,charge_capacity
1,2287,3.32053,-0.0130826,0.299073,1.01829
4,2284,3.3084,-0.0145638,0.304412,1.01245
7,2281,3.30799,-0.0164111,0.304408,1.01129
10,2278,3.31048,-0.0137155,0.302705,1.01097
13,2275,3.31031,-0.0143719,0.302599,1.01063
16,2272,3.3103,-0.0156624,0.302593,1.01
19,2269,3.31005,-0.0157291,0.302597,1.00999
22,2266,3.31229,-0.013028,0.300806,1.00968
25,2263,3.31253,-0.0137521,0.300806,1.00932
28,2260,3.31199,-0.0143225,0.301459,1.00905
31,2257,3.31202,-0.0150633,0.300804,1.00868
34,2254,3.31151,-0.0151152,0.300789,1.0086
37,2251,3.31186,-0.0150324,0.300336,1.00887
40,2248,3.31175,-0.0157157,0.300336,1.00854
43,2245,3.31114,-0.0164317,0.300782,1.00796
46,2242,3.31085,-0.016436,0.300774,1.00793
49,2239,3.31294,-0.0137748,0.299432,1.00736
52,2236,3.31276,-0.0138292,0.299432,1.00733
55,2233,3.31299,-0.01448,0.299433,1.00703
58,2230,3.31269,-0.0145051,0.299434,1.00701
61,2227,3.31263,-0.0151078,0.299429,1.00672
64,2224,3.31237,-0.0151429,0.299429,1.00669
67,2221,3.31268,-0.0157523,0.299425,1.00638
70,2218,3.31226,-0.0157851,0.299421,1.00635
73,2215,3.31194,-0.0157884,0.299422,1.00636
76,2212,3.31236,-0.0164282,0.298977,1.00627
79,2209,3.31197,-0.016344,0.299508,1.00606
82,2206,3.31355,-0.0138956,0.298089,1.00545
85,2203,3.31424,-0.0138387,0.297643,1.0057
88,2200,3.31356,-0.0144719,0.298084,1.00515
91,2197,3.3134,-0.0145209,0.298084,1.00511
94,2194,3.31362,-0.0144297,0.297638,1.00538
97,2191,3.31352,-0.0151565,0.298078,1.0048
100,2188,3.31371,-0.0151067,0.298282,1.00504
103,2185,3.31355,-0.0158489,0.29808,1.00445
106,2182,3.31326,-0.0158218,0.298086,1.00449
109,2179,3.31338,-0.0164084,0.298087,1.0042
112,2176,3.31304,-0.0163886,0.298087,1.00421
115,2173,3.31294,-0.0164449,0.298078,1.00442
118,2170,3.31256,-0.0164973,0.297888,1.00415
121,2167,3.31465,-0.0138377,0.29674,1.00356
124,2164,3.31441,-0.0138477,0.296741,1.00356
127,2161,3.31428,-0.0138521,0.296737,1.00355
130,2158,3.31396,-0.0144284,0.297189,1.00307
133,2155,3.31443,-0.0144458,0.296742,1.00328
136,2152,3.31428,-0.0144518,0.296747,1.00329
139,2149,3.31436,-0.0150886,0.296738,1.00295
142,2146,3.31436,-0.0151007,0.29674,1.00296
145,2143,3.31413,-0.015101,0.296736,1.00294
148,2140,3.3139,-0.015879,0.297181,1.00232
151,2137,3.31413,-0.0157906,0.296734,1.00259
154,2134,3.31399,-0.0157729,0.297383,1.00132
157,2131,3.31357,-0.0164776,0.297183,1.00205
160,2128,3.31346,-0.016474,0.297287,1.00206
163,2125,3.31368,-0.0164711,0.296746,1.00229
166,2122,3.31561,-0.0131435,0.295404,1.00205
169,2119,3.32051,-0.0145472,0.29241,1.00816
172,2116,3.31558,-0.0150949,0.29587,1.00347
175,2113,3.31493,-0.0157531,0.296318,1.00295
178,2110,3.31463,-0.0157455,0.296319,1.00295
181,2107,3.31463,-0.0164146,0.296319,1.00261
184,2104,3.31427,-0.0163608,0.296314,1.00262
187,2101,3.31606,-0.0138747,0.295412,1.00172
190,2098,3.31573,-0.0138532,0.295411,1.00173
193,2095,3.31616,-0.013753,0.294967,1.00199
196,2092,3.31568,-0.0145424,0.295405,1.00138
199,2089,3.31554,-0.0144642,0.295411,1.00143
202,2086,3.31542,-0.0144664,0.295394,1.00138
205,2083,3.3156,-0.0151828,0.295406,1.00105
208,2080,3.31522,-0.0151754,0.295404,1.00105
211,2077,3.315,-0.0152019,0.295409,1.00106
214,2074,3.31488,-0.0151916,0.295407,1.00106
217,2071,3.31449,-0.0158959,0.295848,1.00047
220,2068,3.31484,-0.0158846,0.295406,1.0007
223,2065,3.31467,-0.0158484,0.295411,1.00074
226,2062,3.31453,-0.0166001,0.295856,1.00015
229,2059,3.3146,-0.0164901,0.295409,1.00041
232,2056,3.31461,-0.0164264,0.295499,1.00043
235,2053,3.31442,-0.0164165,0.295398,1.00041
238,2050,3.3145,-0.0165189,0.295603,1.00037
241,2047,3.3142,-0.0165453,0.295388,1.00033
244,2044,3.3141,-0.0165132,0.295386,1.00034
247,2041,3.31413,-0.0169071,0.295377,1.0001
250,2038,3.31413,-0.0170753,0.295814,0.99978
253,2035,3.31543,-0.0142658,0.294486,0.999301
256,2032,3.3158,-0.0139908,0.294042,0.998298
259,2029,3.31607,-0.0145555,0.294042,0.99938
262,2026,3.31585,-0.0145919,0.294042,0.999361
265,2023,3.31562,-0.0146288,0.294041,0.999345
268,2020,3.31534,-0.0146388,0.294037,0.999344
271,2017,3.31592,-0.0145704,0.293596,0.999843
274,2014,3.31522,-0.015365,0.294044,0.998992
277,2011,3.31571,-0.01521,0.293609,0.99931
280,2008,3.31558,-0.0157907,0.293608,0.999022
283,2005,3.31557,-0.0158523,0.29361,0.998988
286,2002,3.31505,-0.0159372,0.294045,0.998722
289,1999,3.31529,-0.0158428,0.293605,0.99898
292,1996,3.31515,-0.016608,0.294042,0.998376
295,1993,3.31485,-0.0166082,0.294042,0.998364
298,1990,3.31516,-0.0165834,0.2936,0.997291
301,1987,3.31718,-0.0138791,0.292267,0.998069
304,1984,3.31723,-0.0138287,0.29227,0.998105
307,1981,3.3172,-0.0139159,0.29233,0.998071
310,1978,3.31685,-0.0146034,0.292708,0.997489
313,1975,3.31711,-0.0145406,0.292266,0.997731
316,1972,3.31677,-0.014555,0.292263,0.997727
319,1969,3.31681,-0.0145867,0.292471,0.997718
322,1966,3.31667,-0.0145761,0.292263,0.997701
325,1963,3.31681,-0.0151746,0.292264,0.997414
328,1960,3.31662,-0.0152359,0.292268,0.997394
331,1957,3.31651,-0.0152249,0.292268,0.997404
334,1954,3.31646,-0.0158806,0.292268,0.997088
337,1951,3.31611,-0.0158726,0.292266,0.997068
340,1948,3.31605,-0.0158985,0.292267,0.997065
343,1945,3.31595,-0.0158842,0.292263,0.997051
346,1942,3.31607,-0.0165118,0.29247,0.996736
349,1939,3.31606,-0.0165862,0.292196,0.996707
352,1936,3.3177,-0.013316,0.290936,0.996472
355,1933,3.31737,-0.0139676,0.291371,0.995917
358,1930,3.31769,-0.013779,0.290939,0.99625
361,1927,3.31767,-0.0139069,0.290939,0.996174
364,1924,3.31793,-0.0139475,0.29093,0.996143
367,1921,3.31764,-0.0145512,0.290927,0.995816
370,1918,3.31748,-0.0145768,0.291134,0.995815
373,1915,3.31734,-0.0145915,0.290929,0.995812
376,1912,3.31755,-0.01526,0.290932,0.995474
379,1909,3.31752,-0.0152363,0.290935,0.995508
382,1906,3.31786,-0.0151003,0.290505,0.995816
385,1903,3.31755,-0.0158532,0.290941,0.995214
388,1900,3.31733,-0.0158341,0.290941,0.99523
391,1897,3.3171,-0.0158758,0.290937,0.995194
394,1894,3.31684,-0.0166006,0.291374,0.994605
397,1891,3.31698,-0.0165279,0.290931,0.994836
400,1888,3.31704,-0.0164512,0.290932,0.994877
403,1885,3.31692,-0.0165589,0.290944,0.994873
406,1882,3.31897,-0.0138414,0.289615,0.994354
409,1879,3.31881,-0.0139085,0.289618,0.994323
412,1876,3.31853,-0.0138806,0.289617,0.994352
415,1873,3.31813,-0.0146582,0.290055,0.99373
418,1870,3.31854,-0.0145323,0.289597,0.993942
421,1867,3.31828,-0.0145723,0.289595,0.993911
424,1864,3.31821,-0.0145333,0.289594,0.993929
427,1861,3.31826,-0.0152867,0.289599,0.993555
430,1858,3.31804,-0.0151838,0.289613,0.99367
433,1855,3.31819,-0.0152138,0.289617,0.993667
436,1852,3.31775,-0.0159049,0.290052,0.993095
439,1849,3.31765,-0.015939,0.290051,0.993078
442,1846,3.31756,-0.0159841,0.290053,0.993067
445,1843,3.31794,-0.0158401,0.289617,0.993359
448,1840,3.31739,-0.0165499,0.290263,0.992788
451,1837,3.31715,-0.0165628,0.290039,0.992738
454,1834,3.31956,-0.0132515,0.288483,0.992729
457,1831,3.31931,-0.013916,0.288713,0.992168
460,1828,3.31968,-0.0138556,0.288285,0.992446
463,1825,3.31937,-0.0138367,0.288281,0.992438
466,1822,3.31924,-0.013939,0.288271,0.992613
469,1819,3.31918,-0.0145571,0.288265,0.992016
472,1816,3.31905,-0.0145981,0.288263,0.991993
475,1813,3.31904,-0.0145961,0.288261,0.991988
478,1810,3.31931,-0.014481,0.287825,0.992249
481,1807,3.31896,-0.0152259,0.288264,0.991682
484,1804,3.31892,-0.0152838,0.288466,0.991646
487,1801,3.31871,-0.0153144,0.288261,0.991623
490,1798,3.31836,-0.0159695,0.288691,0.991062
493,1795,3.31874,-0.0159493,0.288259,0.991291
496,1792,3.31833,-0.0159518,0.288254,0.991281
499,1789,3.31827,-0.0159302,0.288259,0.99131
502,1786,3.31845,-0.0166146,0.288252,0.99093
505,1783,3.31826,-0.0166006,0.287702,0.990937
508,1780,3.31813,-0.0166029,0.288257,0.990959
511,1777,3.32033,-0.0139311,0.286932,0.990419
514,1774,3.31992,-0.0138037,0.286927,0.990475
517,1771,3.31984,-0.0139531,0.286922,0.990369
520,1768,3.31991,-0.0146117,0.286918,0.990029
523,1765,3.31965,-0.0146045,0.286919,0.990027
526,1762,3.31959,-0.0146481,0.287119,0.990003
529,1759,3.31978,-0.0152931,0.286919,0.989683
532,1756,3.31956,-0.0152778,0.286925,0.989705
535,1753,3.31947,-0.0153382,0.286941,0.989751
538,1750,3.31964,-0.0159421,0.286936,0.989414
541,1747,3.31937,-0.0158973,0.286936,0.98944
544,1744,3.31897,-0.0159348,0.286924,0.989371
547,1741,3.31951,-0.0158444,0.286482,0.989607
550,1738,3.31904,-0.0166092,0.286915,0.989002
553,1735,3.31877,-0.0166195,0.286911,0.988987
556,1732,3.31868,-0.0166202,0.286909,0.988979
559,1729,3.32026,-0.0140787,0.286015,0.988149
562,1726,3.32065,-0.0139216,0.2856,0.9885
565,1723,3.31997,-0.0147359,0.286465,0.987658
568,1720,3.32016,-0.0145782,0.286025,0.987923
571,1717,3.32038,-0.0145242,0.28558,0.988124
574,1714,3.32034,-0.0146337,0.285577,0.986556
577,1711,3.31998,-0.0153503,0.286012,0.987493
580,1708,3.3197,-0.0153237,0.286009,0.987502
583,1705,3.31962,-0.0154759,0.28602,0.987455
586,1702,3.31941,-0.016034,0.286662,0.98698
589,1699,3.31981,-0.0159491,0.286031,0.987252
592,1696,3.31957,-0.0159579,0.28603,0.987246
595,1693,3.31956,-0.0165726,0.286027,0.986917
598,1690,3.31964,-0.0166409,0.286034,0.986903
601,1687,3.3214,-0.0133225,0.284691,0.986637
604,1684,3.3209,-0.0140183,0.285209,0.98606
607,1681,3.32107,-0.0139814,0.284691,0.986299
610,1678,3.32088,-0.0146886,0.285124,0.985714
613,1675,3.32077,-0.0146261,0.284784,0.985981
616,1672,3.32055,-0.0146866,0.285132,0.985748
619,1669,3.3206,-0.0153419,0.28513,0.985411
622,1666,3.32091,-0.0153422,0.284696,0.985625
625,1663,3.32047,-0.0160633,0.285129,0.985046
628,1660,3.32015,-0.0160029,0.285327,0.98507
631,1657,3.32071,-0.0159404,0.284697,0.985314
634,1654,3.31976,-0.0166963,0.285212,0.984702
637,1651,3.32023,-0.0166294,0.284694,0.984963
640,1648,3.31984,-0.0167627,0.285128,0.984686
643,1645,3.32182,-0.0139791,0.283787,0.984141
646,1642,3.32162,-0.0140024,0.28379,0.984137
649,1639,3.32191,-0.01396,0.283359,0.98437
652,1636,3.32158,-0.0147457,0.283791,0.983708
655,1633,3.32157,-0.0147502,0.283789,0.983749
658,1630,3.32175,-0.014623,0.283359,0.984027
661,1627,3.32122,-0.0153596,0.283787,0.983434
664,1624,3.32117,-0.0154173,0.283789,0.983423
667,1621,3.32096,-0.0153672,0.283789,0.983441
670,1618,3.32096,-0.0160284,0.283787,0.983092
673,1615,3.32038,-0.0161109,0.28422,0.982849
676,1612,3.32084,-0.0161083,0.28379,0.983072
679,1609,3.32075,-0.0167326,0.283786,0.982737
682,1606,3.32061,-0.0167686,0.283791,0.98272
685,1603,3.32053,-0.0167203,0.283789,0.983014
688,1600,3.32207,-0.0141595,0.28288,0.981875
691,1597,3.32175,-0.0141825,0.282882,0.981876
694,1594,3.3219,-0.0148136,0.282881,0.981552
697,1591,3.32177,-0.0147045,0.282879,0.981603
700,1588,3.32218,-0.0146946,0.282447,0.981813
703,1585,3.32193,-0.0154201,0.282878,0.981234
706,1582,3.32139,-0.0155471,0.282877,0.981162
709,1579,3.32124,-0.0154516,0.282875,0.981211
712,1576,3.32155,-0.0161531,0.282875,0.980846
715,1573,3.32154,-0.0160828,0.282878,0.980896
718,1570,3.32147,-0.0167865,0.282885,0.980558
721,1567,3.3208,-0.0168204,0.283316,0.980334
724,1564,3.32127,-0.0168518,0.283058,0.980526
727,1561,3.32328,-0.014023,0.281552,0.980031
730,1558,3.32296,-0.0140401,0.281546,0.979993
733,1555,3.32276,-0.0140662,0.281545,0.979982
736,1552,3.32232,-0.0148525,0.281975,0.97937
739,1549,3.32255,-0.0147498,0.281542,0.979608
742,1546,3.32199,-0.0154724,0.281968,0.979024
745,1543,3.32229,-0.0153675,0.281539,0.979293
748,1540,3.32239,-0.0154492,0.281537,0.979247
751,1537,3.32229,-0.01545,0.282172,0.977838
754,1534,3.32171,-0.0161701,0.281967,0.978681
757,1531,3.32192,-0.0161093,0.281741,0.978914
760,1528,3.32154,-0.0168486,0.28197,0.978328
763,1525,3.32176,-0.016764,0.281537,0.97857
766,1522,3.32166,-0.0167589,0.281541,0.97859
769,1519,3.32276,-0.0143399,0.281067,0.977448
772,1516,3.32302,-0.0141506,0.280636,0.977747
775,1513,3.32315,-0.0142064,0.280632,0.977713
778,1510,3.32309,-0.0148978,0.280643,0.977386
781,1507,3.32283,-0.0148086,0.281271,0.977424
784,1504,3.32278,-0.0154246,0.280632,0.975693
787,1501,3.32228,-0.0155587,0.281062,0.976817
790,1498,3.32219,-0.0162358,0.28106,0.976462
793,1495,3.3223,-0.0161859,0.281061,0.976484
796,1492,3.32215,-0.0161476,0.280632,0.976717
799,1489,3.32127,-0.0170064,0.281688,0.975853
802,1486,3.32172,-0.0169789,0.281062,0.976093
805,1483,3.32323,-0.0143493,0.280159,0.975263
808,1480,3.32307,-0.0142795,0.280157,0.975293
811,1477,3.32304,-0.0141916,0.27971,0.975504
814,1474,3.32277,-0.0149598,0.280142,0.974889
817,1471,3.32254,-0.0149783,0.280142,0.974889
820,1468,3.32259,-0.0149996,0.280143,0.974882
823,1465,3.32265,-0.0156334,0.280157,0.974603
826,1462,3.3225,-0.0156199,0.280159,0.974623
829,1459,3.32241,-0.0162083,0.280162,0.974327
832,1456,3.32235,-0.0163306,0.280789,0.97424
835,1453,3.32229,-0.0169251,0.280156,0.973941
838,1450,3.32184,-0.0169759,0.280153,0.973896
841,1447,3.32368,-0.0135819,0.278805,0.973654
844,1444,3.32324,-0.0143015,0.279243,0.97309
847,1441,3.32369,-0.0142973,0.278819,0.971914
850,1438,3.32349,-0.0149553,0.279242,0.972758
853,1435,3.32322,-0.0150062,0.279251,0.97276
856,1432,3.32355,-0.015348,0.278814,0.973025
859,1429,3.32299,-0.0156546,0.279246,0.972667
862,1426,3.32337,-0.0156042,0.278814,0.972636
865,1423,3.32302,-0.0163204,0.27924,0.972049
868,1420,3.32284,-0.0163078,0.279234,0.972054
871,1417,3.32229,-0.017058,0.27967,0.971465
874,1414,3.3223,-0.0170818,0.279672,0.971456
877,1411,3.32397,-0.0143688,0.278763,0.970655
880,1408,3.32429,-0.0142941,0.278531,0.970918
883,1405,3.32429,-0.0149598,0.278332,0.970569
886,1402,3.32407,-0.0149728,0.278338,0.970568
889,1399,3.3238,-0.0149921,0.278331,0.970555
892,1396,3.32322,-0.0156796,0.27876,0.969988
895,1393,3.32348,-0.0156417,0.278327,0.970197
898,1390,3.32301,-0.0164129,0.278756,0.969588
901,1387,3.32268,-0.0164218,0.278757,0.969588
904,1384,3.32247,-0.0163938,0.278755,0.969593
907,1381,3.32205,-0.0171593,0.279829,0.969013
910,1378,3.32385,-0.0143722,0.277847,0.968451
913,1375,3.32375,-0.0144081,0.277849,0.96844
916,1372,3.32403,-0.0143438,0.277417,0.968676
919,1369,3.32349,-0.0150967,0.277846,0.968074
922,1366,3.32384,-0.0150264,0.277414,0.968309
925,1363,3.32316,-0.015812,0.277843,0.967711
928,1360,3.32335,-0.0157414,0.277395,0.967885
931,1357,3.32349,-0.0156735,0.27742,0.967996
934,1354,3.32324,-0.016368,0.277848,0.967426
937,1351,3.32325,-0.0164779,0.277843,0.96715
940,1348,3.32315,-0.0171044,0.27784,0.967038
943,1345,3.3229,-0.0171133,0.277841,0.967022
946,1342,3.32499,-0.014417,0.276699,0.966445
949,1339,3.32463,-0.0143648,0.276506,0.966461
952,1336,3.32402,-0.0151381,0.276935,0.965866
955,1333,3.32404,-0.0151949,0.277564,0.965815
958,1330,3.32359,-0.0158633,0.27737,0.96529
961,1327,3.32351,-0.0158861,0.277373,0.965297
964,1324,3.32371,-0.0157833,0.276933,0.964265
967,1321,3.32307,-0.0165144,0.277366,0.964963
970,1318,3.32336,-0.0164714,0.27693,0.965173
973,1315,3.32264,-0.0172693,0.277359,0.964545
976,1312,3.32458,-0.0138644,0.276014,0.964284
979,1309,3.32456,-0.0144649,0.276014,0.963983
982,1306,3.3244,-0.014608,0.276019,0.963911
985,1303,3.32469,-0.0145258,0.276019,0.963959
988,1300,3.32475,-0.0151368,0.276021,0.963654
991,1297,3.32452,-0.0150543,0.276021,0.963696
994,1294,3.32388,-0.0158967,0.276452,0.963067
997,1291,3.32373,-0.016448,0.276446,0.96277
1000,1288,3.32357,-0.0165115,0.276445,0.962727
1003,1285,3.32295,-0.017322,0.276877,0.962105
1006,1282,3.32273,-0.0173019,0.276877,0.962119
1009,1279,3.32516,-0.0138003,0.275098,0.962104
1012,1276,3.32453,-0.0145261,0.27553,0.961527
1015,1273,3.32426,-0.0145531,0.275528,0.961502
1018,1270,3.32379,-0.0153048,0.275963,0.960928
1021,1267,3.32367,-0.0152687,0.276043,0.960946
1024,1264,3.32351,-0.0159505,0.275964,0.960618
1027,1261,3.32283,-0.0167482,0.276399,0.959996
1030,1258,3.32304,-0.0166546,0.275965,0.960251
1033,1255,3.3227,-0.017437,0.276402,0.959648
1036,1252,3.32296,-0.0173446,0.275969,0.959901
1039,1249,3.32476,-0.0146252,0.275059,0.959096
1042,1246,3.3247,-0.0145481,0.275062,0.95916
1045,1243,3.32517,-0.0145643,0.274627,0.959275
1048,1240,3.32467,-0.0153069,0.275057,0.95875
1051,1237,3.32409,-0.0160869,0.275489,0.95814
1054,1234,3.32425,-0.0159918,0.275047,0.958361
1057,1231,3.32363,-0.0167803,0.275486,0.957778
1060,1228,3.32342,-0.0167276,0.275479,0.957785
1063,1225,3.32341,-0.0174155,0.275489,0.957465
1066,1222,3.32322,-0.0173842,0.275491,0.957492
1069,1219,3.32478,-0.014732,0.274585,0.956644
1072,1216,3.32454,-0.0147459,0.274582,0.95662
1075,1213,3.32438,-0.0153446,0.274574,0.956291
1078,1210,3.32414,-0.0153587,0.274568,0.95627
1081,1207,3.32348,-0.0161331,0.275001,0.955665
1084,1204,3.32369,-0.0160515,0.274563,0.955918
1087,1201,3.32316,-0.016862,0.275007,0.955309
1090,1198,3.32339,-0.0167615,0.274571,0.955577
1093,1195,3.3228,-0.0175406,0.275,0.954956
1096,1192,3.32483,-0.0140584,0.273651,0.954722
1099,1189,3.32471,-0.014674,0.273647,0.954391
1102,1186,3.32464,-0.0147464,0.273655,0.954383
1105,1183,3.32391,-0.0155498,0.274724,0.953768
1108,1180,3.32397,-0.0155143,0.274084,0.953778
1111,1177,3.32389,-0.016125,0.274068,0.953407
1114,1174,3.3233,-0.0169446,0.274505,0.952783
1117,1171,3.32316,-0.0170504,0.27452,0.952774
1120,1168,3.32289,-0.0159404,0.274516,0.952082
1123,1165,3.32508,-0.0140937,0.273168,0.95227
1126,1162,3.32449,-0.0148183,0.273603,0.951694
1129,1159,3.32429,-0.0148937,0.273602,0.951643
1132,1156,3.32438,-0.0137231,0.273157,0.95117
1135,1153,3.32368,-0.0145183,0.273676,0.950577
1138,1150,3.32351,-0.0145882,0.273607,0.950559
1141,1147,3.32253,-0.0223281,0.274039,0.950005
1144,1144,3.32274,-0.0222274,0.273594,0.950253
1147,1141,3.32237,-0.015987,0.274036,0.94964
1150,1138,3.32437,-0.0202017,0.27268,0.949071
1153,1135,3.32458,-0.0200562,0.272244,0.949355
1156,1132,3.32427,-0.0138304,0.272676,0.948696
1159,1129,3.32387,-0.0209093,0.272674,0.948706
1162,1126,3.32365,-0.0215975,0.272675,0.948149
1165,1123,3.32378,-0.0197748,0.272232,0.948218
1168,1120,3.32332,-0.0205817,0.272676,0.947612
1171,1117,3.32343,-0.0194696,0.272236,0.947123
1174,1114,3.32541,-0.0141365,0.270444,0.946746
1177,1111,3.32526,-0.0147694,0.270445,0.946433
1180,1108,3.32445,-0.0174039,0.271316,0.945948
1183,1105,3.32444,-0.0155857,0.270878,0.945823
1186,1102,3.32379,-0.0163468,0.271313,0.94522
1189,1099,3.32365,-0.0163793,0.271316,0.945219
1192,1096,3.32345,-0.0169682,0.271951,0.944921
1195,1093,3.32322,-0.0176929,0.271313,0.94455
1198,1090,3.32257,-0.0178034,0.27175,0.944292
1201,1087,3.32504,-0.0131235,0.269956,0.943583
1204,1084,3.32517,-0.0130152,0.269525,0.943846
1207,1081,3.32462,-0.0138456,0.269961,0.943221
1210,1078,3.32467,-0.0145227,0.269909,0.942884
1213,1075,3.32411,-0.0216518,0.26996,0.942893
1216,1072,3.32362,-0.0224287,0.270394,0.9423
1219,1069,3.32322,-0.0224506,0.270391,0.942279
1222,1066,3.32301,-0.0231042,0.270391,0.941951
1225,1063,3.32477,-0.0182766,0.269035,0.941106
1228,1060,3.32451,-0.0185409,0.269668,0.940778
1231,1057,3.32391,-0.0193065,0.269476,0.940403
1234,1054,3.32368,-0.0218521,0.269917,0.940201
1237,1051,3.32422,-0.0199106,0.269042,0.940321
1240,1048,3.32394,-0.0188544,0.26904,0.939585
1243,1045,3.32369,-0.0188716,0.269037,0.939568
1246,1042,3.32352,-0.0195725,0.269035,0.939216
1249,1039,3.32535,-0.0149789,0.26768,0.938246
1252,1036,3.32494,-0.0149791,0.267681,0.938256
1255,1033,3.32439,-0.015665,0.26811,0.937693
1258,1030,3.32455,-0.0156501,0.267681,0.937918
1261,1027,3.324,-0.0183019,0.268553,0.937433
1264,1024,3.324,-0.0171263,0.268118,0.936998
1267,1021,3.32393,-0.0171342,0.2683,0.936974
1270,1018,3.32347,-0.0161092,0.26811,0.936225
1273,1015,3.326,-0.012453,0.266448,0.936225
1276,1012,3.32518,-0.0132116,0.26675,0.935635
1279,1009,3.32423,-0.021158,0.267181,0.935047
1282,1006,3.3239,-0.0211687,0.26718,0.935056
1285,1003,3.32397,-0.0218752,0.267185,0.934707
1288,1000,3.32363,-0.0225126,0.267177,0.934372
1291,997,3.32363,-0.0225169,0.267183,0.934382
1294,994,3.32357,-0.0232557,0.267179,0.934015
1297,991,3.32336,-0.0213606,0.266742,0.933897
1300,988,3.32497,-0.0186498,0.265817,0.93302
1303,985,3.32428,-0.0169428,0.266001,0.932617
1306,982,3.32462,-0.0175851,0.265392,0.932521
1309,979,3.3242,-0.0183694,0.265816,0.931911
1312,976,3.32417,-0.0183543,0.265816,0.931812
1315,973,3.32369,-0.0172767,0.265818,0.931213
1318,970,3.32364,-0.017939,0.265819,0.930892
1321,967,3.3252,-0.0152233,0.264895,0.93001
1324,964,3.3248,-0.0151486,0.264892,0.930043
1327,961,3.32456,-0.0158483,0.264889,0.929676
1330,958,3.32505,-0.0139926,0.264024,0.929756
1333,955,3.32382,-0.0220257,0.264887,0.928953
1336,952,3.32399,-0.0225501,0.264442,0.928846
1339,949,3.32347,-0.0155287,0.264868,0.928535
1342,946,3.32263,-0.0235433,0.265317,0.927994
1345,943,3.32468,-0.0206994,0.263969,0.927414
1348,940,3.32474,-0.0206549,0.263962,0.927422
1351,937,3.325,-0.0194638,0.263601,0.926967
1354,934,3.32419,-0.0184481,0.263523,0.926198
1357,931,3.32366,-0.0203134,0.263941,0.926264
1360,928,3.32365,-0.0191086,0.263506,0.925812
1363,925,3.32316,-0.0210019,0.263938,0.925932
1366,922,3.32347,-0.0198671,0.263504,0.92542
1369,919,3.32508,-0.0152543,0.262327,0.924423
1372,916,3.32444,-0.01599,0.262593,0.923918
1375,913,3.32488,-0.0159057,0.262161,0.924172
1378,910,3.32467,-0.0165895,0.262168,0.923861
1381,907,3.32382,-0.015659,0.262593,0.92284
1384,904,3.324,-0.0155249,0.26216,0.923111
1387,901,3.3231,-0.0163373,0.26259,0.922505
1390,898,3.3244,-0.0207744,0.261667,0.921697
1393,895,3.32521,-0.0141344,0.261234,0.921574
1396,892,3.32474,-0.021347,0.261234,0.921612
1399,889,3.32415,-0.0221536,0.261091,0.921013
1402,886,3.32361,-0.0229479,0.262094,0.920427
1405,883,3.32332,-0.0236186,0.262102,0.920127
1408,880,3.32324,-0.0235742,0.262095,0.920122
1411,877,3.3251,-0.0189809,0.260731,0.919102
1414,874,3.32515,-0.0188512,0.260298,0.919356
1417,871,3.32434,-0.0196672,0.260728,0.918759
1420,868,3.32395,-0.0204518,0.261356,0.918182
1423,865,3.3239,-0.0186027,0.260728,0.918028
1426,862,3.32341,-0.0211873,0.261161,0.91783
1429,859,3.32296,-0.0201092,0.261164,0.91711
1432,856,3.32522,-0.0171466,0.2598,0.916541
1435,853,3.32537,-0.0159647,0.259371,0.916064
1438,850,3.32462,-0.017837,0.259799,0.916194
1441,847,3.32412,-0.0167839,0.259797,0.915446
1444,844,3.32418,-0.0175299,0.259796,0.915091
1447,841,3.32371,-0.01641,0.259795,0.914374
1450,838,3.32301,-0.0182946,0.260227,0.914514
1453,835,3.32531,-0.0134746,0.258432,0.91379
1456,832,3.32495,-0.0143457,0.258868,0.913172
1459,829,3.32454,-0.0149754,0.25887,0.912878
1462,826,3.32361,-0.0231067,0.259305,0.912317
1465,823,3.32405,-0.0156937,0.258872,0.912538
1468,820,3.32358,-0.0220059,0.258869,0.911792
1471,817,3.3249,-0.0191224,0.257932,0.910953
1474,814,3.32468,-0.0191213,0.257996,0.91096
1477,811,3.32467,-0.0198111,0.257929,0.910612
1480,808,3.32442,-0.0205267,0.257928,0.910276
1483,805,3.32335,-0.019604,0.258363,0.909045
1486,802,3.32367,-0.0201987,0.257936,0.909215
1489,799,3.326,-0.0134634,0.255721,0.908375
1492,796,3.32499,-0.0154337,0.256559,0.908195
1495,793,3.32471,-0.0160882,0.256555,0.90788
1498,790,3.32458,-0.0161447,0.256554,0.907846
1501,787,3.32394,-0.0150958,0.256551,0.907101
1504,784,3.32363,-0.0157116,0.256552,0.906798
1507,781,3.32321,-0.0165874,0.25698,0.906168
1510,778,3.32458,-0.0137395,0.256045,0.9053
1513,775,3.32432,-0.0144237,0.256047,0.905003
1516,772,3.32408,-0.0218596,0.256049,0.905
1519,769,3.32383,-0.0225296,0.256047,0.904684
1522,766,3.32291,-0.0233066,0.256474,0.904096
1525,763,3.32288,-0.0233692,0.256475,0.904074
1528,760,3.32491,-0.0184509,0.254674,0.903342
1531,757,3.32402,-0.0193162,0.255105,0.90273
1534,754,3.32387,-0.0182583,0.255275,0.901965
1537,751,3.32315,-0.0208388,0.255534,0.901803
1540,748,3.3226,-0.0198325,0.255533,0.901031
1543,745,3.32319,-0.0196629,0.255102,0.901324
1546,742,3.3247,-0.0174105,0.254168,0.900192
1549,739,3.32439,-0.0175211,0.254171,0.900157
1552,736,3.32409,-0.0163996,0.254168,0.899182
1555,733,3.32306,-0.0171686,0.254597,0.898847
1558,730,3.32295,-0.0179098,0.254594,0.89849
1561,727,3.32289,-0.0166959,0.254161,0.898017
1564,724,3.32432,-0.0137692,0.253223,0.897185
1567,721,3.3247,-0.013724,0.252792,0.897406
1570,718,3.32392,-0.0145079,0.25322,0.896813
1573,715,3.32286,-0.0228924,0.253651,0.896226
1576,712,3.32268,-0.0235332,0.253652,0.895922
1579,709,3.32191,-0.0243595,0.254087,0.895325
1582,706,3.32375,-0.0213436,0.252711,0.89475
1585,703,3.32403,-0.0182485,0.252019,0.894097
1588,700,3.32297,-0.0203492,0.252708,0.893951
1591,697,3.32317,-0.0191396,0.252274,0.893464
1594,694,3.32221,-0.0199266,0.252707,0.892895
1597,691,3.32194,-0.0206793,0.252705,0.892532
1600,688,3.32399,-0.0156863,0.250898,0.89182
1603,685,3.32322,-0.016566,0.251333,0.891207
1606,682,3.323,-0.016569,0.251326,0.891437
1609,679,3.3226,-0.0161618,0.251333,0.890164
1612,676,3.32229,-0.0168978,0.25133,0.890055
1615,673,3.32356,-0.0214957,0.250387,0.889
1618,670,3.32345,-0.0139834,0.250387,0.888953
1621,667,3.32316,-0.0221946,0.250386,0.888668
1624,664,3.32229,-0.0230658,0.250816,0.888054
1627,661,3.32204,-0.0237897,0.250816,0.887727
1630,658,3.32194,-0.0225372,0.250383,0.887251
1633,655,3.32333,-0.0216216,0.249874,0.886535
1636,652,3.32299,-0.0204809,0.249872,0.885816
1639,649,3.32221,-0.0193813,0.249871,0.885316
1642,646,3.32268,-0.0199813,0.250061,0.884991
1645,643,3.3219,-0.0189203,0.249434,0.884205
1648,640,3.32347,-0.0158967,0.248491,0.884725
1651,637,3.32349,-0.0146957,0.248061,0.882924
1654,634,3.32247,-0.0174903,0.248921,0.882465
1657,631,3.32252,-0.0163069,0.248489,0.881978
1660,628,3.32155,-0.0164108,0.24892,0.881722
1663,625,3.32427,-0.013228,0.247113,0.881386
1666,622,3.32293,-0.0147899,0.247975,0.880254
1669,619,3.3225,-0.0232237,0.247975,0.879925
1672,616,3.32219,-0.0232716,0.247973,0.879907
1675,613,3.32175,-0.0238874,0.247973,0.87962
1678,610,3.32364,-0.0190885,0.246593,0.879988
1681,607,3.32286,-0.0199458,0.247025,0.877967
1684,604,3.32264,-0.0205792,0.247023,0.877675
1687,601,3.32184,-0.0214803,0.247455,0.877053
1690,598,3.32179,-0.0202426,0.247024,0.876583
1693,595,3.32309,-0.0172388,0.246072,0.875733
1696,592,3.32277,-0.0180551,0.246067,0.875356
1699,589,3.32261,-0.0147967,0.245206,0.874744
1702,586,3.32194,-0.0157248,0.245634,0.87411
1705,583,3.32133,-0.016511,0.246065,0.87355
1708,580,3.32078,-0.0172566,0.246066,0.873217
1711,577,3.32233,-0.0220566,0.245116,0.872356
1714,574,3.32133,-0.0228872,0.245546,0.872016
1717,571,3.32147,-0.0215967,0.245116,0.871304
1720,568,3.32063,-0.0243546,0.24553,0.871042
1723,565,3.32067,-0.0230975,0.245103,0.870595
1726,562,3.32241,-0.0200791,0.244159,0.869796
1729,559,3.3221,-0.0208414,0.244212,0.869441
1732,556,3.32153,-0.0196845,0.244157,0.868721
1735,553,3.32114,-0.0204433,0.244156,0.86837
1738,550,3.32068,-0.0193261,0.244152,0.867844
1741,547,3.32203,-0.0163039,0.2432,0.866763
1744,544,3.3222,-0.0151011,0.242769,0.866263
1747,541,3.32121,-0.0159429,0.243251,0.865672
1750,538,3.32117,-0.0166544,0.243195,0.86385
1753,535,3.32248,-0.0136374,0.242243,0.864745
1756,532,3.32224,-0.0221986,0.242243,0.864189
1759,529,3.32118,-0.0230312,0.242673,0.863604
1762,526,3.32111,-0.0237966,0.242673,0.86328
1765,523,3.31992,-0.0234871,0.243103,0.86194
1768,520,3.32214,-0.0203501,0.241716,0.861353
1771,517,3.32116,-0.0212027,0.242147,0.860769
1774,514,3.32148,-0.0218471,0.241901,0.860693
1777,511,3.32009,-0.0208322,0.242145,0.859669
1780,508,3.31988,-0.0215519,0.242032,0.859355
1783,505,3.3214,-0.0184942,0.241187,0.858517
1786,502,3.32125,-0.0192577,0.24119,0.858185
1789,499,3.32058,-0.018091,0.241193,0.857456
1792,496,3.3203,-0.018872,0.241193,0.857117
1795,493,3.32191,-0.0137763,0.239957,0.856112
1798,490,3.32174,-0.0145332,0.239796,0.855781
1801,487,3.32078,-0.0154164,0.240223,0.855163
1804,484,3.32016,-0.0240547,0.240841,0.854865
1807,481,3.31919,-0.0256823,0.240653,0.853931
1810,478,3.32159,-0.0204426,0.238825,0.853196
1813,475,3.32017,-0.0215066,0.239692,0.852312
1816,472,3.32053,-0.0220632,0.239257,0.852284
1819,469,3.31973,-0.0209149,0.239258,0.85154
1822,466,3.31906,-0.0218037,0.240313,0.850947
1825,463,3.32041,-0.0187602,0.238731,0.850076
1828,460,3.32098,-0.0173476,0.237861,0.849866
1831,457,3.31986,-0.0182259,0.238293,0.849263
1834,454,3.31943,-0.0170477,0.238291,0.848522
1837,451,3.32081,-0.014718,0.237327,0.847322
1840,448,3.31982,-0.0236477,0.237761,0.846742
1843,445,3.31924,-0.0243319,0.237944,0.846438
1846,442,3.31903,-0.0251367,0.237757,0.846092
1849,439,3.31798,-0.0259819,0.238192,0.845521
1852,436,3.32046,-0.0207603,0.236358,0.844749
1855,433,3.31941,-0.0216883,0.236789,0.844135
1858,430,3.31931,-0.0203584,0.236354,0.843665
1861,427,3.31782,-0.0243514,0.237659,0.842816
1864,424,3.3203,-0.0168164,0.235386,0.841737
1867,421,3.31988,-0.0197009,0.235821,0.841538
1870,418,3.31919,-0.0184918,0.235822,0.840809
1873,415,3.31893,-0.0192566,0.235819,0.840489
1876,412,3.31787,-0.020148,0.236251,0.839878
1879,409,3.3204,-0.0147742,0.234414,0.839155
1882,406,3.31933,-0.0157104,0.234847,0.838538
1885,403,3.31841,-0.0254728,0.235278,0.837644
1888,400,3.31727,-0.0264016,0.235715,0.837045
1891,397,3.31967,-0.0210683,0.233875,0.836538
1894,394,3.3187,-0.0219347,0.234307,0.835691
1897,391,3.31849,-0.0227031,0.234305,0.835376
1900,388,3.31757,-0.0236646,0.234738,0.834758
1903,385,3.31937,-0.019115,0.233331,0.833447
1906,382,3.31902,-0.0199326,0.23333,0.833095
1909,379,3.31811,-0.0207966,0.233769,0.832546
1912,376,3.31813,-0.0194972,0.233333,0.831965
1915,373,3.31954,-0.0163356,0.232542,0.83118
1918,370,3.31947,-0.0170995,0.232358,0.830862
1921,367,3.31845,-0.0159385,0.232356,0.830102
1924,364,3.31747,-0.0258256,0.232832,0.829211
1927,361,3.31638,-0.0268007,0.233268,0.828587
1930,358,3.31859,-0.0234063,0.231815,0.82803
1933,355,3.31824,-0.0242302,0.231815,0.827681
1936,352,3.31735,-0.0250853,0.232247,0.827101
1939,349,3.31729,-0.0238134,0.231808,0.82661
1942,346,3.31822,-0.021562,0.231272,0.825131
1945,343,3.31826,-0.0201566,0.230834,0.824683
1948,340,3.31716,-0.0211276,0.23127,0.824077
1951,337,3.31717,-0.0197794,0.230832,0.822224
1954,334,3.3188,-0.0173422,0.229855,0.822417
1957,331,3.31846,-0.0180962,0.229854,0.822107
1960,328,3.31763,-0.0190877,0.23029,0.821484
1963,325,3.31674,-0.017805,0.230288,0.820756
1966,322,3.31902,-0.0144278,0.228871,0.820169
1969,319,3.31759,-0.0238278,0.229306,0.819548
1972,316,3.31752,-0.0245575,0.229305,0.819249
1975,313,3.31673,-0.026327,0.22975,0.818325
1978,310,3.31604,-0.0250754,0.22975,0.817602
1981,307,3.31821,-0.023854,0.228772,0.817165
1984,304,3.31731,-0.0226291,0.228766,0.816403
1987,301,3.31698,-0.02341,0.228759,0.816075
1990,298,3.31564,-0.0231167,0.229816,0.814724
1993,295,3.31786,-0.0197506,0.227774,0.814121
1996,292,3.31733,-0.0205396,0.227772,0.814047
1999,289,3.31669,-0.0193132,0.22777,0.813054
2002,286,3.31639,-0.0200745,0.227767,0.812733
2005,283,3.31725,-0.0177664,0.227222,0.811246
2008,280,3.3173,-0.0163795,0.226782,0.81078
2011,277,3.31653,-0.0193738,0.22722,0.810606
2014,274,3.31555,-0.0266144,0.22722,0.809899
2017,271,3.31742,-0.0241282,0.226232,0.810062
2020,268,3.31624,-0.0251252,0.226676,0.808096
2023,265,3.31637,-0.0237239,0.226233,0.807622
2026,262,3.31514,-0.0246988,0.226674,0.807024
2029,259,3.31745,-0.0212666,0.225244,0.806425
2032,256,3.31717,-0.0220507,0.225241,0.806107
2035,253,3.31573,-0.0217633,0.225712,0.804755
2038,250,3.31561,-0.0225178,0.225676,0.804443
2041,247,3.31459,-0.0213414,0.225675,0.803669
2044,244,3.31714,-0.0179172,0.224248,0.803071
2047,241,3.31609,-0.0187755,0.224687,0.802505
2050,238,3.31546,-0.0183634,0.224687,0.801426
2053,235,3.31522,-0.0192017,0.224687,0.801101
2056,232,3.31667,-0.0158932,0.223691,0.800197
2059,229,3.31608,-0.0253536,0.22369,0.799665
2062,226,3.3153,-0.0176078,0.22413,0.799299
2065,223,3.31456,-0.0271185,0.224126,0.798981
2068,220,3.31682,-0.0236601,0.22269,0.798619
2071,217,3.31566,-0.0234269,0.223136,0.797013
2074,214,3.31547,-0.0242341,0.223138,0.796708
2077,211,3.31461,-0.0251592,0.223612,0.796134
2080,208,3.31635,-0.0195555,0.222142,0.795112
2083,205,3.31628,-0.0203865,0.222141,0.794789
2086,202,3.315,-0.0213289,0.222578,0.794174
2089,199,3.31508,-0.0207458,0.22213,0.793386
2092,196,3.31398,-0.0217117,0.222571,0.792785
2095,193,3.31607,-0.0181959,0.221129,0.792166
2098,190,3.31547,-0.0169393,0.221127,0.791415
2101,187,3.31493,-0.0177972,0.221125,0.79107
2104,184,3.31369,-0.0282953,0.221566,0.790212
2107,181,3.31571,-0.0250329,0.220573,0.789313
2110,178,3.31469,-0.0260618,0.221019,0.788694
2113,175,3.3145,-0.0268229,0.22102,0.788417
2116,172,3.31424,-0.0276549,0.22102,0.788106
2119,169,3.31544,-0.0229567,0.220016,0.78646
2122,166,3.31519,-0.0237612,0.220143,0.786152
2125,163,3.31401,-0.0248209,0.220457,0.785522
2128,160,3.31377,-0.0233289,0.220007,0.785065
2131,157,3.3134,-0.0242061,0.220006,0.784726
2134,154,3.31507,-0.0207587,0.218999,0.783849
2137,151,3.31503,-0.0193123,0.218576,0.783383
2140,148,3.31431,-0.0204307,0.218999,0.782745
2143,145,3.31332,-0.0221562,0.219448,0.781871
2146,142,3.31595,-0.0162623,0.217555,0.781144
2149,139,3.31478,-0.0172322,0.217994,0.780533
2152,136,3.31378,-0.0182097,0.218435,0.780177
2155,133,3.31333,-0.0280834,0.219056,0.779617
2158,130,3.31526,-0.0156433,0.217428,0.778701
2161,127,3.31417,-0.0264702,0.217873,0.777815
2164,124,3.31379,-0.0272899,0.21787,0.777494
2167,121,3.31268,-0.0283324,0.218317,0.776877
2170,118,3.31221,-0.0291753,0.218313,0.776551
2173,115,3.31433,-0.0233774,0.216978,0.775517
2176,112,3.31382,-0.0219122,0.216403,0.774862
2179,109,3.3137,-0.0205373,0.215957,0.774557
2182,106,3.31287,-0.0247071,0.216851,0.773799
2185,103,3.31457,-0.0189049,0.21539,0.772755
2188,100,3.31437,-0.0196792,0.215393,0.772478
2191,97,3.31343,-0.020746,0.215836,0.77184
2194,94,3.31243,-0.0194549,0.215836,0.771087
2197,91,3.31469,-0.0248626,0.214373,0.770515
2200,88,3.31468,-0.0166364,0.21437,0.770164
2203,85,3.31322,-0.0268335,0.214814,0.769551
2206,82,3.31227,-0.0286695,0.21526,0.768642
2209,79,3.31202,-0.0295605,0.215259,0.768325
2212,76,3.3138,-0.0236378,0.21379,0.767286
2215,73,3.31369,-0.0245148,0.213793,0.766974
2218,70,3.31273,-0.0255921,0.214242,0.76637
2221,67,3.31194,-0.0242273,0.214241,0.765631
2224,64,3.31433,-0.0205451,0.212772,0.765026
2227,61,3.31404,-0.0213393,0.212769,0.764718
2230,58,3.31312,-0.0233211,0.213218,0.763766
2233,55,3.31242,-0.0219571,0.213213,0.763021
2236,52,3.31209,-0.0228314,0.213211,0.762702
2239,49,3.3137,-0.0193192,0.212188,0.761778
2242,46,3.31359,-0.0177495,0.211914,0.761358
2245,43,3.31279,-0.0187934,0.212187,0.760736
2248,40,3.31219,-0.0196752,0.212186,0.760415
2251,37,3.31133,-0.0207014,0.212636,0.759814
2254,34,3.31364,-0.0263021,0.211165,0.759227
2257,31,3.31294,-0.0180641,0.211614,0.758584
2260,28,3.31184,-0.0293146,0.21218,0.757683
2263,25,3.31152,-0.0277571,0.211609,0.757232
2266,22,3.31331,-0.0241669,0.210581,0.756334
2269,19,3.31281,-0.0250734,0.210577,0.756003
2272,16,3.3127,-0.0235377,0.210744,0.755562
2275,13,3.3118,-0.0245181,0.210574,0.754968
2278,10,3.31336,-0.0210007,0.209546,0.754039
2281,7,3.31312,-0.0218311,0.209543,0.75374
2284,4,3.31251,-0.0213758,0.209541,0.752657
2285,3,3.31223,-0.021241,0.20954,0.752704