File: hust_correlation_analysis/matrices/HUST_3-1_cycle_feature_matrix.csv
cycle_number,rul,voltage,current,capacity,charge_capacity
1,1940,3.31681,0.0187376,0.293916,1.03015
3,1938,3.29885,-0.0205346,0.310991,1.0014
5,1936,3.30135,-0.0202421,0.309511,1.0049
7,1934,3.30243,-0.0207255,0.308702,1.00778
9,1932,3.30337,-0.021157,0.30803,1.01039
11,1930,3.30607,-0.0185118,0.306187,1.01263
13,1928,3.30583,-0.019706,0.30617,1.01463
15,1926,3.30726,-0.0183168,0.304811,1.01603
17,1924,3.30719,-0.0200655,0.304803,1.01771
19,1922,3.30845,-0.0188421,0.303914,1.01881
21,1920,3.30908,-0.0180936,0.303189,1.01964
23,1918,3.30939,-0.0180771,0.302585,1.01989
25,1916,3.31024,-0.0174278,0.302149,1.02048
27,1914,3.31066,-0.0167518,0.301709,1.02106
29,1912,3.3095,-0.0198499,0.302156,1.02179
31,1910,3.31051,-0.0191063,0.301432,1.02258
33,1908,3.31085,-0.0184935,0.300814,1.02308
35,1906,3.311,-0.0191655,0.300818,1.02274
37,1904,3.31145,-0.0184937,0.300378,1.02331
39,1902,3.31118,-0.0184038,0.300373,1.02334
41,1900,3.31162,-0.01847,0.299937,1.02351
43,1898,3.31161,-0.018504,0.299937,1.0235
45,1896,3.31167,-0.0191049,0.29993,1.02318
47,1894,3.31208,-0.0191207,0.299495,1.02338
49,1892,3.31186,-0.0191616,0.299495,1.02335
51,1890,3.31156,-0.0191366,0.299494,1.02336
53,1888,3.31331,-0.016652,0.29817,1.02277
55,1886,3.31331,-0.0175341,0.298169,1.02356
57,1884,3.3136,-0.0166197,0.297743,1.02301
59,1882,3.31428,-0.016541,0.297315,1.02328
61,1880,3.31413,-0.0172508,0.29774,1.02269
63,1878,3.3139,-0.0172854,0.297836,1.02268
65,1876,3.31421,-0.0171615,0.296704,1.02294
67,1874,3.31368,-0.0194182,0.298158,1.02259
69,1872,3.3134,-0.0195033,0.298157,1.02256
71,1870,3.31389,-0.0194339,0.297731,1.02281
73,1868,3.31339,-0.0201255,0.298152,1.02222
75,1866,3.31308,-0.0202233,0.298157,1.02218
77,1864,3.31311,-0.0205768,0.298141,1.02196
79,1862,3.31453,-0.0176221,0.296841,1.02166
81,1860,3.31475,-0.0165842,0.296418,1.02116
83,1858,3.31485,-0.0165777,0.296417,1.02116
85,1856,3.31446,-0.0173135,0.296843,1.02057
87,1854,3.31496,-0.0172427,0.296412,1.02082
89,1852,3.31503,-0.0172313,0.29641,1.02082
91,1850,3.31465,-0.0188215,0.296835,1.02104
93,1848,3.3144,-0.0195296,0.297258,1.02044
95,1846,3.31399,-0.0194904,0.297256,1.02045
97,1844,3.31382,-0.0195446,0.297254,1.02042
99,1842,3.31395,-0.0202457,0.29726,1.02007
101,1840,3.31368,-0.0201626,0.297264,1.02012
103,1838,3.31328,-0.0191805,0.297269,1.01939
105,1836,3.31524,-0.0166317,0.295954,1.01883
107,1834,3.31489,-0.0166288,0.295949,1.01882
109,1832,3.31481,-0.0166174,0.295947,1.01883
111,1830,3.31507,-0.0172399,0.295945,1.01849
113,1828,3.31515,-0.0172502,0.295941,1.01848
115,1826,3.31529,-0.0172461,0.29594,1.01848
117,1824,3.31515,-0.0172313,0.295942,1.01849
119,1822,3.31439,-0.0195404,0.296794,1.01812
121,1820,3.31433,-0.0179567,0.296367,1.01789
123,1818,3.31379,-0.0203554,0.297222,1.01748
125,1816,3.31423,-0.0185685,0.296369,1.01758
127,1814,3.31383,-0.0186799,0.2968,1.01731
129,1812,3.31316,-0.019318,0.297234,1.01678
131,1810,3.31326,-0.0192065,0.296804,1.01705
133,1808,3.31487,-0.0167507,0.295906,1.01621
135,1806,3.31474,-0.0167741,0.295906,1.01619
137,1804,3.3153,-0.0167098,0.295475,1.01644
139,1802,3.3154,-0.0166703,0.295473,1.01645
141,1800,3.31509,-0.017344,0.295897,1.01587
143,1798,3.31453,-0.0174646,0.29633,1.01559
145,1796,3.31415,-0.0190607,0.296758,1.01582
147,1794,3.31399,-0.0196756,0.296753,1.01548
149,1792,3.31408,-0.0196818,0.296262,1.0155
151,1790,3.31398,-0.0180416,0.29633,1.0153
153,1788,3.31345,-0.0187526,0.296769,1.01473
155,1786,3.31339,-0.0186772,0.296775,1.01479
157,1784,3.31276,-0.0193704,0.297209,1.01422
159,1782,3.31276,-0.019337,0.297208,1.01424
161,1780,3.31327,-0.0193296,0.296774,1.01445
163,1778,3.31522,-0.0161286,0.29544,1.0142
165,1776,3.31496,-0.0167463,0.295874,1.01347
167,1774,3.31484,-0.0167429,0.29587,1.01365
169,1772,3.31422,-0.0169114,0.296306,1.01336
171,1770,3.31425,-0.0174621,0.296306,1.01307
173,1768,3.31405,-0.0174689,0.296308,1.01308
175,1766,3.31395,-0.017526,0.296409,1.01306
177,1764,3.31357,-0.0181781,0.296749,1.01251
179,1762,3.31333,-0.0181039,0.296753,1.01257
181,1760,3.31312,-0.0181208,0.296752,1.01255
183,1758,3.31289,-0.0188338,0.297187,1.01197
185,1756,3.31315,-0.0187195,0.296754,1.01225
187,1754,3.31329,-0.0187403,0.297371,1.01224
189,1752,3.31303,-0.0188423,0.297189,1.01197
191,1750,3.313,-0.0194091,0.297188,1.01167
193,1748,3.31224,-0.0194702,0.297623,1.01142
195,1746,3.3142,-0.0169353,0.296293,1.01082
197,1744,3.31403,-0.0169393,0.29629,1.01082
199,1742,3.31436,-0.0168606,0.295851,1.01106
201,1740,3.31383,-0.0169504,0.296288,1.01079
203,1738,3.31327,-0.0176229,0.296723,1.01024
205,1736,3.31309,-0.0176369,0.296725,1.01024
207,1734,3.31305,-0.0176302,0.296705,1.01018
209,1732,3.31295,-0.0178323,0.296323,1.01009
211,1730,3.31348,-0.0182968,0.296718,1.00988
213,1728,3.31331,-0.0182124,0.296716,1.00991
215,1726,3.31313,-0.0182337,0.296717,1.0099
217,1724,3.31281,-0.0189672,0.297157,1.00932
219,1722,3.31253,-0.0189431,0.297156,1.00933
221,1720,3.31293,-0.0188613,0.29672,1.0096
223,1718,3.31243,-0.0189882,0.297158,1.00931
225,1716,3.31183,-0.019688,0.297596,1.00874
227,1714,3.31146,-0.0195498,0.297597,1.0088
229,1712,3.31148,-0.0196192,0.2976,1.00878
231,1710,3.31362,-0.0170531,0.296263,1.00818
233,1708,3.31364,-0.0170639,0.296656,1.00818
235,1706,3.31368,-0.0170392,0.29626,1.00819
237,1704,3.3135,-0.0170007,0.296256,1.00819
239,1702,3.31356,-0.017022,0.296252,1.00816
241,1700,3.31324,-0.0177438,0.296687,1.00756
243,1698,3.31295,-0.0177428,0.296676,1.00752
245,1696,3.3129,-0.0177817,0.296674,1.0075
247,1694,3.31265,-0.0194497,0.297721,1.00765
249,1692,3.3123,-0.0194903,0.2971,1.00763
251,1690,3.31212,-0.0200751,0.297525,1.00707
253,1688,3.31181,-0.020208,0.297535,1.00702
255,1686,3.31185,-0.0199509,0.29751,1.00707
257,1684,3.31153,-0.0196713,0.297517,1.00723
259,1682,3.3119,-0.0199806,0.297509,1.00705
261,1680,3.31183,-0.020827,0.297527,1.00669
263,1678,3.31176,-0.0208215,0.297528,1.00669
265,1676,3.31158,-0.0208238,0.297533,1.0067
267,1674,3.3116,-0.0208478,0.297528,1.00669
269,1672,3.31167,-0.0214203,0.297526,1.00639
271,1670,3.31123,-0.0214735,0.297528,1.00636
273,1668,3.31045,-0.0215585,0.298062,1.00608
275,1666,3.31243,-0.018316,0.296622,1.00581
277,1664,3.31247,-0.018871,0.296627,1.00555
279,1662,3.31251,-0.018982,0.296635,1.00551
281,1660,3.31265,-0.0195732,0.29664,1.00524
283,1658,3.31243,-0.0195454,0.296646,1.00528
285,1656,3.3124,-0.019546,0.296642,1.00527
287,1654,3.31236,-0.0202137,0.297086,1.00472
289,1652,3.31227,-0.020174,0.297082,1.00473
291,1650,3.31207,-0.0202098,0.29708,1.0047
293,1648,3.31186,-0.0201984,0.297078,1.00471
295,1646,3.31161,-0.0202333,0.297076,1.00467
297,1644,3.31111,-0.0209901,0.297519,1.00406
299,1642,3.31113,-0.0209633,0.297678,1.00407
301,1640,3.31101,-0.0209543,0.297515,1.00407
303,1638,3.31086,-0.0216399,0.297524,1.00375
305,1636,3.31092,-0.0216133,0.29753,1.00379
307,1634,3.31287,-0.0183102,0.296192,1.00357
309,1632,3.31326,-0.0172103,0.296143,1.00307
311,1630,3.31282,-0.01898,0.296636,1.00301
313,1628,3.31253,-0.0189265,0.296631,1.00328
315,1626,3.31277,-0.0188738,0.296185,1.00326
317,1624,3.31232,-0.0190156,0.296625,1.00296
319,1622,3.31213,-0.0196663,0.296623,1.00263
321,1620,3.31209,-0.0196577,0.297246,1.00262
323,1618,3.31148,-0.0197379,0.297062,1.00234
325,1616,3.31169,-0.0196162,0.296616,1.00262
327,1614,3.3113,-0.0204009,0.297063,1.00201
329,1612,3.31125,-0.0203982,0.297069,1.00204
331,1610,3.31151,-0.0209708,0.297074,1.00178
333,1608,3.31167,-0.0209854,0.297077,1.00178
335,1606,3.31167,-0.0209125,0.29708,1.00181
337,1604,3.31132,-0.0209447,0.297074,1.00179
339,1602,3.31094,-0.0217072,0.297523,1.00119
341,1600,3.31081,-0.0217062,0.297522,1.00119
343,1598,3.31076,-0.021733,0.297522,1.00118
345,1596,3.31041,-0.0216374,0.297522,1.00123
347,1594,3.3102,-0.0217299,0.297519,1.00117
349,1592,3.31178,-0.0191466,0.296613,1.00032
351,1590,3.31222,-0.0190679,0.296166,1.00057
353,1588,3.31229,-0.0190959,0.296169,1.00057
355,1586,3.3122,-0.0190107,0.29617,1.00061
357,1584,3.31213,-0.0180734,0.296182,0.999865
359,1582,3.31217,-0.0180288,0.296187,0.999891
361,1580,3.31186,-0.018756,0.296631,0.999309
363,1578,3.31171,-0.0187184,0.29663,0.999325
365,1576,3.31202,-0.0186768,0.296182,0.99956
367,1574,3.31155,-0.0186504,0.29618,0.999568
369,1572,3.31096,-0.0188333,0.296624,0.999247
371,1570,3.31057,-0.0211997,0.297683,0.998881
373,1568,3.31098,-0.0193686,0.296623,0.998963
375,1566,3.31075,-0.0211044,0.297073,0.999152
377,1564,3.31066,-0.021087,0.297068,0.999148
379,1562,3.3106,-0.0211422,0.297067,0.999125
381,1560,3.31097,-0.0200438,0.296627,0.99865
383,1558,3.31068,-0.0200747,0.297079,0.998437
385,1556,3.31255,-0.0167119,0.295733,0.998202
387,1554,3.31256,-0.0173745,0.295735,0.997889
389,1552,3.31229,-0.0172732,0.295735,0.997924
391,1550,3.3121,-0.0174112,0.295734,0.997862
393,1548,3.31218,-0.0174256,0.295731,0.997854
395,1546,3.3117,-0.0181233,0.296184,0.997288
397,1544,3.31145,-0.0180918,0.296181,0.997289
399,1542,3.31129,-0.0180945,0.296177,0.997286
401,1540,3.31141,-0.0181522,0.296174,0.997246
403,1538,3.31159,-0.0187419,0.296172,0.996951
405,1536,3.31156,-0.0187859,0.296177,0.996941
407,1534,3.31152,-0.0186987,0.296186,0.997008
409,1532,3.31063,-0.0195578,0.297087,0.996397
411,1530,3.31102,-0.0194557,0.296641,0.996433
413,1528,3.31113,-0.0194336,0.296642,0.99645
415,1526,3.31086,-0.019452,0.29664,0.996441
417,1524,3.31022,-0.0201887,0.297092,0.995851
419,1522,3.30998,-0.0201779,0.297093,0.995858
421,1520,3.30984,-0.0201237,0.297086,0.99587
423,1518,3.30991,-0.0201785,0.297083,0.99583
425,1516,3.3119,-0.0168606,0.29635,0.995547
427,1514,3.31175,-0.0174592,0.295718,0.995234
429,1512,3.31179,-0.0175407,0.29572,0.995198
431,1510,3.31203,-0.0175337,0.296117,0.995189
433,1508,3.31201,-0.017457,0.295733,0.995275
435,1506,3.31154,-0.0181748,0.296189,0.994713
437,1504,3.31139,-0.0181548,0.296192,0.994724
439,1502,3.31097,-0.0189199,0.296654,0.994157
441,1500,3.31123,-0.0187979,0.296203,0.994444
443,1498,3.3108,-0.018913,0.296662,0.994173
445,1496,3.31042,-0.0188552,0.296657,0.994203
447,1494,3.31042,-0.018921,0.296658,0.99417
449,1492,3.31055,-0.0194966,0.296654,0.993869
451,1490,3.31042,-0.0195378,0.296652,0.993845
453,1488,3.31052,-0.0195346,0.296649,0.993844
455,1486,3.31058,-0.0194747,0.296637,0.993843
457,1484,3.30984,-0.0195634,0.297088,0.993561
459,1482,3.30996,-0.0202913,0.297094,0.991739
461,1480,3.31002,-0.0202468,0.297102,0.99327
463,1478,3.31181,-0.016917,0.295753,0.993018
465,1476,3.31171,-0.017573,0.295766,0.992724
467,1474,3.31111,-0.0176829,0.296224,0.992461
469,1472,3.31139,-0.0175409,0.295756,0.992714
471,1470,3.31133,-0.0175377,0.295736,0.992657
473,1468,3.31133,-0.0175363,0.29573,0.992646
475,1466,3.31108,-0.0175922,0.295725,0.992609
477,1464,3.31075,-0.0183219,0.296177,0.992019
479,1462,3.31143,-0.0182221,0.296347,0.992283
481,1460,3.31092,-0.0183232,0.296175,0.992004
483,1458,3.31066,-0.0183115,0.296172,0.992002
485,1456,3.31061,-0.0183426,0.296172,0.991883
487,1454,3.3106,-0.0189077,0.296179,0.991747
489,1452,3.31055,-0.019032,0.296179,0.99168
491,1450,3.31031,-0.0189834,0.296176,0.991694
493,1448,3.30976,-0.019699,0.296629,0.991098
495,1446,3.30958,-0.0197195,0.296629,0.991093
497,1444,3.30975,-0.0197072,0.296625,0.991097
499,1442,3.30965,-0.0197192,0.296624,0.991085
501,1440,3.30948,-0.0197414,0.296622,0.991073
503,1438,3.30965,-0.0203914,0.296624,0.99075
505,1436,3.30972,-0.0203755,0.296621,0.990756
507,1434,3.30916,-0.0204858,0.297476,0.990464
509,1432,3.3116,-0.0170085,0.29526,0.990475
511,1430,3.31097,-0.017719,0.295714,0.989906
513,1428,3.31083,-0.0178292,0.295721,0.989876
515,1426,3.31076,-0.0178145,0.295727,0.98991
517,1424,3.31041,-0.0185003,0.29619,0.989368
519,1422,3.31012,-0.0184278,0.296191,0.989402
521,1420,3.31051,-0.0183248,0.295733,0.989672
523,1418,3.31053,-0.0183106,0.295726,0.989664
525,1416,3.3102,-0.0191719,0.296181,0.989012
527,1414,3.3102,-0.019148,0.296179,0.989027
529,1412,3.31022,-0.019161,0.296177,0.989006
531,1410,3.31,-0.019134,0.296174,0.989006
533,1408,3.31014,-0.0191526,0.296171,0.988992
535,1406,3.30962,-0.0198546,0.296633,0.988429
537,1404,3.3097,-0.0197671,0.296177,0.988704
539,1402,3.30953,-0.0196682,0.296185,0.988783
541,1400,3.30917,-0.0205639,0.296649,0.988139
543,1398,3.30904,-0.0204322,0.29665,0.988199
545,1396,3.31105,-0.0171593,0.295294,0.987914
547,1394,3.31062,-0.0178178,0.295743,0.987345
549,1392,3.31051,-0.0178964,0.295748,0.987312
551,1390,3.31105,-0.0176668,0.295277,0.987623
553,1388,3.3111,-0.017771,0.295275,0.987559
555,1386,3.31038,-0.0178827,0.295725,0.987258
557,1384,3.31085,-0.0177846,0.295263,0.987518
559,1382,3.31055,-0.0184912,0.295722,0.986941
561,1380,3.31022,-0.0185203,0.29572,0.986925
563,1378,3.30996,-0.0185816,0.295719,0.986892
565,1376,3.30992,-0.0185735,0.295722,0.986685
567,1374,3.30958,-0.0193254,0.296191,0.986343
569,1372,3.30947,-0.0192393,0.296601,0.986416
571,1370,3.30951,-0.0199155,0.296205,0.9861
573,1368,3.30925,-0.0199078,0.296211,0.986123
575,1366,3.30938,-0.0198996,0.296207,0.986124
577,1364,3.30949,-0.0198836,0.296196,0.9861
579,1362,3.30934,-0.0198415,0.296191,0.986109
581,1360,3.30885,-0.0206333,0.29665,0.985483
583,1358,3.30879,-0.0206021,0.296648,0.985495
585,1356,3.30864,-0.0205931,0.29665,0.985509
587,1354,3.31089,-0.0171011,0.294822,0.985501
589,1352,3.31034,-0.0179181,0.295278,0.985113
591,1350,3.30972,-0.0180426,0.295747,0.984594
593,1348,3.30986,-0.0180078,0.295759,0.984656
595,1346,3.30992,-0.0186223,0.295776,0.984399
597,1344,3.30965,-0.0185963,0.295777,0.984416
599,1342,3.3094,-0.0193475,0.296245,0.983847
601,1340,3.31003,-0.0192031,0.29578,0.98415
603,1338,3.30977,-0.0191929,0.296409,0.984138
605,1336,3.30925,-0.0193483,0.296239,0.983838
607,1334,3.30947,-0.0198898,0.296241,0.983574
609,1332,3.30938,-0.0199501,0.296238,0.983543
611,1330,3.30897,-0.019968,0.296237,0.983527
613,1328,3.30893,-0.0199996,0.296239,0.983515
615,1326,3.30838,-0.0207924,0.296702,0.982912
617,1324,3.30806,-0.0208053,0.296704,0.982911
619,1322,3.30824,-0.0206974,0.296707,0.98297
621,1320,3.30965,-0.0180415,0.295806,0.982122
623,1318,3.30982,-0.0178828,0.295341,0.982416
625,1316,3.3103,-0.0179255,0.295341,0.982408
627,1314,3.30995,-0.0179407,0.295343,0.982398
629,1312,3.30959,-0.018686,0.295811,0.981833
631,1310,3.30952,-0.0186532,0.29581,0.981843
633,1308,3.30952,-0.0186912,0.29581,0.981826
635,1306,3.30917,-0.0194318,0.296276,0.981242
637,1304,3.30933,-0.0193493,0.295813,0.981514
639,1302,3.30915,-0.019398,0.295809,0.981484
641,1300,3.30908,-0.0194033,0.295808,0.981477
643,1298,3.30857,-0.0202205,0.296272,0.980859
645,1296,3.3082,-0.0201004,0.296268,0.980895
647,1294,3.30801,-0.0201384,0.296274,0.9809
649,1292,3.30847,-0.0208204,0.296272,0.980568
651,1290,3.30822,-0.0208387,0.296273,0.980553
653,1288,3.30798,-0.0206393,0.29627,0.980654
655,1286,3.30821,-0.0208102,0.296268,0.980564
657,1284,3.31034,-0.0173387,0.294892,0.980296
659,1282,3.30977,-0.0181154,0.295361,0.979697
661,1280,3.30957,-0.0181026,0.295359,0.979703
663,1278,3.30948,-0.0188365,0.295358,0.978059
665,1276,3.30943,-0.0188501,0.295354,0.97933
667,1274,3.30926,-0.0188496,0.295351,0.979323
669,1272,3.30837,-0.0189102,0.29582,0.979069
671,1270,3.30849,-0.0195588,0.295813,0.978743
673,1268,3.30862,-0.0195866,0.295979,0.978541
675,1266,3.30832,-0.0196011,0.295817,0.978737
677,1264,3.30815,-0.0196188,0.295814,0.978718
679,1262,3.30844,-0.0202326,0.29582,0.978448
681,1260,3.30852,-0.0201835,0.295816,0.978463
683,1258,3.30825,-0.020194,0.295198,0.978466
685,1256,3.3079,-0.0209824,0.296283,0.977844
687,1254,3.30771,-0.0209952,0.296284,0.977845
689,1252,3.30967,-0.0175643,0.294908,0.977565
691,1250,3.30948,-0.0181699,0.294902,0.977251
693,1248,3.30926,-0.0182231,0.294898,0.977216
695,1246,3.30922,-0.0182355,0.2949,0.977218
697,1244,3.30915,-0.0182141,0.294897,0.977224
699,1242,3.30854,-0.0188527,0.295361,0.976673
701,1240,3.30841,-0.0190801,0.295368,0.976587
703,1238,3.3085,-0.0189027,0.295371,0.976683
705,1236,3.3085,-0.0196771,0.295374,0.976325
707,1234,3.30846,-0.0196442,0.295378,0.976354
709,1232,3.30901,-0.0201528,0.29538,0.976113
711,1230,3.30817,-0.0203589,0.295847,0.97578
713,1228,3.30784,-0.020346,0.295847,0.975788
715,1226,3.3083,-0.0202574,0.295376,0.97606
717,1224,3.3078,-0.0210417,0.295842,0.975448
719,1222,3.30739,-0.0211399,0.295841,0.97539
721,1220,3.30741,-0.021058,0.29584,0.975425
723,1218,3.3089,-0.0183909,0.294932,0.974544
725,1216,3.30873,-0.0183698,0.294932,0.974562
727,1214,3.30862,-0.0183227,0.294931,0.97458
729,1212,3.30816,-0.0191851,0.295409,0.973955
731,1210,3.30863,-0.0191059,0.294944,0.974251
733,1208,3.30877,-0.0189732,0.294942,0.974322
735,1206,3.30808,-0.0197084,0.295412,0.973733
737,1204,3.30815,-0.0197505,0.295811,0.973712
739,1202,3.30845,-0.0203737,0.295417,0.973433
741,1200,3.3081,-0.0203411,0.295414,0.97344
743,1198,3.30785,-0.0204139,0.295414,0.973399
745,1196,3.30738,-0.0211792,0.295886,0.97261
747,1194,3.30705,-0.0212166,0.295886,0.972797
749,1192,3.30688,-0.0211895,0.296523,0.972803
751,1190,3.30878,-0.0176589,0.294496,0.972524
753,1188,3.30879,-0.0184199,0.294498,0.972165
755,1186,3.30869,-0.0182803,0.295117,0.972197
757,1184,3.3084,-0.0184367,0.294473,0.97209
759,1182,3.30809,-0.019266,0.294959,0.971495
761,1180,3.3087,-0.0190526,0.294469,0.9718
763,1178,3.30845,-0.0190649,0.294473,0.971803
765,1176,3.30797,-0.0192032,0.294942,0.971501
767,1174,3.30816,-0.0198391,0.294963,0.971253
769,1172,3.30758,-0.0206856,0.295437,0.970624
771,1170,3.30723,-0.0206151,0.295435,0.970649
773,1168,3.30697,-0.0206525,0.295436,0.972148
775,1166,3.30686,-0.0206535,0.295431,0.97063
777,1164,3.30685,-0.0213501,0.295429,0.970287
779,1162,3.30652,-0.0212929,0.295431,0.970313
781,1160,3.30642,-0.0212786,0.295424,0.970314
783,1158,3.30881,-0.0183547,0.294018,0.969542
785,1156,3.30792,-0.0187017,0.294514,0.969351
787,1154,3.30853,-0.0185712,0.294041,0.969671
789,1152,3.30826,-0.0192398,0.294513,0.969122
791,1150,3.30797,-0.0191815,0.294516,0.969153
793,1148,3.30796,-0.0192688,0.294608,0.969118
795,1146,3.30764,-0.0200031,0.295008,0.968586
797,1144,3.30794,-0.0198695,0.294529,0.968871
799,1142,3.30727,-0.0206772,0.295,0.968249
801,1140,3.30729,-0.021066,0.295003,0.968073
803,1138,3.307,-0.0207042,0.294999,0.968236
805,1136,3.3064,-0.0214626,0.295477,0.967649
807,1134,3.30603,-0.0214846,0.295474,0.967626
809,1132,3.30598,-0.0214588,0.295473,0.967637
811,1130,3.30806,-0.0185459,0.294074,0.966835
813,1128,3.30779,-0.0185634,0.294075,0.967277
815,1126,3.30793,-0.0186797,0.294073,0.966978
817,1124,3.30811,-0.0193376,0.294078,0.966679
819,1122,3.30786,-0.0193179,0.294079,0.966694
821,1120,3.30792,-0.0193114,0.293939,0.966694
823,1118,3.30764,-0.0201103,0.294553,0.96609
825,1116,3.30727,-0.0201091,0.294552,0.966085
827,1114,3.30721,-0.0201447,0.294552,0.966077
829,1112,3.30721,-0.0207531,0.294542,0.965759
831,1110,3.30671,-0.0208513,0.294533,0.965681
833,1108,3.30608,-0.0209434,0.295006,0.965398
835,1106,3.30616,-0.0215445,0.295004,0.965113
837,1104,3.30583,-0.0215392,0.294999,0.965101
839,1102,3.30785,-0.0180647,0.293615,0.965022
841,1100,3.3079,-0.0187801,0.293635,0.964508
843,1098,3.30777,-0.0194616,0.294116,0.963998
845,1096,3.30741,-0.0194966,0.294126,0.964015
847,1094,3.30804,-0.0193274,0.293651,0.964344
849,1092,3.30773,-0.0200715,0.294028,0.963746
851,1090,3.30731,-0.020111,0.294115,0.963685
853,1088,3.30732,-0.0201627,0.294112,0.963654
855,1086,3.30689,-0.0209198,0.29459,0.963067
857,1084,3.30638,-0.0209724,0.294584,0.963034
859,1082,3.30671,-0.0208729,0.294104,0.963303
861,1080,3.30625,-0.0216625,0.294576,0.962685
863,1078,3.30578,-0.0215913,0.294572,0.962702
865,1076,3.30786,-0.018083,0.293342,0.9624
867,1074,3.30745,-0.0188656,0.293669,0.96175
869,1072,3.30739,-0.0189489,0.293682,0.961829
871,1070,3.30728,-0.0194697,0.294087,0.961602
873,1068,3.30739,-0.0195748,0.29369,0.961573
875,1066,3.30744,-0.0201626,0.293693,0.961314
877,1064,3.30712,-0.0201192,0.293683,0.961305
879,1062,3.30714,-0.0210152,0.294174,0.960686
881,1060,3.30673,-0.0209358,0.294334,0.9607
883,1058,3.30642,-0.0209746,0.29417,0.960675
885,1056,3.30665,-0.0216196,0.294169,0.960382
887,1054,3.30573,-0.0218032,0.29465,0.960057
889,1052,3.30768,-0.0183048,0.293249,0.959729
891,1050,3.30769,-0.0189189,0.29341,0.959443
893,1048,3.30732,-0.0189047,0.293247,0.959436
895,1046,3.30689,-0.0197321,0.293733,0.958831
897,1044,3.30678,-0.0196466,0.293737,0.95889
899,1042,3.30688,-0.0203781,0.293742,0.958563
901,1040,3.30656,-0.0203423,0.293741,0.958579
903,1038,3.30654,-0.0203549,0.293743,0.958584
905,1036,3.30681,-0.0209965,0.293743,0.958297
907,1034,3.30592,-0.0211348,0.294227,0.957996
909,1032,3.30662,-0.0210427,0.293743,0.958271
911,1030,3.30595,-0.0217699,0.294226,0.95769
913,1028,3.3055,-0.0218343,0.294223,0.957653
915,1026,3.30798,-0.0188787,0.292814,0.957053
917,1024,3.30705,-0.0190081,0.293302,0.956767
919,1022,3.30673,-0.0190757,0.293301,0.956732
921,1020,3.30695,-0.0197316,0.293299,0.956427
923,1018,3.30642,-0.0197184,0.293297,0.956416
925,1016,3.30623,-0.0197208,0.293294,0.956413
927,1014,3.30588,-0.0205296,0.293784,0.955824
929,1012,3.30579,-0.0205409,0.293947,0.95582
931,1010,3.30566,-0.0213076,0.293791,0.955474
933,1008,3.30572,-0.0211905,0.293789,0.955535
935,1006,3.30537,-0.0220441,0.294274,0.954896
937,1004,3.30548,-0.0219476,0.293789,0.955184
939,1002,3.30772,-0.0182764,0.293025,0.954914
941,1000,3.30705,-0.0193081,0.292859,0.954181
943,998,3.30685,-0.0191281,0.292859,0.954261
945,996,3.30669,-0.0191051,0.292854,0.954262
947,994,3.30644,-0.019936,0.292853,0.954127
949,992,3.30639,-0.0198733,0.292849,0.953898
951,990,3.30575,-0.0206334,0.293335,0.953299
953,988,3.30547,-0.0205891,0.293316,0.953271
955,986,3.30522,-0.0206685,0.293481,0.953253
957,984,3.3053,-0.0212926,0.293328,0.952995
959,982,3.30473,-0.0215879,0.293836,0.952659
961,980,3.30472,-0.0222345,0.293827,0.95235
963,978,3.3046,-0.0222057,0.293758,0.952373
965,976,3.30687,-0.0191956,0.292433,0.951833
967,974,3.30689,-0.0191566,0.292429,0.951838
969,972,3.30669,-0.019147,0.29242,0.951817
971,970,3.30615,-0.0200593,0.292909,0.951161
973,968,3.30583,-0.0199707,0.292907,0.951195
975,966,3.30563,-0.0200706,0.292989,0.951141
977,964,3.30577,-0.02074,0.292903,0.950831
979,962,3.30524,-0.0207291,0.292899,0.950829
981,960,3.30489,-0.0216081,0.2934,0.950209
983,958,3.30466,-0.0216091,0.293401,0.950466
985,956,3.30453,-0.0222543,0.293415,0.949962
987,954,3.30665,-0.0185264,0.292011,0.94974
989,952,3.306,-0.019325,0.292511,0.949168
991,950,3.30604,-0.0192789,0.292502,0.949168
993,948,3.30606,-0.0200206,0.292656,0.948797
995,946,3.30583,-0.020042,0.292498,0.948795
997,944,3.30584,-0.0200943,0.292494,0.948769
999,942,3.30537,-0.0208667,0.292987,0.948173
1001,940,3.30495,-0.020848,0.292981,0.948172
1003,938,3.30521,-0.0216331,0.292978,0.947814
1005,936,3.30465,-0.0215793,0.292972,0.947817
1007,934,3.30422,-0.022481,0.293468,0.947175
1009,932,3.30388,-0.02251,0.294118,0.947155
1011,930,3.3035,-0.0224055,0.293445,0.945741
1013,928,3.3058,-0.0195072,0.292048,0.946537
1015,926,3.3056,-0.0194673,0.292059,0.946593
1017,924,3.30518,-0.0202785,0.292563,0.94602
1019,922,3.30514,-0.0202987,0.292567,0.946023
1021,920,3.30511,-0.0210065,0.292562,0.945689
1023,918,3.30502,-0.0210034,0.292565,0.945707
1025,916,3.30501,-0.0209444,0.29256,0.945722
1027,914,3.30442,-0.0217939,0.293052,0.945079
1029,912,3.30479,-0.0216155,0.292548,0.945381
1031,910,3.30411,-0.0224873,0.293047,0.944748
1033,908,3.30401,-0.0225212,0.293045,0.944738
1035,906,3.30553,-0.0196687,0.292123,0.943823
1037,904,3.30591,-0.0195178,0.292023,0.94412
1039,902,3.30561,-0.0195112,0.291623,0.944124
1041,900,3.30496,-0.0203442,0.292757,0.94347
1043,898,3.30482,-0.0202733,0.29211,0.943522
1045,896,3.30423,-0.0211995,0.292619,0.94289
1047,894,3.30407,-0.021166,0.292617,0.942893
1049,892,3.30396,-0.0218554,0.292604,0.942563
1051,890,3.30375,-0.0219918,0.292618,0.942532
1053,888,3.30397,-0.0226237,0.292627,0.94227
1055,886,3.30365,-0.0226091,0.292628,0.942291
1057,884,3.30571,-0.019659,0.291712,0.941425
1059,882,3.30524,-0.0196485,0.291711,0.941428
1061,880,3.30543,-0.0203506,0.29171,0.941114
1063,878,3.30498,-0.0203404,0.291709,0.941111
1065,876,3.30505,-0.0204155,0.291711,0.94109
1067,874,3.30422,-0.0212311,0.292209,0.940489
1069,872,3.30414,-0.021335,0.292171,0.940439
1071,870,3.30335,-0.0220669,0.292881,0.939884
1073,868,3.30368,-0.021903,0.292216,0.9402
1075,866,3.30313,-0.0227137,0.292722,0.939614
1077,864,3.30514,-0.0189808,0.291299,0.939327
1079,862,3.30515,-0.019686,0.291299,0.939012
1081,860,3.305,-0.0196951,0.291295,0.937594
1083,858,3.30454,-0.0205786,0.291799,0.938367
1085,856,3.30488,-0.0204095,0.291294,0.93892
1087,854,3.30438,-0.0213172,0.291792,0.938018
1089,852,3.30425,-0.0212596,0.291789,0.938025
1091,850,3.30408,-0.0213264,0.291783,0.937981
1093,848,3.30346,-0.0221141,0.292287,0.937398
1095,846,3.30313,-0.0221957,0.292288,0.93736
1097,844,3.30314,-0.022892,0.292287,0.937047
1099,842,3.30511,-0.0191917,0.290865,0.936746
1101,840,3.30472,-0.0200115,0.291379,0.936179
1103,838,3.30388,-0.0208095,0.292055,0.935603
1105,836,3.30432,-0.0205739,0.291386,0.935935
1107,834,3.30358,-0.0214487,0.291896,0.935325
1109,832,3.30354,-0.0214091,0.291889,0.935333
1111,830,3.3033,-0.0214831,0.291887,0.935294
1113,828,3.30323,-0.0221153,0.291879,0.934992
1115,826,3.303,-0.0222507,0.291876,0.934926
1117,824,3.30312,-0.022918,0.291869,0.934611
1119,822,3.30279,-0.0229497,0.291865,0.93458
1121,820,3.30511,-0.0191914,0.290431,0.934268
1123,818,3.30441,-0.0200388,0.290937,0.933649
1125,816,3.30427,-0.0200166,0.290936,0.933657
1127,814,3.30414,-0.0207001,0.290926,0.933327
1129,812,3.30394,-0.0207433,0.29108,0.933306
1131,810,3.30328,-0.0216822,0.291439,0.932672
1133,808,3.30306,-0.0216656,0.291441,0.932686
1135,806,3.30241,-0.022496,0.292036,0.932073
1137,804,3.30214,-0.0224798,0.291957,0.932099
1139,802,3.30216,-0.0232225,0.291955,0.931752
1141,800,3.30185,-0.023182,0.29195,0.930356
1143,798,3.30348,-0.0202489,0.291021,0.930836
1145,796,3.30384,-0.0201289,0.290507,0.931116
1147,794,3.3034,-0.0209743,0.291014,0.930506
1149,792,3.30322,-0.021,0.291011,0.930487
1151,790,3.30319,-0.0209986,0.291004,0.930476
1153,788,3.30308,-0.0217762,0.291005,0.930123
1155,786,3.30301,-0.021731,0.291406,0.93014
1157,784,3.30227,-0.0225761,0.29151,0.929516
1159,782,3.30215,-0.0226091,0.291512,0.929515
1161,780,3.30192,-0.0233161,0.291525,0.929224
1163,778,3.30364,-0.0203778,0.290611,0.928338
1165,776,3.30348,-0.0203759,0.290615,0.928358
1167,774,3.30338,-0.0210633,0.29062,0.928064
1169,772,3.30314,-0.021055,0.290617,0.928058
1171,770,3.30249,-0.0218399,0.29113,0.927298
1173,768,3.30227,-0.0218782,0.29153,0.927446
1175,766,3.30158,-0.0227985,0.291639,0.926792
1177,764,3.302,-0.0226117,0.291119,0.927105
1179,762,3.30178,-0.0227409,0.291115,0.927035
1181,760,3.3012,-0.0235128,0.291632,0.926465
1183,758,3.30383,-0.0195075,0.289662,0.926456
1185,756,3.3036,-0.0203168,0.29018,0.925867
1187,754,3.30334,-0.0204024,0.29018,0.925826
1189,752,3.30266,-0.0212687,0.290698,0.9252
1191,750,3.30272,-0.0219432,0.290701,0.924921
1193,748,3.30217,-0.0219561,0.290707,0.924938
1195,746,3.30172,-0.022893,0.291228,0.924299
1197,744,3.3014,-0.0228779,0.29123,0.924314
1199,742,3.30131,-0.0236337,0.29123,0.923978
1201,740,3.30322,-0.0197094,0.289786,0.923701
1203,738,3.30271,-0.0205244,0.290302,0.923102
1205,736,3.30235,-0.0205461,0.290296,0.923077
1207,734,3.30228,-0.0212543,0.290293,0.922768
1209,732,3.30224,-0.021369,0.290171,0.922709
1211,730,3.30137,-0.0222011,0.290816,0.922113
1213,728,3.30198,-0.0220648,0.290293,0.922656
1215,726,3.3012,-0.02295,0.290808,0.921778
1217,724,3.30109,-0.0229359,0.290807,0.921789
1219,722,3.30096,-0.0236296,0.290809,0.921482
1221,720,3.30315,-0.0196747,0.28936,0.92103
1223,718,3.30264,-0.0206587,0.289885,0.920559
1225,716,3.30259,-0.0213996,0.289884,0.920235
1227,714,3.30172,-0.021572,0.290407,0.919918
1229,712,3.30162,-0.0222114,0.290405,0.91964
1231,710,3.30143,-0.0222923,0.290406,0.919612
1233,708,3.3012,-0.0229814,0.290398,0.919297
1235,706,3.301,-0.0231371,0.290402,0.919232
1237,704,3.30021,-0.0239593,0.290928,0.918641
1239,702,3.3023,-0.0199726,0.289475,0.918363
1241,700,3.30168,-0.0208232,0.290002,0.917763
1243,698,3.30146,-0.0208148,0.289996,0.917759
1245,696,3.30132,-0.0216059,0.290161,0.917429
1247,694,3.30117,-0.0216412,0.29,0.917415
1249,692,3.30054,-0.0225158,0.290525,0.916794
1251,690,3.30083,-0.0223279,0.289996,0.917108
1253,688,3.30049,-0.023279,0.290528,0.916483
1255,686,3.29965,-0.0241566,0.291227,0.915879
1257,684,3.30008,-0.0239714,0.290534,0.916193
1259,682,3.30213,-0.0208814,0.289603,0.91529
1261,680,3.30168,-0.0208653,0.289601,0.915287
1263,678,3.30157,-0.0216262,0.2896,0.914959
1265,676,3.30106,-0.0225088,0.29013,0.914338
1267,674,3.30063,-0.0225485,0.290129,0.914326
1269,672,3.30051,-0.0232698,0.290128,0.914009
1271,670,3.29983,-0.024076,0.291065,0.913429
1273,668,3.29944,-0.0243095,0.290658,0.913321
1275,666,3.30152,-0.0202474,0.289193,0.91306
1277,664,3.30153,-0.0209906,0.289191,0.912726
1279,662,3.3006,-0.0211109,0.289718,0.912422
1281,660,3.30056,-0.0218445,0.289723,0.912117
1283,658,3.29985,-0.022754,0.290253,0.911485
1285,656,3.3,-0.0227376,0.289725,0.911744
1287,654,3.29952,-0.023524,0.290262,0.911183
1289,652,3.29932,-0.0234912,0.290261,0.91121
1291,650,3.29919,-0.0243144,0.290266,0.910871
1293,648,3.30095,-0.0211472,0.289331,0.909972
1295,646,3.30143,-0.0209878,0.288826,0.910277
1297,644,3.30083,-0.0219812,0.28933,0.909607
1299,642,3.30054,-0.0219428,0.289328,0.909618
1301,640,3.29997,-0.0228513,0.290529,0.908979
1303,638,3.29972,-0.0228447,0.289809,0.908984
1305,636,3.29952,-0.0235871,0.289862,0.908664
1307,634,3.29885,-0.0244395,0.291064,0.90806
1309,632,3.30158,-0.0203308,0.288388,0.908032
1311,630,3.30078,-0.0212992,0.288925,0.907377
1313,628,3.3001,-0.0221116,0.289461,0.906792
1315,626,3.29994,-0.0221416,0.289461,0.906776
1317,624,3.29975,-0.0229623,0.289461,0.906431
1319,622,3.29936,-0.0229356,0.289463,0.906449
1321,620,3.29879,-0.0237867,0.290005,0.906089
1323,618,3.29849,-0.0238401,0.290006,0.905835
1325,616,3.29834,-0.0246523,0.290005,0.90549
1327,614,3.29982,-0.0214246,0.289042,0.904581
1329,612,3.29979,-0.0214205,0.289068,0.904583
1331,610,3.29957,-0.0222598,0.289068,0.904232
1333,608,3.29945,-0.0222413,0.289065,0.90424
1335,606,3.29912,-0.0230219,0.289063,0.9039
1337,604,3.29862,-0.0238911,0.289605,0.903301
1339,602,3.2984,-0.023935,0.289605,0.903277
1341,600,3.29824,-0.0246952,0.289603,0.902952
1343,598,3.30045,-0.0205526,0.288123,0.902668
1345,596,3.29994,-0.0215431,0.288667,0.902009
1347,594,3.29992,-0.0223005,0.289335,0.901684
1349,592,3.29954,-0.0222661,0.288666,0.901706
1351,590,3.29867,-0.0231857,0.289196,0.901033
1353,588,3.2985,-0.0232481,0.289603,0.901007
1355,586,3.29836,-0.0240922,0.289201,0.900662
1357,584,3.29751,-0.0249743,0.289745,0.900052
1359,582,3.29979,-0.0208567,0.288262,0.899757
1361,580,3.29953,-0.0216375,0.288265,0.899432
1363,578,3.29897,-0.0225444,0.288803,0.898783
1365,576,3.29853,-0.0226338,0.288803,0.898744
1367,574,3.29775,-0.0235728,0.289509,0.898094
1369,572,3.29806,-0.0234505,0.288798,0.898392
1371,570,3.29727,-0.0243487,0.289417,0.897756
1373,568,3.29708,-0.0243599,0.289339,0.897751
1375,566,3.2963,-0.0252596,0.28989,0.897126
1377,564,3.2986,-0.021904,0.2884,0.896483
1379,562,3.29857,-0.0219414,0.288405,0.896487
1381,560,3.29815,-0.0227294,0.28841,0.896177
1383,558,3.29764,-0.023646,0.288969,0.89557
1385,556,3.2967,-0.0245858,0.289596,0.894935
1387,554,3.29707,-0.024379,0.288969,0.895277
1389,552,3.29708,-0.0251289,0.288971,0.894976
1391,550,3.29875,-0.021905,0.288029,0.894022
1393,548,3.2987,-0.0219827,0.288028,0.893992
1395,546,3.2978,-0.0228704,0.288578,0.893357
1397,544,3.29804,-0.0227187,0.288006,0.893634
1399,542,3.29743,-0.0237339,0.288567,0.892971
1401,540,3.29718,-0.0245066,0.289234,0.892635
1403,538,3.29712,-0.0245598,0.28856,0.892615
1405,536,3.29612,-0.0254433,0.289104,0.891976
1407,534,3.29794,-0.0221896,0.288157,0.891013
1409,532,3.29835,-0.0220643,0.287595,0.891299
1411,530,3.29743,-0.0229758,0.288147,0.89066
1413,528,3.2975,-0.0237868,0.288088,0.890342
1415,526,3.29707,-0.0238294,0.288149,0.890319
1417,524,3.29629,-0.0248496,0.28872,0.889683
1419,522,3.29613,-0.0255891,0.28872,0.889379
1421,520,3.29781,-0.0223043,0.287789,0.888459
1423,518,3.2976,-0.022377,0.288201,0.888444
1425,516,3.29733,-0.0231398,0.287785,0.888112
1427,514,3.29657,-0.024062,0.288753,0.887485
1429,512,3.29688,-0.0239536,0.287781,0.887776
1431,510,3.29584,-0.024923,0.288331,0.887101
1433,508,3.2952,-0.0259088,0.288886,0.886431
1435,506,3.29722,-0.0216474,0.28738,0.886119
1437,504,3.29711,-0.0224166,0.287536,0.885803
1439,502,3.29625,-0.0234011,0.287934,0.885127
1441,500,3.29597,-0.0234094,0.287935,0.885126
1443,498,3.29592,-0.0241879,0.287933,0.884811
1445,496,3.29487,-0.0251854,0.288496,0.884143
1447,494,3.2947,-0.0260337,0.288497,0.883762
1449,492,3.29689,-0.0217746,0.286993,0.883495
1451,490,3.29619,-0.022585,0.287558,0.882919
1453,488,3.29599,-0.023488,0.287567,0.882575
1455,486,3.29522,-0.0244381,0.288139,0.881945
1457,484,3.29503,-0.0252797,0.288147,0.881627
1459,482,3.29477,-0.0253251,0.288138,0.881593
1461,480,3.29705,-0.0217921,0.286626,0.880964
1463,478,3.29615,-0.022744,0.2876,0.880312
1465,476,3.29593,-0.0235132,0.287183,0.87999
1467,474,3.29568,-0.0235859,0.287179,0.879957
1469,472,3.29482,-0.0245238,0.287751,0.879323
1471,470,3.29459,-0.0253482,0.287748,0.878979
1473,468,3.29378,-0.0263945,0.288322,0.878318
1475,466,3.29618,-0.0228456,0.286809,0.877688
1477,464,3.29587,-0.0228962,0.286804,0.877665
1479,462,3.2949,-0.0238516,0.287375,0.877026
1481,460,3.29475,-0.02476,0.287394,0.876692
1483,458,3.2938,-0.0255869,0.287966,0.876112
1485,456,3.29382,-0.0264986,0.287973,0.875762
1487,454,3.29588,-0.0221057,0.28645,0.875457
1489,452,3.29585,-0.0229164,0.286453,0.875147
1491,450,3.29496,-0.023901,0.287043,0.874537
1493,448,3.29481,-0.0247075,0.287033,0.874186
1495,446,3.29387,-0.0257572,0.287607,0.873499
1497,444,3.29351,-0.0257272,0.287606,0.873505
1499,442,3.29595,-0.02222,0.286082,0.872842
1501,440,3.29497,-0.023161,0.286659,0.872207
1503,438,3.29482,-0.0239929,0.286723,0.871645
1505,436,3.29397,-0.0250369,0.287237,0.871197
1507,434,3.29372,-0.0258972,0.287239,0.870857
1509,432,3.29343,-0.0258822,0.287237,0.870864
1511,430,3.29506,-0.0224484,0.286289,0.870132
1513,428,3.29488,-0.0233082,0.286289,0.869557
1515,426,3.29389,-0.0242576,0.286869,0.868916
1517,424,3.29376,-0.0250813,0.286879,0.86861
1519,422,3.29276,-0.026112,0.287466,0.867948
1521,420,3.29323,-0.0259562,0.286882,0.868285
1523,418,3.29486,-0.0224666,0.285935,0.867328
1525,416,3.2941,-0.0235716,0.286525,0.866649
1527,414,3.29387,-0.0243453,0.286598,0.866369
1529,412,3.2927,-0.0252871,0.28693,0.865708
1531,410,3.29292,-0.0238848,0.286519,0.865348
1533,408,3.29179,-0.0248736,0.287104,0.864676
1535,406,3.29482,-0.0202263,0.284979,0.864696
1537,404,3.29361,-0.0303477,0.285563,0.864027
1539,402,3.29357,-0.0221619,0.285565,0.863667
1541,400,3.29255,-0.0322152,0.286152,0.863043
1543,398,3.29215,-0.0331155,0.286152,0.86268
1545,396,3.29147,-0.0317818,0.286153,0.862035
1547,394,3.29393,-0.0281857,0.284608,0.861355
1549,392,3.29312,-0.0269024,0.284608,0.860682
1551,390,3.2933,-0.0253336,0.284018,0.860376
1553,388,3.29293,-0.0262181,0.284023,0.860048
1555,386,3.29185,-0.0272595,0.284611,0.859389
1557,384,3.29482,-0.0213247,0.282491,0.858731
1559,382,3.29331,-0.0314827,0.283085,0.858117
1561,380,3.293,-0.032301,0.28308,0.857777
1563,378,3.29318,-0.0308025,0.28249,0.857437
1565,376,3.29202,-0.0318016,0.283227,0.856787
1567,374,3.29404,-0.0296468,0.282116,0.85647
1569,372,3.29418,-0.0281884,0.28153,0.856116
1571,370,3.29343,-0.0268411,0.281528,0.855464
1573,368,3.29311,-0.0276506,0.281526,0.855142
1575,366,3.29228,-0.0288759,0.282111,0.854415
1577,364,3.29484,-0.0227108,0.279983,0.853809
1579,362,3.29366,-0.0237931,0.280969,0.853114
1581,360,3.29363,-0.0247242,0.280562,0.852752
1583,358,3.29304,-0.02335,0.280559,0.852102
1585,356,3.29236,-0.0242852,0.28056,0.851748
1587,354,3.2923,-0.0251933,0.279909,0.851411
1589,352,3.2937,-0.0308859,0.279612,0.850468
1591,350,3.29352,-0.0292852,0.279032,0.850178
1593,348,3.29258,-0.0303573,0.279626,0.849547
1595,346,3.29251,-0.0288082,0.279049,0.849258
1597,344,3.29254,-0.0272931,0.27844,0.848836
1599,342,3.29409,-0.0237619,0.277462,0.847823
1601,340,3.29335,-0.0263647,0.27804,0.84632
1603,338,3.29351,-0.0247847,0.277455,0.847411
1605,336,3.2925,-0.0258495,0.278035,0.846733
1607,334,3.29248,-0.0244295,0.27745,0.846358
1609,332,3.2938,-0.0232421,0.277071,0.845397
1611,330,3.29386,-0.0217416,0.276542,0.845057
1613,328,3.293724,-0.0226523,0.276483,0.844702
1615,326,3.29228,-0.0328945,0.277059,0.844068
1617,324,3.29109,-0.0340109,0.277642,0.843378
1619,322,3.29075,-0.0348686,0.278046,0.843061
1621,320,3.29359,-0.0288165,0.275514,0.842382
1623,318,3.29268,-0.029798,0.275752,0.841734
1625,316,3.29257,-0.0282799,0.276197,0.841427
1627,314,3.29242,-0.0268056,0.274926,0.841056
1629,312,3.29432,-0.0232674,0.273972,0.840103
1631,310,3.2941,-0.0241293,0.27397,0.839777
1633,308,3.2942,-0.0225673,0.273391,0.839466
1635,306,3.29261,-0.0328769,0.273969,0.838837
1637,304,3.29151,-0.0340729,0.274541,0.838286
1639,302,3.29391,-0.0302611,0.272993,0.837494
1641,300,3.29364,-0.0312331,0.272986,0.837101
1643,298,3.29316,-0.0298797,0.272984,0.83643
1645,296,3.29299,-0.0283147,0.272401,0.836093
1647,294,3.29181,-0.0294688,0.272981,0.835401
1649,292,3.29418,-0.0256938,0.271427,0.834753
1651,290,3.2933,-0.0267368,0.272006,0.834104
1653,288,3.2934,-0.0252484,0.271425,0.833741
1655,286,3.29301,-0.0260825,0.271422,0.833427
1657,284,3.29169,-0.0258167,0.271996,0.832078
1659,282,3.29398,-0.0220187,0.270447,0.831438
1661,280,3.29301,-0.0230858,0.271025,0.830773
1663,278,3.29235,-0.0334568,0.271038,0.830474
1665,276,3.29243,-0.0319616,0.270464,0.830133
1667,274,3.29413,-0.0283668,0.269492,0.82917
1669,272,3.2939,-0.0266821,0.268919,0.828897
1671,270,3.29292,-0.0278112,0.270173,0.82822
1673,268,3.29239,-0.0287003,0.269493,0.827886
1675,266,3.2915,-0.0297394,0.270068,0.827227
1677,264,3.29432,-0.0236053,0.267929,0.826508
1679,262,3.29415,-0.0220739,0.26735,0.826158
1681,260,3.2931,-0.0231773,0.267924,0.825481
1683,258,3.29259,-0.0240605,0.268598,0.82516
1685,256,3.29116,-0.0355332,0.268498,0.824166
1687,254,3.29295,-0.0319025,0.267524,0.823206
1689,252,3.29258,-0.0328321,0.267522,0.822867
1691,250,3.29268,-0.0312638,0.266944,0.822529
1693,248,3.29158,-0.0322844,0.267523,0.821903
1695,246,3.29414,-0.0261063,0.265386,0.8212
1697,244,3.29308,-0.0270648,0.265961,0.820397
1699,242,3.29291,-0.0255787,0.265381,0.820204
1701,240,3.29159,-0.0290941,0.266539,0.819578
1703,238,3.29145,-0.0275106,0.265952,0.819225
1705,236,3.2934,-0.0214824,0.264783,0.818192
1707,234,3.29308,-0.0224167,0.264398,0.817864
1709,232,3.29284,-0.0232978,0.264394,0.817544
1711,230,3.29128,-0.0340909,0.264973,0.816866
1713,228,3.2906,-0.0334753,0.264965,0.815896
1715,226,3.29309,-0.0297187,0.263405,0.815214
1717,224,3.2929,-0.0282262,0.262825,0.814834
1719,222,3.29174,-0.0292722,0.263397,0.814184
1721,220,3.29141,-0.0301356,0.263394,0.81387
1723,218,3.2903,-0.0312856,0.26397,0.813187
1725,216,3.29319,-0.0249508,0.261829,0.812512
1727,214,3.29211,-0.0260465,0.263075,0.811855
1729,212,3.29157,-0.0269587,0.262402,0.811526
1731,210,3.29081,-0.0255605,0.262401,0.810849
1733,208,3.29285,-0.0314205,0.260837,0.810192
1735,206,3.29198,-0.0227548,0.261396,0.808014
1737,204,3.29098,-0.0320693,0.26139,0.80847
1739,202,3.29057,-0.0328941,0.261385,0.808166
1741,200,3.29009,-0.0339058,0.261385,0.808041
1743,198,3.29228,-0.0276947,0.259821,0.806812
1745,196,3.29195,-0.0285247,0.259816,0.806514
1747,194,3.29099,-0.0272697,0.259821,0.805793
1749,192,3.29115,-0.0265863,0.259263,0.80495
1751,190,3.29286,-0.0228498,0.25827,0.804196
1753,188,3.2925,-0.0237285,0.25827,0.803885
1755,186,3.2911,-0.0346992,0.258843,0.803213
1757,184,3.29075,-0.0355837,0.25884,0.802902
1759,182,3.29324,-0.0317283,0.257274,0.802235
1761,180,3.29244,-0.0303319,0.257274,0.801556
1763,178,3.29202,-0.0311896,0.257409,0.801244
1765,176,3.29084,-0.0323827,0.257845,0.800564
1767,174,3.29025,-0.0318657,0.257843,0.799565
1769,172,3.293,-0.0254225,0.255698,0.798883
1771,170,3.29187,-0.0264545,0.256268,0.798253
1773,168,3.29185,-0.0249442,0.255692,0.79665
1775,166,3.29097,-0.0356566,0.255695,0.797587
1777,164,3.29289,-0.0319724,0.2547,0.796597
1779,162,3.29247,-0.0329455,0.254702,0.796266
1781,160,3.29184,-0.0324532,0.254701,0.795498
1783,158,3.29071,-0.0335441,0.255274,0.794622
1785,156,3.29313,-0.0295151,0.2537,0.794001
1787,154,3.29295,-0.0279734,0.253128,0.793623
1789,152,3.29189,-0.029052,0.253696,0.79298
1791,150,3.29186,-0.0274985,0.253497,0.792597
1793,148,3.29112,-0.026955,0.253116,0.791595
1795,146,3.29295,-0.0232387,0.252112,0.790584
1797,144,3.29255,-0.0241602,0.252111,0.790475
1799,142,3.29103,-0.0352347,0.252683,0.789635
1801,140,3.29062,-0.0361348,0.25268,0.789319
1803,138,3.29343,-0.0295566,0.251196,0.788651
1805,136,3.2922,-0.0307327,0.251104,0.787988
1807,134,3.29175,-0.0317489,0.251106,0.787644
1809,132,3.29107,-0.0312644,0.251098,0.786617
1811,130,3.28992,-0.0323681,0.251642,0.785986
1813,128,3.29245,-0.0283114,0.250095,0.785355
1815,126,3.29231,-0.026702,0.249524,0.785001
1817,124,3.29123,-0.0278222,0.250091,0.784346
1819,122,3.29066,-0.028842,0.250092,0.784008
1821,120,3.29235,-0.0249244,0.24911,0.783046
1823,118,3.29191,-0.0244534,0.24908,0.782029
1825,116,3.29139,-0.0253559,0.249079,0.78173
1827,114,3.2898,-0.0366982,0.249648,0.781041
1829,112,3.29241,-0.0326653,0.248064,0.780387
1831,110,3.29107,-0.0337163,0.248634,0.779768
1833,108,3.29093,-0.0321129,0.248061,0.779398
1835,106,3.29062,-0.0330889,0.248087,0.779068
1837,104,3.28874,-0.0353786,0.249204,0.777756
1839,102,3.29151,-0.0286422,0.247703,0.777101
1841,100,3.29161,-0.0270265,0.246471,0.77674
1843,98,3.2905,-0.0282235,0.247039,0.776061
1845,96,3.28991,-0.029212,0.247038,0.775729
1847,94,3.29218,-0.0226983,0.245451,0.774721
1849,92,3.29189,-0.0236112,0.24545,0.77442
1851,90,3.29085,-0.0257847,0.246386,0.773323
1853,88,3.28917,-0.037177,0.246591,0.772771
1855,86,3.29206,-0.0304905,0.244426,0.772079
1857,84,3.29197,-0.0288122,0.243857,0.771735
1859,82,3.2905,-0.0325905,0.244991,0.771098
1861,80,3.28986,-0.0294017,0.244405,0.770034
1863,78,3.28972,-0.027874,0.243833,0.769623
1865,76,3.29227,-0.0238432,0.242237,0.768932
1867,74,3.29112,-0.0249567,0.242813,0.768328
1869,72,3.29028,-0.0361771,0.242814,0.768026
1871,70,3.29011,-0.0344507,0.2429,0.767683
1873,68,3.29171,-0.0333096,0.241787,0.766698
1875,66,3.29091,-0.0327448,0.241783,0.765696
1877,64,3.29048,-0.0336822,0.241783,0.765392
1879,62,3.28921,-0.0348897,0.242348,0.764725
1881,60,3.28906,-0.0333025,0.241777,0.764329
1883,58,3.29089,-0.0293131,0.240749,0.763366
1885,56,3.29053,-0.0302893,0.240766,0.763033
1887,54,3.28921,-0.0315072,0.241309,0.762353
1889,52,3.28892,-0.0298043,0.240742,0.762016
1891,50,3.29207,-0.0228138,0.23856,0.76135
1893,48,3.29079,-0.0242432,0.239121,0.760586
1895,46,3.28968,-0.0263481,0.23969,0.759635
1897,44,3.28936,-0.0350154,0.239124,0.759311
1899,42,3.2908,-0.0338686,0.238669,0.758346
1901,40,3.29065,-0.0322029,0.238104,0.758225
1903,38,3.28997,-0.0315578,0.238106,0.75703
1905,36,3.28967,-0.0325773,0.238105,0.756703
1907,34,3.29176,-0.0259064,0.236511,0.755701
1909,32,3.29176,-0.0242318,0.235949,0.755345
1911,30,3.29139,-0.0252011,0.23595,0.755035
1913,28,3.29017,-0.027226,0.236505,0.75409
1915,26,3.28843,-0.0389375,0.237064,0.753428
1917,24,3.2911,-0.034875,0.235461,0.751377
1919,22,3.28977,-0.0360707,0.23602,0.752066
1921,20,3.28963,-0.0343308,0.235452,0.751717
1923,18,3.28809,-0.038297,0.236575,0.751066
1925,16,3.29095,-0.0313389,0.234405,0.750386
1927,14,3.29001,-0.0297874,0.234399,0.749693
1929,12,3.28959,-0.0308592,0.234398,0.749351
1931,10,3.2885,-0.0330423,0.234964,0.74838
1933,8,3.2876,-0.0315281,0.234962,0.747686
1935,6,3.29081,-0.0246484,0.232801,0.747007
1937,4,3.29021,-0.0256764,0.2328,0.746684
1938,3,3.28901,-0.0373783,0.233481,0.746069