File: hust_correlation_analysis/matrices/HUST_8-3_cycle_feature_matrix.csv
cycle_number,rul,voltage,current,capacity,charge_capacity
1,2292,3.31036,0.0157251,0.280808,1.03806
4,2289,3.29645,-0.012019,0.292515,1.01126
7,2286,3.30019,-0.0099931,0.29045,1.01607
10,2283,3.30278,-0.00918629,0.289259,1.01975
13,2280,3.30359,-0.00981969,0.288513,1.02247
16,2277,3.30536,-0.00785225,0.286884,1.0244
19,2274,3.30539,-0.00969596,0.286976,1.02599
22,2271,3.30718,-0.00903441,0.285873,1.02701
25,2268,3.30715,-0.0102178,0.285882,1.02894
28,2265,3.3088,-0.00770704,0.284186,1.02861
31,2262,3.30729,-0.0102517,0.285093,1.0294
34,2259,3.3079,-0.0102385,0.284693,1.0296
37,2256,3.30906,-0.00958077,0.283913,1.0304
40,2253,3.30917,-0.00959738,0.283911,1.0304
43,2250,3.309404,-0.00957162,0.283519,1.03064
46,2247,3.30932,-0.00965164,0.283529,1.03061
49,2244,3.30969,-0.00957655,0.28313,1.03083
52,2241,3.30993,-0.0100483,0.283123,1.03057
55,2238,3.31116,-0.00773939,0.28184,1.02993
58,2235,3.31118,-0.00787836,0.281852,1.02988
61,2232,3.31146,-0.00837003,0.281837,1.02958
64,2229,3.31159,-0.0083823,0.281838,1.02958
67,2226,3.31123,-0.00902233,0.281839,1.02923
70,2223,3.31075,-0.00906178,0.281848,1.02922
73,2220,3.31197,-0.00899959,0.281446,1.02944
76,2217,3.3107,-0.00960305,0.281833,1.02889
79,2214,3.31054,-0.0103135,0.281838,1.02852
82,2211,3.31222,-0.00781778,0.280549,1.02796
85,2208,3.31239,-0.00777241,0.280797,1.02799
88,2205,3.31229,-0.00838643,0.280548,1.02764
91,2202,3.31141,-0.00843628,0.28133,1.0274
94,2199,3.31141,-0.00851024,0.280931,1.02737
97,2196,3.3114,-0.00901703,0.280934,1.02709
100,2193,3.31146,-0.00958078,0.280926,1.02675
103,2190,3.3109,-0.00963562,0.28093,1.02672
106,2187,3.31092,-0.0102165,0.280931,1.02642
109,2184,3.31113,-0.0102627,0.280932,1.02638
112,2181,3.3126,-0.00772485,0.279648,1.02587
115,2178,3.31194,-0.00784702,0.280035,1.0256
118,2175,3.31199,-0.00845166,0.280032,1.02525
121,2172,3.31236,-0.00843676,0.280029,1.02524
124,2169,3.31202,-0.00901625,0.280039,1.02496
127,2166,3.31164,-0.0089551,0.280027,1.02496
130,2163,3.31179,-0.00956703,0.280022,1.0246
133,2160,3.31149,-0.0096684,0.280218,1.02436
136,2157,3.31126,-0.00960671,0.28042,1.0244
139,2154,3.31044,-0.0102655,0.280811,1.02384
142,2151,3.31117,-0.0101902,0.280188,1.02409
145,2148,3.3127,-0.00783059,0.279527,1.02326
148,2145,3.31285,-0.00833481,0.279519,1.02295
151,2142,3.31186,-0.00839562,0.279904,1.02271
154,2139,3.31226,-0.00840334,0.279524,1.02292
157,2136,3.31221,-0.0089559,0.279782,1.02242
160,2133,3.31233,-0.00890975,0.279703,1.02263
163,2130,3.31144,-0.00968535,0.280296,1.0218
166,2127,3.31161,-0.00957517,0.279905,1.02206
169,2124,3.31172,-0.00969688,0.280305,1.0218
172,2121,3.3116,-0.0101858,0.280297,1.02151
175,2118,3.3112,-0.0102324,0.280298,1.02149
178,2115,3.31249,-0.00777466,0.27901,1.02091
181,2112,3.3132,-0.00774022,0.279009,1.02092
184,2109,3.31239,-0.00838722,0.279399,1.02036
187,2106,3.31218,-0.00844423,0.279392,1.02034
190,2103,3.31201,-0.00842212,0.279396,1.02034
193,2100,3.31199,-0.00908781,0.279787,1.01977
196,2097,3.3117,-0.00904024,0.279785,1.01979
199,2094,3.31138,-0.00911714,0.279735,1.01976
202,2091,3.31095,-0.0097816,0.280175,1.01917
205,2088,3.31126,-0.00967066,0.279792,1.01946
208,2085,3.31156,-0.00968884,0.279794,1.01945
211,2082,3.3112,-0.0101986,0.279786,1.01941
214,2079,3.31056,-0.0103544,0.280182,1.01887
217,2076,3.31208,-0.0073089,0.278886,1.0186
220,2073,3.31259,-0.00784374,0.278885,1.0183
223,2070,3.31228,-0.00772297,0.27889,1.01837
226,2067,3.31238,-0.00837922,0.278884,1.01801
229,2064,3.31167,-0.00857769,0.279281,1.0177
232,2061,3.31192,-0.00852388,0.279279,1.01774
235,2058,3.31163,-0.0085154,0.279679,1.01754
238,2055,3.31134,-0.00857589,0.279677,1.01751
241,2052,3.31061,-0.00870756,0.280067,1.01719
244,2049,3.31076,-0.00877985,0.28007,1.01717
247,2046,3.3103,-0.00933226,0.280464,1.01665
250,2043,3.3108,-0.00928107,0.280069,1.01689
253,2040,3.31056,-0.00987038,0.28016,1.01656
256,2037,3.30996,-0.00996384,0.280466,1.01631
259,2034,3.31012,-0.00989262,0.280068,1.01654
262,2031,3.31045,-0.00984362,0.280063,1.01656
265,2028,3.30983,-0.0106201,0.280456,1.01593
268,2025,3.31148,-0.00801894,0.279155,1.0154
271,2022,3.31101,-0.0080597,0.27916,1.01539
274,2019,3.31164,-0.00801419,0.278769,1.01563
277,2016,3.31172,-0.00865266,0.27916,1.01508
280,2013,3.31133,-0.0086414,0.279556,1.01507
283,2010,3.31097,-0.00867621,0.279156,1.01505
286,2007,3.31102,-0.0092608,0.27925,1.01472
289,2004,3.31101,-0.00926411,0.279561,1.01473
292,2001,3.31112,-0.00978828,0.279155,1.01443
295,1998,3.3107,-0.00982829,0.279154,1.0144
298,1995,3.31051,-0.00985213,0.279156,1.0144
301,1992,3.31042,-0.0105318,0.279551,1.01383
304,1989,3.31058,-0.0104678,0.279552,1.01385
307,1986,3.31041,-0.0105261,0.279556,1.01382
310,1983,3.30987,-0.0105107,0.279552,1.01384
313,1980,3.31143,-0.00805941,0.278643,1.013
316,1977,3.31167,-0.0079869,0.278239,1.01324
319,1974,3.31176,-0.008643,0.278831,1.01269
322,1971,3.31154,-0.00860567,0.278899,1.01274
325,1968,3.31156,-0.00858052,0.278253,1.01294
328,1965,3.31099,-0.00924231,0.278649,1.01237
331,1962,3.31105,-0.00923878,0.278648,1.01237
334,1959,3.31138,-0.00921913,0.278649,1.01238
337,1956,3.3111,-0.00985773,0.279133,1.01182
340,1953,3.31088,-0.00982201,0.278646,1.01206
343,1950,3.31044,-0.0105228,0.279036,1.01145
346,1947,3.31024,-0.0104574,0.27904,1.01151
349,1944,3.31062,-0.0104824,0.279134,1.01149
352,1941,3.31043,-0.0104685,0.279039,1.01149
355,1938,3.31224,-0.00794097,0.277738,1.01092
358,1935,3.31146,-0.00802997,0.278537,1.01066
361,1932,3.3114,-0.00813608,0.278149,1.01041
364,1929,3.31207,-0.00855847,0.277744,1.01059
367,1926,3.3122,-0.00852894,0.277737,1.01059
370,1923,3.31191,-0.00853438,0.277741,1.01059
373,1920,3.31135,-0.00920331,0.27813,1.01
376,1917,3.31088,-0.00920252,0.278134,1.01
379,1914,3.31147,-0.00922629,0.278138,1.01002
382,1911,3.31128,-0.00918999,0.278139,1.01004
385,1908,3.31134,-0.00976615,0.278148,1.00972
388,1905,3.31032,-0.00991878,0.278627,1.00943
391,1902,3.31049,-0.0104669,0.278533,1.00912
394,1899,3.31034,-0.0105172,0.278536,1.00911
397,1896,3.31065,-0.0104603,0.278532,1.00914
400,1893,3.31229,-0.00734062,0.277229,1.00888
403,1890,3.31206,-0.0079546,0.277234,1.00854
406,1887,3.31123,-0.0080288,0.277626,1.00829
409,1884,3.31174,-0.00799415,0.277231,1.00852
412,1881,3.3117,-0.00860673,0.277818,1.008
415,1878,3.31154,-0.00860729,0.277627,1.00798
418,1875,3.31166,-0.00851967,0.27723,1.00823
421,1872,3.31052,-0.00931462,0.278022,1.00737
424,1869,3.31097,-0.00919898,0.277626,1.00765
427,1866,3.31102,-0.00930031,0.277626,1.00761
430,1863,3.31136,-0.00980196,0.277632,1.00734
433,1860,3.31113,-0.00982642,0.277627,1.00757
436,1857,3.31014,-0.00997176,0.278022,1.00701
439,1854,3.31031,-0.0105386,0.278019,1.00671
442,1851,3.31032,-0.0105395,0.278029,1.00674
445,1848,3.31055,-0.0104965,0.278026,1.00676
448,1845,3.31014,-0.0105162,0.278021,1.00673
451,1842,3.3115,-0.00806182,0.277125,1.00593
454,1839,3.31147,-0.00803879,0.27712,1.00618
457,1836,3.31132,-0.00804359,0.277122,1.00593
460,1833,3.31142,-0.00808289,0.277127,1.00592
463,1830,3.31124,-0.00872917,0.277524,1.00536
466,1827,3.31166,-0.00860755,0.277118,1.00562
469,1824,3.31117,-0.008653,0.277207,1.00558
472,1821,3.31129,-0.00871758,0.277118,1.00556
475,1818,3.31048,-0.00935752,0.277519,1.00501
478,1815,3.31106,-0.00935849,0.277522,1.00502
481,1812,3.31083,-0.00929497,0.277602,1.00504
484,1809,3.31106,-0.00993534,0.27752,1.00469
487,1806,3.31015,-0.0100497,0.277919,1.00441
490,1803,3.30996,-0.0106352,0.277915,1.00409
493,1800,3.31036,-0.0105728,0.277515,1.00435
496,1797,3.3106,-0.010548,0.277517,1.00436
499,1794,3.31212,-0.00746629,0.2767,1.00386
502,1791,3.31207,-0.00803953,0.276606,1.00355
505,1788,3.31164,-0.00806237,0.276613,1.00353
508,1785,3.31148,-0.00803409,0.276609,1.00356
511,1782,3.31127,-0.00879692,0.27701,1.00294
514,1779,3.31174,-0.00866662,0.27661,1.00345
517,1776,3.3117,-0.00868673,0.276609,1.0032
520,1773,3.31153,-0.00923358,0.276609,1.00289
523,1770,3.31082,-0.00937474,0.277254,1.00261
526,1767,3.31061,-0.00941967,0.27701,1.00259
529,1764,3.31063,-0.00939825,0.277252,1.0026
532,1761,3.31044,-0.00937872,0.277011,1.00262
535,1758,3.31078,-0.00998045,0.277003,1.00227
538,1755,3.31088,-0.00990904,0.276849,1.00253
541,1752,3.3099,-0.0106443,0.277413,1.00173
544,1749,3.30968,-0.0106662,0.277403,1.0017
547,1746,3.30998,-0.0106634,0.27701,1.00192
550,1743,3.3103,-0.010533,0.27701,1.00174
553,1740,3.31191,-0.0080879,0.276099,1.00114
556,1737,3.31166,-0.00808104,0.2761,1.00115
559,1734,3.31095,-0.0081871,0.276502,1.00088
562,1731,3.31083,-0.0087651,0.276502,1.00055
565,1728,3.31107,-0.00878413,0.276598,1.00058
568,1725,3.31126,-0.00873132,0.2765,1.00059
571,1722,3.31133,-0.00922526,0.276503,1.00034
574,1719,3.31114,-0.00934208,0.276499,1.00027
577,1716,3.31072,-0.00934621,0.276504,1.00026
580,1713,3.31025,-0.0100275,0.276902,0.999692
583,1710,3.31029,-0.0100156,0.276995,0.999701
586,1707,3.31083,-0.00992905,0.276498,0.999936
589,1704,3.31043,-0.0106336,0.276903,0.999372
592,1701,3.3104,-0.0106453,0.276998,0.999365
595,1698,3.31264,-0.00735551,0.275197,0.999395
598,1695,3.31138,-0.00806736,0.275991,0.998564
601,1692,3.31171,-0.00804374,0.275595,0.998791
604,1689,3.3117,-0.00804606,0.275589,0.998785
607,1686,3.31144,-0.00891187,0.276004,0.998142
610,1683,3.3119,-0.00864499,0.275602,0.998497
613,1680,3.31157,-0.00871705,0.275598,0.998455
616,1677,3.31066,-0.0093351,0.276001,0.997893
619,1674,3.31048,-0.00937343,0.275996,0.999175
622,1671,3.31064,-0.00937545,0.275991,0.997877
625,1668,3.31081,-0.00944555,0.276005,0.997785
628,1665,3.31089,-0.00995314,0.275995,0.997568
631,1662,3.31036,-0.0100629,0.276,0.997523
634,1659,3.31048,-0.0100232,0.275996,0.997537
637,1656,3.30952,-0.0108404,0.276807,0.996688
640,1653,3.31001,-0.0107293,0.276406,0.996956
643,1650,3.30964,-0.0107837,0.276405,0.996932
646,1647,3.31253,-0.0074381,0.274696,0.996983
649,1644,3.31212,-0.00811378,0.275088,0.996405
652,1641,3.31182,-0.00812141,0.275089,0.996401
655,1638,3.311,-0.00884556,0.275489,0.995796
658,1635,3.31091,-0.00887222,0.27549,0.995777
661,1632,3.31167,-0.00878512,0.275084,0.99603
664,1629,3.31167,-0.00872547,0.275085,0.996056
667,1626,3.3116,-0.00940363,0.275487,0.995487
670,1623,3.31115,-0.00940421,0.275486,0.995483
673,1620,3.31079,-0.0101384,0.275893,0.99489
676,1617,3.31028,-0.010096,0.27589,0.994895
679,1614,3.3107,-0.0100989,0.275486,0.995106
682,1611,3.31036,-0.0100613,0.275489,0.99514
685,1608,3.31105,-0.010145,0.275484,0.994879
688,1605,3.31018,-0.0107634,0.276083,0.994561
691,1602,3.31193,-0.00748978,0.27457,0.994329
694,1599,3.3118,-0.00812334,0.274656,0.993993
697,1596,3.31135,-0.0081871,0.27457,0.993953
700,1593,3.3109,-0.00885098,0.275231,0.993418
703,1590,3.31115,-0.00889785,0.274986,0.993394
706,1587,3.31136,-0.00888132,0.274987,0.993403
709,1584,3.31141,-0.00877254,0.274571,0.993646
712,1581,3.31081,-0.00954747,0.275219,0.993027
715,1578,3.30996,-0.00965851,0.275398,0.992776
718,1575,3.3107,-0.00947515,0.274983,0.993074
721,1572,3.31025,-0.00959992,0.275388,0.992804
724,1569,3.31085,-0.0101162,0.274983,0.992728
727,1566,3.31068,-0.0100786,0.274982,0.992752
730,1563,3.31066,-0.0107613,0.274988,0.992398
733,1560,3.30992,-0.0108698,0.275389,0.99214
736,1557,3.30978,-0.0106967,0.275389,0.990883
739,1554,3.31182,-0.00763592,0.274072,0.991883
742,1551,3.31173,-0.00822578,0.274073,0.991565
745,1548,3.31201,-0.00816207,0.274066,0.991582
748,1545,3.31161,-0.00884175,0.274471,0.99103
751,1542,3.31174,-0.00877732,0.274064,0.991253
754,1539,3.31078,-0.00889148,0.274474,0.990978
757,1536,3.31102,-0.00942952,0.274711,0.990716
760,1533,3.31109,-0.00956295,0.274477,0.990635
763,1530,3.31102,-0.00954089,0.274475,0.990641
766,1527,3.31128,-0.010125,0.274472,0.990332
769,1524,3.31067,-0.010152,0.274477,0.990327
772,1521,3.31027,-0.0108215,0.274879,0.989763
775,1518,3.30985,-0.0108636,0.274883,0.989729
778,1515,3.30989,-0.0109067,0.274873,0.989689
781,1512,3.30962,-0.0109723,0.274964,0.989663
784,1509,3.31176,-0.00762027,0.273552,0.989465
787,1506,3.31194,-0.00823918,0.273551,0.990465
790,1503,3.3116,-0.00831601,0.273556,0.9891
793,1500,3.31111,-0.00900327,0.274149,0.98852
796,1497,3.31079,-0.00898124,0.27379,0.988526
799,1494,3.31083,-0.00898663,0.273962,0.98854
802,1491,3.31077,-0.0095602,0.273965,0.988228
805,1488,3.3112,-0.00956789,0.274149,0.988229
808,1485,3.31093,-0.00956147,0.273954,0.988206
811,1482,3.31045,-0.010346,0.274365,0.98762
814,1479,3.31004,-0.0103757,0.274362,0.987579
817,1476,3.30989,-0.0108837,0.274362,0.987302
820,1473,3.31002,-0.010867,0.274361,0.98732
823,1470,3.31235,-0.00825386,0.273043,0.986721
826,1467,3.31231,-0.00815488,0.273039,0.986777
829,1464,3.31196,-0.00824165,0.273041,0.986736
832,1461,3.31155,-0.00894867,0.273448,0.986148
835,1458,3.31107,-0.00895007,0.273449,0.986137
838,1455,3.31114,-0.00895656,0.273453,0.986159
841,1452,3.31115,-0.00959557,0.273856,0.98559
844,1449,3.3114,-0.00949396,0.273449,0.985857
847,1446,3.31089,-0.0102162,0.273857,0.985278
850,1443,3.31055,-0.0102177,0.273857,0.985269
853,1440,3.31043,-0.0102582,0.27386,0.985242
856,1437,3.3097,-0.010971,0.274266,0.984663
859,1434,3.31021,-0.0108567,0.273856,0.98492
862,1431,3.31017,-0.0108724,0.273856,0.984915
865,1428,3.31167,-0.0082636,0.272939,0.984112
868,1425,3.31155,-0.00825658,0.272532,0.984329
871,1422,3.31097,-0.00831946,0.272949,0.98409
874,1419,3.31086,-0.00898424,0.272942,0.983727
877,1416,3.31077,-0.00900277,0.27295,0.98373
880,1413,3.31063,-0.00971581,0.273358,0.983156
883,1410,3.31093,-0.00963529,0.272948,0.983407
886,1407,3.31037,-0.0103431,0.273349,0.982827
889,1404,3.3096,-0.0104333,0.274173,0.982575
892,1401,3.30974,-0.0104389,0.273354,0.982765
895,1398,3.30973,-0.0103633,0.273352,0.982803
898,1395,3.31027,-0.010987,0.273355,0.982478
901,1392,3.30972,-0.0110114,0.273759,0.982255
904,1389,3.31133,-0.00840497,0.272432,0.981646
907,1386,3.31106,-0.00841899,0.27244,0.98164
910,1383,3.31119,-0.00906724,0.272528,0.981309
913,1380,3.31129,-0.00907576,0.272431,0.981289
916,1377,3.31091,-0.00910692,0.27285,0.981077
919,1374,3.31103,-0.00967051,0.272927,0.980766
922,1371,3.31067,-0.0102281,0.272843,0.980457
925,1368,3.30993,-0.0103828,0.273257,0.980166
928,1365,3.31021,-0.0103404,0.272846,0.980411
931,1362,3.30996,-0.0110719,0.273262,0.979834
934,1359,3.30966,-0.0110062,0.273253,0.979857
937,1356,3.3121,-0.00762248,0.271516,0.979862
940,1353,3.3115,-0.00838132,0.271922,0.979235
943,1350,3.31054,-0.00855385,0.272343,0.978946
946,1347,3.3107,-0.00914572,0.272336,0.978642
949,1344,3.31092,-0.00906877,0.271929,0.978875
952,1341,3.31112,-0.00903405,0.271926,0.978901
955,1338,3.31104,-0.00961289,0.271923,0.978582
958,1335,3.31026,-0.00978746,0.272338,0.97829
961,1332,3.30954,-0.0104725,0.272745,0.97796
964,1329,3.30938,-0.0105225,0.27275,0.977696
967,1326,3.30967,-0.0104693,0.27274,0.977711
970,1323,3.30991,-0.0110356,0.272746,0.977427
973,1320,3.3096,-0.0110819,0.272751,0.977403
976,1317,3.31074,-0.00849713,0.271831,0.976558
979,1314,3.31066,-0.00848251,0.271829,0.976565
982,1311,3.31073,-0.00907274,0.271824,0.97624
985,1308,3.31104,-0.00910916,0.271834,0.976243
988,1305,3.31095,-0.0096835,0.271827,0.975919
991,1302,3.31072,-0.00973899,0.271825,0.9759
994,1299,3.30957,-0.0105346,0.272664,0.974849
997,1296,3.30973,-0.0104174,0.272244,0.975328
1000,1293,3.30993,-0.0104435,0.272246,0.975345
1003,1290,3.30974,-0.0110267,0.272243,0.975275
1006,1287,3.30958,-0.0110833,0.27224,0.974997
1009,1284,3.31078,-0.00842031,0.271404,0.974175
1012,1281,3.31042,-0.00855821,0.271328,0.974109
1015,1278,3.31071,-0.00914777,0.271322,0.973807
1018,1275,3.31008,-0.00922339,0.271932,0.973578
1021,1272,3.31005,-0.0098041,0.271729,0.97324
1024,1269,3.30948,-0.00978451,0.271733,0.973258
1027,1266,3.30909,-0.0105783,0.272155,0.972901
1030,1263,3.30947,-0.0104773,0.271732,0.972882
1033,1260,3.30968,-0.0104501,0.271738,0.972908
1036,1257,3.30943,-0.0111931,0.272565,0.97232
1039,1254,3.31099,-0.00849566,0.270819,0.971729
1042,1251,3.31035,-0.00864699,0.271236,0.971448
1045,1248,3.31057,-0.00853752,0.271008,0.971697
1048,1245,3.31089,-0.00918717,0.270815,0.971357
1051,1242,3.31102,-0.00913693,0.271231,0.971412
1054,1239,3.31032,-0.0098147,0.271235,0.970841
1057,1236,3.30937,-0.00994835,0.271654,0.970562
1060,1233,3.30907,-0.0099967,0.271654,0.970534
1063,1230,3.30915,-0.0106765,0.272028,0.97019
1066,1227,3.30953,-0.0105993,0.271239,0.970448
1069,1224,3.30892,-0.0112682,0.271651,0.969862
1072,1221,3.30795,-0.0114426,0.27207,0.969579
1075,1218,3.30989,-0.00864662,0.270723,0.968992
1078,1215,3.31051,-0.00851887,0.270305,0.969288
1081,1212,3.31022,-0.00923876,0.270733,0.968716
1084,1209,3.31012,-0.00924061,0.270726,0.968707
1087,1206,3.3094,-0.00999341,0.27114,0.968098
1090,1203,3.30905,-0.0100196,0.271144,0.968098
1093,1200,3.30933,-0.0106985,0.271147,0.967758
1096,1197,3.30933,-0.0105965,0.271146,0.967803
1099,1194,3.30928,-0.0112544,0.271143,0.967448
1102,1191,3.30838,-0.0113372,0.271559,0.967175
1105,1188,3.30986,-0.00864399,0.270824,0.966368
1108,1185,3.31041,-0.00853446,0.270217,0.966632
1111,1182,3.30988,-0.00922108,0.270637,0.966068
1114,1179,3.30926,-0.00936202,0.271056,0.966012
1117,1176,3.30863,-0.0101007,0.27106,0.965407
1120,1173,3.30894,-0.0100128,0.270827,0.96566
1123,1170,3.30881,-0.0107541,0.271065,0.965092
1126,1167,3.30901,-0.0105628,0.270634,0.965373
1129,1164,3.30784,-0.0114598,0.271484,0.964512
1132,1161,3.30757,-0.0114549,0.271482,0.964504
1135,1158,3.30984,-0.00862746,0.270135,0.963949
1138,1155,3.31036,-0.00859208,0.269717,0.964195
1141,1152,3.30948,-0.009404,0.270131,0.963551
1144,1149,3.30886,-0.00938107,0.27056,0.963363
1147,1146,3.30903,-0.0101076,0.270558,0.962994
1150,1143,3.30902,-0.0100491,0.27056,0.963027
1153,1140,3.30878,-0.0107063,0.270515,0.962677
1156,1137,3.3079,-0.0114445,0.270985,0.962087
1159,1134,3.3074,-0.0114435,0.270983,0.962101
1162,1131,3.30979,-0.00868931,0.269712,0.961488
1165,1128,3.30966,-0.00870747,0.269639,0.961504
1168,1125,3.30897,-0.00939575,0.270052,0.960924
1171,1122,3.30846,-0.0094211,0.270288,0.960895
1174,1119,3.3079,-0.0101519,0.270483,0.960332
1177,1116,3.30868,-0.0101576,0.270062,0.960544
1180,1113,3.3088,-0.0106858,0.270043,0.960258
1183,1110,3.30813,-0.0115238,0.270481,0.959616
1186,1107,3.3076,-0.011506,0.27048,0.959633
1189,1104,3.30906,-0.00875009,0.269553,0.958809
1192,1101,3.30938,-0.00874919,0.269554,0.958816
1195,1098,3.30909,-0.00939223,0.269963,0.958488
1198,1095,3.30874,-0.00938316,0.269549,0.958482
1201,1092,3.30799,-0.0101171,0.269977,0.957892
1204,1089,3.30784,-0.0102053,0.269976,0.957859
1207,1086,3.30762,-0.0108889,0.270594,0.957307
1210,1083,3.30749,-0.0115359,0.270405,0.95698
1213,1080,3.30699,-0.011634,0.270492,0.956936
1216,1077,3.30902,-0.00882601,0.269048,0.956317
1219,1074,3.30897,-0.00877787,0.269052,0.95636
1222,1071,3.30938,-0.00939319,0.269046,0.956027
1225,1068,3.30879,-0.00934627,0.269042,0.956272
1228,1065,3.30785,-0.0102057,0.269476,0.95541
1231,1062,3.30758,-0.0102134,0.269474,0.955398
1234,1059,3.3071,-0.0109863,0.269906,0.954817
1237,1056,3.30737,-0.0115924,0.26991,0.954515
1240,1053,3.30675,-0.0115854,0.269898,0.954514
1243,1050,3.30815,-0.00888016,0.268976,0.953653
1246,1047,3.30833,-0.00892832,0.268968,0.953614
1249,1044,3.30838,-0.00952565,0.268972,0.953311
1252,1041,3.30836,-0.00955081,0.268811,0.95332
1255,1038,3.30772,-0.0102542,0.268977,0.952954
1258,1035,3.30681,-0.0103664,0.269403,0.95269
1261,1032,3.3069,-0.0110804,0.269404,0.952311
1264,1029,3.30713,-0.0116731,0.269405,0.952017
1267,1026,3.30889,-0.00891603,0.268476,0.951184
1270,1023,3.3082,-0.00893786,0.268471,0.951151
1273,1020,3.30751,-0.00966361,0.2689,0.950577
1276,1017,3.30817,-0.00958861,0.26847,0.95083
1279,1014,3.30765,-0.0103372,0.268904,0.950241
1282,1011,3.30759,-0.0102413,0.26847,0.950504
1285,1008,3.30644,-0.0111362,0.269336,0.949623
1288,1005,3.30593,-0.011143,0.26933,0.949605
1291,1002,3.30633,-0.0118736,0.269569,0.949268
1294,999,3.30861,-0.00891839,0.267966,0.948706
1297,996,3.30819,-0.00888073,0.267964,0.948714
1300,993,3.30744,-0.00966769,0.268398,0.948112
1303,990,3.30746,-0.0103727,0.268402,0.947759
1306,987,3.30733,-0.0103218,0.268396,0.94778
1309,984,3.30659,-0.0111872,0.268831,0.947156
1312,981,3.30549,-0.0112549,0.269266,0.946891
1315,978,3.30536,-0.0119369,0.269267,0.946547
1318,975,3.30807,-0.008328,0.267088,0.946537
1321,972,3.30807,-0.00905037,0.267893,0.945962
1324,969,3.30767,-0.00966984,0.267895,0.945637
1327,966,3.30665,-0.010512,0.268332,0.945
1330,963,3.30627,-0.0105275,0.26833,0.945001
1333,960,3.30643,-0.0111339,0.268327,0.944686
1336,957,3.30605,-0.011952,0.268773,0.945473
1339,954,3.30543,-0.0120216,0.268955,0.944058
1342,951,3.30704,-0.00917896,0.267838,0.943221
1345,948,3.30761,-0.00906029,0.267398,0.943485
1348,945,3.30697,-0.00978762,0.267825,0.942927
1351,942,3.30656,-0.0105082,0.267832,0.942552
1354,939,3.30565,-0.0106312,0.268271,0.942269
1357,936,3.3055,-0.0112546,0.268274,0.941961
1360,933,3.30602,-0.011938,0.268267,0.941623
1363,930,3.308,-0.00833217,0.266891,0.941364
1366,927,3.30703,-0.00913822,0.267336,0.940754
1369,924,3.30614,-0.00985989,0.267776,0.940207
1372,921,3.30659,-0.00974278,0.267327,0.94045
1375,918,3.30613,-0.0105683,0.267769,0.939839
1378,915,3.30587,-0.0112236,0.267764,0.939489
1381,912,3.30515,-0.0114557,0.268215,0.939436
1384,909,3.30531,-0.0118775,0.268208,0.938969
1387,906,3.30739,-0.00902326,0.266832,0.938342
1390,903,3.30691,-0.0090935,0.267256,0.938317
1393,900,3.30572,-0.00987322,0.26727,0.937693
1396,897,3.30544,-0.0106181,0.267714,0.937119
1399,894,3.30606,-0.0105611,0.267274,0.937377
1402,891,3.30525,-0.0113807,0.267719,0.936774
1405,888,3.30456,-0.0121194,0.268158,0.93618
1408,885,3.30704,-0.00841182,0.266337,0.936174
1411,882,3.30698,-0.00900996,0.266418,0.935894
1414,879,3.30601,-0.00979394,0.266777,0.935276
1417,876,3.30508,-0.0106632,0.267224,0.934629
1420,873,3.30575,-0.0105641,0.266782,0.934911
1423,870,3.30558,-0.0113446,0.267222,0.934309
1426,867,3.30467,-0.0121298,0.267666,0.933705
1429,864,3.30403,-0.0121008,0.267661,0.933704
1432,861,3.30562,-0.00931294,0.266738,0.932826
1435,858,3.30579,-0.00998825,0.266726,0.932476
1438,855,3.30546,-0.0106275,0.266717,0.932153
1441,852,3.3049,-0.0106596,0.266725,0.932153
1444,849,3.3052,-0.0113845,0.266723,0.931794
1447,846,3.30482,-0.0113668,0.26672,0.931791
1450,843,3.30374,-0.0121961,0.267247,0.931197
1453,840,3.30528,-0.0093274,0.266226,0.930314
1456,837,3.30537,-0.00931235,0.266226,0.930326
1459,834,3.30556,-0.0100884,0.266228,0.929955
1462,831,3.30444,-0.0108277,0.266672,0.92936
1465,828,3.30428,-0.0115051,0.266677,0.929028
1468,825,3.3044,-0.0115176,0.266679,0.929043
1471,822,3.30307,-0.0122852,0.267438,0.928467
1474,819,3.30502,-0.00936515,0.265733,0.927811
1477,816,3.30527,-0.00937338,0.265732,0.927818
1480,813,3.30481,-0.0101421,0.266179,0.927215
1483,810,3.30403,-0.0109194,0.266635,0.926624
1486,807,3.3037,-0.0116953,0.267063,0.92625
1489,804,3.30355,-0.0116014,0.266636,0.926301
1492,801,3.30321,-0.0123804,0.26664,0.925932
1495,798,3.3044,-0.00946435,0.265763,0.925044
1498,795,3.30513,-0.0100938,0.26569,0.924753
1501,792,3.30424,-0.0108887,0.266139,0.924136
1504,789,3.30347,-0.0108983,0.266146,0.92413
1507,786,3.30277,-0.0117298,0.266601,0.923536
1510,783,3.30267,-0.0123598,0.266594,0.923219
1513,780,3.30477,-0.00944758,0.265195,0.922558
1516,777,3.30424,-0.0095367,0.265196,0.922506
1519,774,3.30397,-0.0101781,0.265647,0.921749
1522,771,3.30371,-0.0109272,0.265723,0.92163
1525,768,3.30225,-0.0117322,0.26611,0.921041
1528,765,3.30246,-0.0118206,0.266106,0.920988
1531,762,3.30458,-0.00866262,0.264704,0.920447
1534,759,3.30354,-0.00957127,0.265162,0.919781
1537,756,3.30405,-0.0102337,0.265337,0.919464
1540,753,3.30352,-0.0110042,0.265619,0.918888
1543,750,3.30248,-0.0110428,0.265615,0.918855
1546,747,3.30259,-0.0117841,0.265621,0.918509
1549,744,3.30193,-0.0125746,0.266077,0.917916
1552,741,3.30357,-0.00889824,0.264681,0.917622
1555,738,3.30333,-0.00968953,0.265136,0.917026
1558,735,3.30335,-0.0103749,0.265355,0.91668
1561,732,3.3021,-0.0111868,0.265597,0.916086
1564,729,3.30223,-0.0110851,0.265195,0.91633
1567,726,3.30161,-0.0119074,0.265586,0.915741
1570,723,3.30067,-0.0127221,0.266044,0.915117
1573,720,3.30331,-0.00969526,0.264865,0.914495
1576,717,3.30332,-0.0102672,0.264642,0.914216
1579,714,3.30201,-0.0111934,0.265098,0.913541
1582,711,3.30166,-0.0112247,0.265106,0.913542
1585,708,3.30155,-0.0118616,0.265093,0.913215
1588,705,3.30283,-0.00895926,0.264148,0.912308
1591,702,3.30297,-0.00962765,0.264147,0.911997
1594,699,3.30281,-0.0103572,0.264221,0.911662
1597,696,3.30094,-0.0113979,0.265084,0.910731
1600,693,3.30114,-0.0120969,0.265082,0.910404
1603,690,3.30083,-0.0108237,0.264606,0.909973
1606,687,3.30259,-0.00899871,0.263658,0.909765
1609,684,3.3025,-0.0077865,0.26366,0.90912
1612,681,3.30165,-0.016316,0.263656,0.90877
1615,678,3.30097,-0.00942511,0.264122,0.908118
1618,675,3.30062,-0.0179344,0.264126,0.908045
1621,672,3.29947,-0.0187051,0.264585,0.907199
1624,669,3.30213,-0.0136483,0.262772,0.906498
1627,666,3.30256,-0.0104554,0.261776,0.905995
1630,663,3.30109,-0.0132949,0.2627,0.905436
1633,660,3.30183,-0.010035,0.261775,0.904964
1636,657,3.30031,-0.0128065,0.262697,0.904448
1639,654,3.30203,-0.0110104,0.261748,0.903997
1642,651,3.30253,-0.00775019,0.260815,0.903725
1645,648,3.30123,-0.0106093,0.261741,0.903172
1648,645,3.30142,-0.0172236,0.261285,0.902751
1651,642,3.30035,-0.0181008,0.261749,0.902128
1654,639,3.30039,-0.0109162,0.261743,0.901797
1657,636,3.30232,-0.0136453,0.259862,0.901102
1660,633,3.301,-0.0165861,0.260787,0.900528
1663,630,3.30214,-0.0106137,0.259397,0.900289
1666,627,3.30115,-0.0133716,0.25986,0.900002
1669,624,3.3009,-0.014192,0.260326,0.899431
1672,621,3.29974,-0.0150049,0.26078,0.898811
1675,618,3.3018,-0.0119531,0.2598,0.898166
1678,615,3.30192,-0.00858383,0.258436,0.897706
1681,612,3.30037,-0.0135231,0.259823,0.896978
1684,609,3.30098,-0.0160704,0.258436,0.896647
1687,606,3.29935,-0.018954,0.259358,0.896098
1690,603,3.30216,-0.0137913,0.257476,0.895423
1693,600,3.30132,-0.0146951,0.257946,0.89479
1696,597,3.3014,-0.015365,0.257938,0.894472
1699,594,3.30043,-0.0142064,0.257931,0.893768
1702,591,3.30015,-0.0170447,0.2584,0.893482
1705,588,3.30223,-0.0117684,0.256719,0.892816
1708,585,3.30133,-0.0127467,0.256974,0.892141
1711,582,3.30163,-0.0113582,0.256514,0.89179
1714,579,3.30052,-0.0143234,0.257434,0.891208
1717,576,3.3006,-0.0188992,0.256511,0.890737
1720,573,3.30185,-0.00992108,0.256007,0.889919
1723,570,3.30171,-0.016555,0.255547,0.889546
1726,567,3.30054,-0.0115132,0.256648,0.888966
1729,564,3.30074,-0.0161686,0.255543,0.888471
1732,561,3.2995,-0.0112403,0.256651,0.88788
1735,558,3.30218,-0.0118315,0.254128,0.887191
1738,555,3.30073,-0.014774,0.255045,0.886623
1741,552,3.30218,-0.0093945,0.253213,0.886279
1744,549,3.30068,-0.0142593,0.254577,0.885837
1747,546,3.30109,-0.0109389,0.253859,0.885311
1750,543,3.3015,-0.0120476,0.254075,0.884329
1753,540,3.30201,-0.0165854,0.2527,0.884109
1756,537,3.30072,-0.0128867,0.254259,0.883966
1759,534,3.30087,-0.0181812,0.253152,0.883169
1762,531,3.30008,-0.0111776,0.253614,0.882502
1765,528,3.30162,-0.0139793,0.252189,0.881578
1768,525,3.30102,-0.016848,0.252648,0.881278
1771,522,3.30109,-0.0134826,0.251731,0.880775
1774,519,3.30055,-0.0143732,0.252241,0.878758
1777,516,3.30026,-0.0130181,0.251722,0.87975
1780,513,3.30212,-0.00994927,0.250764,0.878885
1783,510,3.30085,-0.0108109,0.251214,0.878267
1786,507,3.30155,-0.00958946,0.250306,0.878028
1789,504,3.29966,-0.0144457,0.251678,0.877631
1792,501,3.30279,-0.00705951,0.249334,0.876892
1795,498,3.30165,-0.00805455,0.250211,0.876197
1798,495,3.301,-0.0167873,0.24979,0.875912
1801,492,3.30015,-0.0177151,0.250252,0.875281
1804,489,3.30016,-0.0164451,0.249791,0.87484
1807,486,3.29938,-0.0172849,0.250237,0.874231
1810,483,3.30148,-0.0121017,0.248361,0.873491
1813,480,3.30181,-0.0106931,0.2479,0.873105
1816,477,3.30017,-0.0125759,0.24881,0.871831
1819,474,3.30037,-0.011206,0.248782,0.87145
1822,471,3.30139,-0.010161,0.247837,0.870621
1825,468,3.30156,-0.00886382,0.247395,0.870221
1828,465,3.3004,-0.0117415,0.248292,0.869704
1831,462,3.30045,-0.0184018,0.247384,0.869569
1834,459,3.29954,-0.0133412,0.248293,0.868969
1837,456,3.30111,-0.0141445,0.246409,0.867952
1840,453,3.30076,-0.0169248,0.246857,0.867719
1843,450,3.29959,-0.0158161,0.247054,0.866985
1846,447,3.30003,-0.0153439,0.2464,0.866187
1849,444,3.30041,-0.0143765,0.246341,0.865132
1852,441,3.30143,-0.0108485,0.244979,0.864902
1855,438,3.30016,-0.0138514,0.245888,0.864362
1858,435,3.30021,-0.0185992,0.244978,0.863849
1861,432,3.30215,-0.0153344,0.24355,0.863247
1864,429,3.30083,-0.0150363,0.243998,0.861926
1867,426,3.30108,-0.0158337,0.244002,0.861573
1870,423,3.29953,-0.0187522,0.245097,0.861084
1873,420,3.29976,-0.0174959,0.244449,0.86064
1876,417,3.30078,-0.0164201,0.24393,0.859853
1879,414,3.30101,-0.0130228,0.243025,0.859335
1882,411,3.29977,-0.0160108,0.243926,0.858789
1885,408,3.29984,-0.0125919,0.243011,0.858272
1888,405,3.3021,-0.00937637,0.241945,0.857625
1891,402,3.30039,-0.0111299,0.24249,0.856418
1894,399,3.30129,-0.00972947,0.241582,0.856241
1897,396,3.29938,-0.0126097,0.242484,0.855754
1900,393,3.30162,-0.0154331,0.240602,0.855086
1903,390,3.30075,-0.0165562,0.241055,0.854382
1906,387,3.3003,-0.0139307,0.240795,0.853299
1909,384,3.29977,-0.0167526,0.241046,0.853042
1912,381,3.3014,-0.00947158,0.239172,0.851947
1915,378,3.30119,-0.0123517,0.239619,0.851702
1918,375,3.30006,-0.0140633,0.240067,0.850732
1921,372,3.30044,-0.0106004,0.239165,0.850215
1924,369,3.29912,-0.011413,0.239607,0.84964
1927,366,3.30081,-0.0152323,0.238185,0.848315
1930,363,3.30038,-0.0181192,0.238628,0.848075
1933,360,3.29935,-0.0169123,0.238625,0.847354
1936,357,3.2996,-0.0156131,0.238354,0.846923
1939,354,3.30155,-0.0101426,0.236296,0.846209
1942,351,3.30093,-0.0111085,0.236749,0.845836
1945,348,3.29951,-0.0170902,0.238087,0.844797
1948,345,3.29993,-0.0114238,0.236737,0.844193
1951,342,3.30085,-0.0104152,0.236198,0.843374
1954,339,3.30076,-0.0090291,0.235754,0.842977
1957,336,3.29985,-0.0190554,0.236195,0.842019
1960,333,3.29849,-0.0200275,0.236645,0.841405
1963,330,3.3017,-0.0143921,0.234318,0.840985
1966,327,3.29965,-0.0183866,0.235659,0.839843
1969,324,3.30004,-0.0148406,0.234758,0.839337
1972,321,3.2993,-0.0177883,0.235206,0.839089
1975,318,3.30139,-0.0103472,0.233326,0.837991
1978,315,3.3009,-0.0111796,0.233327,0.837638
1981,312,3.29967,-0.0128364,0.233944,0.836698
1984,309,3.3024,-0.0094525,0.232332,0.836095
1987,306,3.30113,-0.0082895,0.232331,0.83536
1990,303,3.30037,-0.0183809,0.232772,0.834441
1993,300,3.2998,-0.0108189,0.232773,0.834059
1996,297,3.30181,-0.0123855,0.230885,0.832933
1999,294,3.30128,-0.0153504,0.231332,0.832455
2002,291,3.30022,-0.0141695,0.231333,0.831719
2005,288,3.30015,-0.0149814,0.231334,0.83137
2008,285,3.3016,-0.0103512,0.229893,0.830061
2011,282,3.30099,-0.0112954,0.230329,0.829437
2014,279,3.30024,-0.0121257,0.230329,0.829069
2017,276,3.29979,-0.0108725,0.230326,0.828385
2020,273,3.30144,-0.00844527,0.229335,0.827142
2023,270,3.30057,-0.0176926,0.229348,0.826856
2026,267,3.3004,-0.0163458,0.228889,0.826392
2029,264,3.29873,-0.0181818,0.22978,0.825197
2032,261,3.30135,-0.0125567,0.227888,0.824486
2035,258,3.30034,-0.0156369,0.228331,0.824202
2038,255,3.3002,-0.0129956,0.227886,0.823057
2041,252,3.29849,-0.0182807,0.229214,0.822671
2044,249,3.30125,-0.0104967,0.226886,0.821841
2047,246,3.3008,-0.0113589,0.226888,0.821491
2050,243,3.29914,-0.0109896,0.227323,0.820185
2053,240,3.30144,-0.00750571,0.225882,0.819602
2056,237,3.30006,-0.0178606,0.226318,0.818648
2059,234,3.30019,-0.0165087,0.225882,0.818215
2062,231,3.29863,-0.0204691,0.227184,0.817359
2065,228,3.30148,-0.0125743,0.224431,0.816561
2068,225,3.30003,-0.0157903,0.225315,0.816032
2071,222,3.2996,-0.0153089,0.225308,0.814986
2074,219,3.29897,-0.0161956,0.225308,0.814613
2077,216,3.30075,-0.0106109,0.22386,0.81365
2080,213,3.3002,-0.0114459,0.223858,0.813293
2083,210,3.29935,-0.0110091,0.223857,0.81225
2086,207,3.30174,-0.00750787,0.222411,0.811647
2089,204,3.30023,-0.0157516,0.222414,0.810614
2092,201,3.29928,-0.0189145,0.223293,0.810124
2095,198,3.29818,-0.0185337,0.223289,0.809029
2098,195,3.30078,-0.0128129,0.221403,0.808346
2101,192,3.29961,-0.01467,0.221839,0.807357
2104,189,3.29994,-0.0109979,0.220962,0.806841
2107,186,3.30153,-0.00977224,0.219956,0.80632
2110,183,3.30092,-0.00929149,0.219958,0.80528
2113,180,3.29974,-0.0102764,0.220386,0.804654
2116,177,3.29891,-0.0185118,0.220384,0.803639
2119,174,3.30108,-0.00847591,0.218995,0.803133
2122,171,3.30013,-0.015973,0.219373,0.802427
2125,168,3.29905,-0.0200536,0.220247,0.80157
2128,165,3.30123,-0.0141699,0.218351,0.800883
2131,162,3.30126,-0.0128676,0.217914,0.8004
2134,159,3.29956,-0.0125435,0.218349,0.799073
2137,156,3.29928,-0.0133939,0.218346,0.798731
2140,153,3.30109,-0.0085879,0.216894,0.797397
2143,150,3.30103,-0.00936539,0.216919,0.795648
2146,147,3.29936,-0.020041,0.217323,0.796127
2149,144,3.29883,-0.01219,0.217759,0.795492
2152,141,3.29978,-0.0176361,0.216738,0.794617
2155,138,3.29955,-0.018453,0.216739,0.794307
2158,135,3.2983,-0.0203307,0.217176,0.79333
2161,132,3.30154,-0.0108522,0.214411,0.792046
2164,129,3.29981,-0.014075,0.215276,0.791549
2167,126,3.29959,-0.0135285,0.215273,0.79053
2170,123,3.29865,-0.0145738,0.215272,0.790107
2173,120,3.30054,-0.01099,0.214251,0.789286
2176,117,3.29951,-0.0105104,0.21425,0.788246
2179,114,3.29939,-0.0113534,0.214247,0.787902
2182,111,3.30058,-0.00873817,0.213223,0.786682
2185,108,3.30012,-0.0185777,0.213219,0.786349
2188,105,3.2981,-0.0205642,0.214093,0.785136
2191,102,3.29913,-0.0167381,0.212782,0.784832
2194,99,3.29967,-0.0142904,0.212603,0.783319
2197,96,3.29979,-0.0150946,0.212187,0.78301
2200,93,3.29854,-0.0146619,0.212185,0.781941
2203,90,3.30093,-0.0109592,0.210856,0.781353
2206,87,3.29983,-0.00971726,0.210719,0.780613
2209,84,3.29962,-0.0113857,0.210721,0.779973
2212,81,3.30076,-0.0155161,0.209255,0.778641
2215,78,3.29979,-0.0188635,0.210118,0.778132
2218,75,3.2992,-0.017395,0.209684,0.777695
2221,72,3.29813,-0.0192854,0.210116,0.776733
2224,69,3.30064,-0.0119816,0.208217,0.775312
2227,66,3.2998,-0.0151896,0.208648,0.775071
2230,63,3.29866,-0.0161231,0.209077,0.774488
2233,60,3.30027,-0.013556,0.208044,0.773223
2236,57,3.30049,-0.00975864,0.207176,0.77269
2239,54,3.2989,-0.0139242,0.208056,0.771853
2242,51,3.30132,-0.0170587,0.206137,0.771166
2245,48,3.2996,-0.00994209,0.206998,0.769899
2248,45,3.29947,-0.0176602,0.206976,0.769481
2251,42,3.29811,-0.0195183,0.206993,0.768542
2254,39,3.30068,-0.0158212,0.20552,0.767932
2257,36,3.2996,-0.0153592,0.20552,0.766872
2260,33,3.29934,-0.0162638,0.205516,0.766526
2263,30,3.30111,-0.0112143,0.204042,0.765193
2266,27,3.29971,-0.0146308,0.204904,0.76468
2269,24,3.29996,-0.0116593,0.204037,0.7638
2272,21,3.30103,-0.0104065,0.203423,0.763025
2275,18,3.30122,-0.0166986,0.202564,0.762164
2278,15,3.29885,-0.0211579,0.203849,0.761034
2281,12,3.3016,-0.0150159,0.201944,0.760339
2284,9,3.3007,-0.0146258,0.201937,0.759231
2287,6,3.30002,-0.0177796,0.202366,0.759059
2290,3,3.29912,-0.0173622,0.202364,0.757982