File: hust_correlation_analysis/matrices/HUST_6-6_cycle_feature_matrix.csv
cycle_number,rul,voltage,current,capacity,charge_capacity
1,2470,3.32534,0.0390004,0.310224,1.05424
4,2467,3.30175,-0.0112533,0.347509,1.01285
7,2464,3.30352,-0.0102132,0.345317,1.0168
10,2461,3.30578,-0.0110016,0.343947,1.02076
13,2458,3.30732,-0.0114779,0.342314,1.0236
16,2455,3.30769,-0.0117769,0.341628,1.02617
19,2452,3.31017,-0.00986428,0.339353,1.02823
22,2449,3.30977,-0.0110812,0.339157,1.03006
25,2446,3.31194,-0.00851067,0.337191,1.03128
28,2443,3.31239,-0.00915684,0.336469,1.0323
31,2440,3.31141,-0.0115817,0.33717,1.03279
34,2437,3.31267,-0.00975601,0.335851,1.03465
37,2434,3.31384,-0.00912017,0.334974,1.0354
40,2431,3.31433,-0.00861418,0.334536,1.03615
43,2428,3.3132,-0.0114073,0.335237,1.03631
46,2425,3.31382,-0.0102747,0.334472,1.03739
49,2422,3.31573,-0.0107019,0.333935,1.03727
52,2419,3.31461,-0.0108139,0.333506,1.0374
55,2416,3.31474,-0.0107965,0.333505,1.03742
58,2413,3.31486,-0.010796,0.333073,1.03757
61,2410,3.31495,-0.010183,0.333069,1.03822
64,2407,3.31515,-0.0102366,0.332639,1.03809
67,2404,3.31524,-0.0107303,0.332692,1.03804
70,2401,3.31656,-0.00745019,0.331085,1.03804
73,2398,3.31675,-0.0090433,0.331091,1.03707
76,2395,3.31612,-0.0096359,0.331085,1.03667
79,2392,3.31631,-0.00908046,0.331084,1.03702
82,2389,3.31699,-0.00895692,0.330226,1.03742
85,2386,3.31676,-0.00902896,0.330648,1.03721
88,2383,3.31705,-0.00958522,0.330322,1.03704
91,2380,3.31652,-0.0102192,0.330653,1.03645
94,2377,3.31656,-0.0101074,0.330235,1.03671
97,2374,3.31633,-0.0107105,0.330658,1.03616
100,2371,3.31792,-0.00786906,0.329102,1.03613
103,2368,3.31772,-0.00854489,0.329007,1.03551
106,2365,3.3178,-0.0084708,0.329605,1.03557
109,2362,3.31798,-0.00854855,0.329101,1.03569
112,2359,3.31745,-0.00906118,0.329519,1.03518
115,2356,3.3174,-0.00960049,0.329526,1.03487
118,2353,3.31702,-0.00970432,0.329529,1.0348
121,2350,3.31736,-0.00952012,0.329103,1.03508
124,2347,3.31674,-0.0101824,0.329947,1.0343
127,2344,3.3172,-0.0101617,0.329517,1.03449
130,2341,3.31663,-0.0102377,0.329943,1.03427
133,2338,3.31636,-0.0108306,0.329942,1.03389
136,2335,3.31779,-0.00844821,0.328823,1.03342
139,2332,3.31777,-0.00849014,0.328825,1.0334
142,2329,3.31719,-0.00909679,0.329249,1.03283
145,2326,3.31708,-0.00912231,0.329329,1.03283
148,2323,3.3177,-0.00951478,0.328825,1.03274
151,2320,3.31728,-0.00969277,0.329251,1.03247
154,2317,3.31707,-0.00964213,0.32925,1.0325
157,2314,3.3164,-0.0102948,0.329677,1.03192
160,2311,3.31625,-0.010809,0.329776,1.03159
163,2308,3.31617,-0.0108907,0.32968,1.03156
166,2305,3.31763,-0.00801849,0.328551,1.03137
169,2302,3.31797,-0.00845081,0.328552,1.0311
172,2299,3.31738,-0.00850148,0.328551,1.03131
175,2296,3.31771,-0.00907964,0.328554,1.0307
178,2293,3.31758,-0.00902181,0.328554,1.03073
181,2290,3.31698,-0.00966873,0.328978,1.03016
184,2287,3.31699,-0.00960282,0.32898,1.03019
187,2284,3.31686,-0.00980081,0.329404,1.02989
190,2281,3.31703,-0.0102241,0.328981,1.0298
193,2278,3.31653,-0.0102643,0.329407,1.02962
196,2275,3.31635,-0.0108034,0.329405,1.02926
199,2272,3.31607,-0.010876,0.329834,1.02905
202,2269,3.31759,-0.008638,0.328705,1.02846
205,2266,3.31729,-0.00857669,0.328709,1.02851
208,2263,3.31743,-0.00911056,0.328703,1.02816
211,2260,3.31746,-0.00910322,0.328786,1.02816
214,2257,3.31706,-0.00919469,0.329123,1.02794
217,2254,3.31718,-0.00913942,0.329223,1.02793
220,2251,3.31731,-0.00915611,0.329549,1.02773
223,2248,3.31766,-0.00925405,0.329551,1.02768
226,2245,3.31752,-0.00915524,0.32998,1.02756
229,2242,3.31594,-0.00936286,0.330406,1.02723
232,2239,3.31655,-0.00978224,0.330406,1.02698
235,2236,3.31671,-0.00984305,0.329973,1.02712
238,2233,3.31605,-0.00992393,0.330836,1.02671
241,2230,3.31638,-0.0103824,0.330399,1.02659
244,2227,3.31604,-0.0104958,0.330828,1.02634
247,2224,3.31678,-0.00819803,0.329701,1.02577
250,2221,3.31759,-0.00852092,0.328496,1.02612
253,2218,3.31695,-0.00922973,0.329271,1.02531
256,2215,3.31664,-0.00934957,0.329274,1.02525
259,2212,3.31626,-0.00985735,0.329699,1.02474
262,2209,3.31706,-0.00979359,0.329267,1.02495
265,2206,3.31653,-0.00983665,0.32969,1.02472
268,2203,3.31541,-0.0104838,0.33013,1.02416
271,2200,3.3152,-0.0110545,0.330235,1.02382
274,2197,3.31602,-0.0108133,0.329269,1.02432
277,2194,3.3178,-0.00806805,0.328139,1.02402
280,2191,3.31675,-0.0087483,0.328993,1.02323
283,2188,3.31698,-0.0086916,0.329555,1.02328
286,2185,3.31714,-0.00866572,0.328989,1.02328
289,2182,3.31663,-0.00930667,0.329422,1.0227
292,2179,3.316505,-0.00928149,0.328996,1.0229
295,2176,3.31651,-0.00981199,0.328996,1.02257
298,2173,3.31641,-0.00977806,0.328998,1.0226
301,2170,3.31611,-0.0104347,0.329429,1.02201
304,2167,3.31612,-0.0103855,0.329429,1.02204
307,2164,3.31603,-0.0103689,0.329426,1.02205
310,2161,3.31602,-0.011014,0.329988,1.02163
313,2158,3.31523,-0.011088,0.329777,1.02141
316,2155,3.31731,-0.00862089,0.328298,1.02113
319,2152,3.31708,-0.00854685,0.328299,1.02118
322,2149,3.31669,-0.00928454,0.328733,1.02042
325,2146,3.3163,-0.00937996,0.329162,1.02031
328,2143,3.31609,-0.00928885,0.329162,1.02037
331,2140,3.31657,-0.00920712,0.328729,1.02059
334,2137,3.31625,-0.00989472,0.329162,1.02024
337,2134,3.31575,-0.0098068,0.329169,1.02005
340,2131,3.3152,-0.0104874,0.329609,1.01948
343,2128,3.31532,-0.0104287,0.329609,1.01952
346,2125,3.31565,-0.0103993,0.32917,1.01969
349,2122,3.31465,-0.0111344,0.330042,1.0189
352,2119,3.31518,-0.0110438,0.329608,1.01913
355,2116,3.31474,-0.0117008,0.330042,1.01853
358,2113,3.31574,-0.00878427,0.329344,1.01817
361,2110,3.31633,-0.00868134,0.328909,1.01841
364,2107,3.31649,-0.00925033,0.328909,1.01805
367,2104,3.31551,-0.00932906,0.329346,1.01784
370,2101,3.31587,-0.00932582,0.328908,1.01801
373,2098,3.31541,-0.00992418,0.329782,1.01729
376,2095,3.31561,-0.00986328,0.329341,1.01749
379,2092,3.3156,-0.00992219,0.329341,1.01746
382,2089,3.31507,-0.0105853,0.329782,1.01686
385,2086,3.31464,-0.010532,0.329784,1.01692
388,2083,3.31418,-0.0108517,0.330224,1.01655
391,2080,3.31489,-0.0110334,0.33035,1.01661
394,2077,3.31457,-0.0110028,0.329785,1.01662
397,2074,3.31543,-0.0088798,0.329525,1.01557
400,2071,3.3161,-0.0087046,0.329086,1.01585
403,2068,3.31588,-0.00877046,0.329084,1.01581
406,2065,3.31565,-0.00884719,0.329085,1.01576
409,2062,3.31539,-0.00926068,0.329529,1.01535
412,2059,3.31508,-0.00929129,0.329536,1.01533
415,2056,3.31515,-0.00985868,0.329526,1.01496
418,2053,3.31509,-0.00997096,0.329524,1.0149
421,2050,3.31449,-0.0100044,0.329965,1.01469
424,2047,3.31488,-0.00991014,0.329522,1.01492
427,2044,3.31483,-0.0105807,0.330525,1.01433
430,2041,3.31433,-0.0105307,0.329968,1.01438
433,2038,3.31443,-0.0106246,0.329966,1.01431
436,2035,3.31452,-0.0111514,0.329963,1.01399
439,2032,3.31385,-0.0111721,0.330406,1.01381
442,2029,3.31437,-0.0110653,0.329962,1.01404
445,2026,3.3158,-0.00885255,0.329262,1.0132
448,2023,3.3152,-0.00886087,0.329785,1.01302
451,2020,3.31564,-0.00881241,0.329262,1.01323
454,2017,3.31489,-0.00949939,0.329711,1.01265
457,2014,3.31462,-0.00954167,0.329817,1.01263
460,2011,3.31485,-0.00943614,0.329714,1.01269
463,2008,3.31482,-0.00997567,0.329709,1.01235
466,2005,3.3144,-0.0100222,0.330153,1.01215
469,2002,3.31496,-0.00998772,0.329704,1.01233
472,1999,3.3147,-0.0105772,0.329704,1.01196
475,1996,3.31384,-0.0106224,0.330151,1.01177
478,1993,3.31413,-0.0111114,0.330153,1.01147
481,1990,3.31397,-0.0111813,0.330154,1.01143
484,1987,3.31326,-0.0113134,0.330597,1.01118
487,1984,3.31517,-0.00837574,0.329452,1.01095
490,1981,3.31506,-0.00889081,0.329449,1.01063
493,1978,3.31499,-0.00889804,0.329448,1.01061
496,1975,3.3153,-0.00885092,0.329444,1.01062
499,1972,3.31527,-0.00946386,0.329452,1.01028
502,1969,3.31437,-0.00955106,0.329902,1.01008
505,1966,3.31393,-0.0101341,0.330348,1.00955
508,1963,3.31424,-0.0100433,0.329896,1.00974
511,1960,3.31417,-0.0101013,0.329892,1.0097
514,1957,3.31402,-0.010095,0.329892,1.00971
517,1954,3.31368,-0.0106717,0.330335,1.00918
520,1951,3.31365,-0.0107601,0.33034,1.00912
523,1948,3.31365,-0.0106686,0.330345,1.00947
526,1945,3.31311,-0.0112619,0.330794,1.00868
529,1942,3.31271,-0.011282,0.330798,1.00867
532,1939,3.3145,-0.00889303,0.329657,1.00812
535,1936,3.3141,-0.00895406,0.329655,1.00808
538,1933,3.314,-0.00894066,0.329654,1.00807
541,1930,3.3141,-0.00946822,0.329656,1.00775
544,1927,3.31417,-0.00803239,0.329329,1.00738
547,1924,3.31379,-0.00807823,0.32933,1.00735
550,1921,3.3147,-0.00826996,0.32889,1.00742
553,1918,3.31397,-0.00895895,0.329336,1.00683
556,1915,3.31387,-0.00894472,0.329333,1.00682
559,1912,3.31296,-0.00896175,0.330351,1.00523
562,1909,3.31329,-0.00899423,0.329342,1.00682
565,1906,3.31316,-0.00957057,0.329787,1.00629
568,1903,3.31351,-0.00948506,0.329344,1.00653
571,1900,3.31313,-0.0101003,0.329784,1.00596
574,1897,3.31277,-0.010181,0.329785,1.0059
577,1894,3.31283,-0.0101347,0.329785,1.00594
580,1891,3.31498,-0.00770785,0.328639,1.00539
583,1888,3.31415,-0.00783256,0.329086,1.00512
586,1885,3.31417,-0.00775549,0.329085,1.00517
589,1882,3.31431,-0.00919089,0.329418,1.00558
592,1879,3.3138,-0.00954365,0.329866,1.00518
595,1876,3.31393,-0.00955248,0.329868,1.00519
598,1873,3.31376,-0.00841667,0.329081,1.00477
601,1870,3.31308,-0.0101502,0.330313,1.00464
604,1867,3.31337,-0.0107706,0.330313,1.00426
607,1864,3.31326,-0.0107542,0.329865,1.00444
610,1861,3.31282,-0.0108032,0.330311,1.00423
613,1858,3.31309,-0.0107619,0.330307,1.00424
616,1855,3.31291,-0.0114019,0.330762,1.0037
619,1852,3.31303,-0.0112821,0.330311,1.00394
622,1849,3.31249,-0.0113654,0.330766,1.00374
625,1846,3.31408,-0.00892986,0.329618,1.00316
628,1843,3.31445,-0.00885779,0.329733,1.00339
631,1840,3.31416,-0.00894145,0.329165,1.00333
634,1837,3.31327,-0.0096409,0.330065,1.00255
637,1834,3.31381,-0.00957331,0.329718,1.00278
640,1831,3.31376,-0.0081713,0.328832,1.00253
643,1828,3.31323,-0.00843167,0.329287,1.00221
646,1825,3.3131,-0.0104264,0.330072,1.00209
649,1822,3.313,-0.00896166,0.329852,1.00187
652,1819,3.31323,-0.00961142,0.329286,1.00148
655,1816,3.31326,-0.00953257,0.329284,1.00152
658,1813,3.31308,-0.00952866,0.329282,1.00152
661,1810,3.3122,-0.0114887,0.330524,1.00128
664,1807,3.31285,-0.011435,0.330058,1.00144
667,1804,3.31237,-0.0114804,0.330511,1.00125
670,1801,3.31369,-0.00909197,0.32977,1.00047
673,1798,3.31312,-0.00901144,0.329827,1.00055
676,1795,3.31359,-0.00901665,0.329373,1.00072
679,1792,3.31316,-0.00972239,0.329824,1.00012
682,1789,3.31309,-0.00967732,0.329828,1.00015
685,1786,3.3134,-0.00974947,0.329743,1.00011
688,1783,3.31312,-0.00966527,0.329827,1.00018
691,1780,3.31339,-0.00874754,0.329038,0.999618
694,1777,3.31244,-0.0103136,0.33085,0.999605
697,1774,3.31265,-0.00901776,0.329495,0.999283
700,1771,3.31289,-0.00936486,0.328969,0.999067
703,1768,3.31187,-0.0115185,0.330737,0.9987
706,1765,3.31187,-0.0114467,0.330735,0.998742
709,1762,3.31239,-0.0114359,0.330379,0.998895
712,1759,3.31151,-0.0116547,0.330728,0.998583
715,1756,3.31346,-0.00908624,0.329582,0.998112
718,1753,3.31377,-0.00763606,0.328792,0.997813
721,1750,3.3137,-0.00902383,0.329126,0.99832
724,1747,3.31351,-0.00970037,0.329579,0.997718
727,1744,3.31293,-0.00986448,0.330031,0.997452
730,1741,3.3129,-0.00976083,0.330031,0.997507
733,1738,3.31345,-0.0097099,0.329573,0.997712
736,1735,3.3127,-0.01037,0.330037,0.997163
739,1732,3.31248,-0.0102986,0.330046,0.997229
742,1729,3.31218,-0.0109388,0.330492,0.996184
745,1726,3.31245,-0.0108648,0.33003,0.99683
748,1723,3.31253,-0.0109408,0.330031,0.997035
751,1720,3.31247,-0.0116139,0.330027,0.99637
754,1717,3.31194,-0.0115744,0.330482,0.996485
757,1714,3.31159,-0.0116616,0.330483,0.995923
760,1711,3.31336,-0.00911733,0.329436,0.995666
763,1708,3.3132,-0.00907524,0.329345,0.995712
766,1705,3.31325,-0.00912829,0.329339,0.995683
769,1702,3.31293,-0.00967842,0.329802,0.995193
772,1699,3.31272,-0.00976854,0.329793,0.993773
775,1696,3.31329,-0.0097321,0.329335,0.995291
778,1693,3.31293,-0.0103321,0.329792,0.994754
781,1690,3.31218,-0.0103994,0.330251,0.993194
784,1687,3.31203,-0.0109543,0.330258,0.994246
787,1684,3.31178,-0.0109307,0.330261,0.994255
790,1681,3.31167,-0.0108965,0.330261,0.994528
793,1678,3.31132,-0.0115652,0.330718,0.993703
796,1675,3.31116,-0.0116508,0.330716,0.993645
799,1672,3.31329,-0.00861636,0.329105,0.99358
802,1669,3.31349,-0.00902718,0.329103,0.993342
805,1666,3.31293,-0.00918418,0.330137,0.991741
808,1663,3.3131,-0.00912448,0.329103,0.993274
811,1660,3.31247,-0.00972152,0.32957,0.99276
814,1657,3.3121,-0.00984254,0.330025,0.991178
817,1654,3.31243,-0.00971175,0.32957,0.992768
820,1651,3.31158,-0.0104711,0.330029,0.992134
823,1648,3.31196,-0.01047,0.330028,0.992146
826,1645,3.31181,-0.0104642,0.330024,0.992132
829,1642,3.31218,-0.0110077,0.330021,0.991786
832,1639,3.3121,-0.0110242,0.330596,0.991811
835,1636,3.31187,-0.0116512,0.330026,0.991424
838,1633,3.31189,-0.0116367,0.330108,0.991202
841,1630,3.3126,-0.00861207,0.329337,0.991041
844,1627,3.31231,-0.00929859,0.329795,0.990431
847,1624,3.31289,-0.0091785,0.329334,0.99067
850,1621,3.31254,-0.00925587,0.32933,0.990617
853,1618,3.31218,-0.00982765,0.329793,0.9901
856,1615,3.31218,-0.00985067,0.329804,0.990126
859,1612,3.31184,-0.00861593,0.329464,0.989566
862,1609,3.31189,-0.0103296,0.3298,0.989832
865,1606,3.31197,-0.010495,0.329874,0.989717
868,1603,3.3114,-0.0110688,0.330256,0.989192
871,1600,3.31133,-0.0110808,0.330256,0.989192
874,1597,3.31098,-0.0112133,0.330335,0.989108
877,1594,3.31126,-0.0116955,0.330248,0.988792
880,1591,3.31118,-0.0117509,0.330264,0.989071
883,1588,3.31108,-0.0108265,0.329924,0.988077
886,1585,3.31247,-0.0094977,0.329574,0.98793
889,1582,3.31168,-0.00992807,0.330033,0.987486
892,1579,3.31165,-0.00988882,0.330031,0.987504
895,1576,3.31211,-0.00988943,0.329565,0.987656
898,1573,3.31227,-0.0098782,0.329559,0.987665
901,1570,3.31145,-0.0105203,0.330024,0.987102
904,1567,3.31147,-0.010532,0.330023,0.987085
907,1564,3.31079,-0.0112174,0.330593,0.986515
910,1561,3.3112,-0.0110845,0.330024,0.986768
913,1558,3.31078,-0.0117598,0.330496,0.98621
916,1555,3.31048,-0.011709,0.330495,0.986246
919,1552,3.31187,-0.00938234,0.329809,0.985397
922,1549,3.31228,-0.00932089,0.329344,0.985617
925,1546,3.31202,-0.00926246,0.329347,0.985647
928,1543,3.31156,-0.00991341,0.329818,0.985106
931,1540,3.31195,-0.00860069,0.329009,0.98502
934,1537,3.31172,-0.00859602,0.32901,0.984776
937,1534,3.31215,-0.00921447,0.329007,0.9844
940,1531,3.31099,-0.00928424,0.329473,0.98418
943,1528,3.31082,-0.00957779,0.329811,0.983998
946,1525,3.31135,-0.00958357,0.329924,0.984182
949,1522,3.30994,-0.0165936,0.330278,0.983395
952,1519,3.31075,-0.0105704,0.328071,0.982524
955,1516,3.31045,-0.010533,0.329475,0.983464
958,1513,3.31177,-0.00651132,0.328785,0.982324
961,1510,3.31174,-0.00659369,0.328782,0.98226
964,1507,3.31126,-0.00842,0.329589,0.982282
967,1504,3.31111,-0.0131889,0.329121,0.982067
970,1501,3.31109,-0.00899873,0.329588,0.98194
973,1498,3.31162,-0.0120759,0.328181,0.982028
976,1495,3.31091,-0.0121512,0.328652,0.981573
979,1492,3.31073,-0.012732,0.328651,0.981217
982,1489,3.31093,-0.0129504,0.328652,0.981089
985,1486,3.31046,-0.0118388,0.32865,0.980464
988,1483,3.31033,-0.0118167,0.328646,0.980472
991,1480,3.31246,-0.00775775,0.327024,0.979687
994,1477,3.312,-0.00928965,0.327483,0.979875
997,1474,3.31206,-0.00933764,0.327583,0.979844
1000,1471,3.31164,-0.0084543,0.327484,0.979106
1003,1468,3.31049,-0.0103101,0.328423,0.978959
1006,1465,3.31108,-0.0121473,0.328427,0.979156
1009,1462,3.31044,-0.0122163,0.328894,0.978948
1012,1459,3.31075,-0.00966828,0.327951,0.978208
1015,1456,3.31031,-0.0159176,0.327952,0.97822
1018,1453,3.30988,-0.0119433,0.328891,0.97781
1021,1450,3.30985,-0.0118807,0.328885,0.977842
1024,1447,3.31186,-0.00726256,0.327367,0.976042
1027,1444,3.31085,-0.00945613,0.328203,0.97705
1030,1441,3.31145,-0.00997155,0.327732,0.976916
1033,1438,3.31052,-0.0115532,0.329248,0.976718
1036,1435,3.3101,-0.0117124,0.329147,0.976662
1039,1432,3.31073,-0.00890848,0.327734,0.976253
1042,1429,3.31092,-0.0105525,0.327731,0.97657
1045,1426,3.3102,-0.0144701,0.327803,0.975398
1048,1423,3.30984,-0.0118081,0.327186,0.974569
1051,1420,3.30917,-0.0120305,0.329142,0.975182
1054,1417,3.30965,-0.0103867,0.328197,0.975211
1057,1414,3.31105,-0.0109478,0.326573,0.974134
1060,1411,3.31074,-0.0109414,0.326577,0.974155
1063,1408,3.31059,-0.0131662,0.327046,0.973973
1066,1405,3.3104,-0.0147625,0.327517,0.974142
1069,1402,3.31011,-0.0155113,0.327988,0.973524
1072,1399,3.3102,-0.010621,0.326578,0.973061
1075,1396,3.31003,-0.0113859,0.326694,0.972446
1078,1393,3.30985,-0.0129197,0.327051,0.97284
1081,1390,3.30913,-0.0135266,0.327518,0.972318
1084,1387,3.30932,-0.0150747,0.327522,0.972695
1087,1384,3.31048,-0.0110481,0.326834,0.97154
1090,1381,3.31095,-0.0140463,0.325429,0.971437
1093,1378,3.31035,-0.0132598,0.326836,0.971527
1096,1375,3.31029,-0.0100423,0.326368,0.971033
1099,1372,3.31057,-0.00873671,0.326469,0.970703
1102,1369,3.30963,-0.0111349,0.326489,0.970225
1105,1366,3.3098,-0.0100414,0.326016,0.96976
1108,1363,3.31008,-0.0131733,0.325076,0.969401
1111,1360,3.30966,-0.00844176,0.325543,0.969558
1114,1357,3.30932,-0.0107491,0.326482,0.969156
1117,1354,3.30927,-0.00916463,0.32601,0.968967
1120,1351,3.31078,-0.00818741,0.325322,0.968584
1123,1348,3.31098,-0.00967917,0.323917,0.968102
1126,1345,3.30991,-0.0136354,0.325326,0.967865
1129,1342,3.30941,-0.0143328,0.325325,0.967443
1132,1339,3.30996,-0.0109976,0.324384,0.966952
1135,1336,3.3093,-0.00854776,0.325795,0.966924
1138,1333,3.30899,-0.00858886,0.326348,0.966897
1141,1330,3.30903,-0.0139685,0.32532,0.966359
1144,1327,3.30911,-0.0106548,0.324378,0.966069
1147,1324,3.311,-0.00979311,0.323653,0.965626
1150,1321,3.31033,-0.00979609,0.324159,0.965433
1153,1318,3.31047,-0.0104562,0.324159,0.965062
1156,1315,3.31035,-0.010441,0.324162,0.965069
1159,1312,3.30936,-0.0111075,0.32499,0.964513
1162,1309,3.30969,-0.00959095,0.324154,0.964275
1165,1306,3.30971,-0.0160666,0.324045,0.964378
1168,1303,3.30909,-0.0114918,0.325081,0.964275
1171,1300,3.30907,-0.010403,0.324511,0.963786
1174,1297,3.31091,-0.00942694,0.323834,0.963434
1177,1294,3.31027,-0.00662354,0.323469,0.96248
1180,1291,3.31047,-0.00810491,0.323471,0.962906
1183,1288,3.30947,-0.0104653,0.324844,0.962497
1186,1285,3.3092,-0.0155192,0.324291,0.962132
1189,1282,3.3092,-0.0139716,0.323823,0.961896
1192,1279,3.30926,-0.0146105,0.323819,0.961527
1195,1276,3.30916,-0.0145553,0.323815,0.961551
1198,1273,3.30892,-0.0120581,0.323348,0.960856
1201,1270,3.30852,-0.0136329,0.323818,0.960808
1204,1267,3.30991,-0.0110607,0.323139,0.960092
1207,1264,3.3101,-0.0101379,0.322665,0.959492
1210,1261,3.30918,-0.0151027,0.324072,0.95996
1213,1258,3.30992,-0.00855232,0.322189,0.959289
1216,1255,3.31016,-0.0122439,0.321255,0.958591
1219,1252,3.30917,-0.0114609,0.323221,0.958531
1222,1249,3.30865,-0.0131227,0.323505,0.958685
1225,1246,3.30876,-0.0136332,0.322189,0.957464
1228,1243,3.31072,-0.0136081,0.321506,0.957867
1231,1240,3.31005,-0.014353,0.321977,0.957269
1234,1237,3.30955,-0.00870039,0.322438,0.956606
1237,1234,3.30978,-0.0149627,0.321972,0.956894
1240,1231,3.30972,-0.012327,0.321503,0.956002
1243,1228,3.30893,-0.0156419,0.322437,0.956321
1246,1225,3.30901,-0.0146717,0.321965,0.955752
1249,1222,3.30835,-0.0146609,0.322396,0.955615
1252,1219,3.3084,-0.0104987,0.322913,0.955682
1255,1216,3.30919,-0.0112838,0.323187,0.955011
1258,1213,3.30905,-0.0143842,0.322225,0.954667
1261,1210,3.30916,-0.0134568,0.322226,0.95391
1264,1207,3.30913,-0.0150016,0.322227,0.95432
1267,1204,3.30861,-0.0140066,0.322225,0.953607
1270,1201,3.30821,-0.0109564,0.323171,0.953872
1273,1198,3.30836,-0.0146692,0.322224,0.953487
1276,1195,3.30779,-0.0153003,0.322702,0.952707
1279,1192,3.30723,-0.0122066,0.323659,0.953017
1282,1189,3.30975,-0.00725281,0.32213,0.952811
1285,1186,3.30847,-0.0145465,0.322494,0.952038
1288,1183,3.30906,-0.0133358,0.321546,0.95179
1291,1180,3.30906,-0.00852748,0.320602,0.951015
1294,1177,3.3083,-0.0140797,0.322016,0.951189
1297,1174,3.30795,-0.0141343,0.322017,0.951407
1300,1171,3.30711,-0.0148842,0.322975,0.950406
1303,1168,3.30757,-0.0138604,0.321758,0.950059
1306,1165,3.30894,-0.0126938,0.319932,0.94884
1309,1162,3.30848,-0.00962024,0.320872,0.949142
1312,1159,3.3087,-0.0101967,0.320873,0.948805
1315,1156,3.30827,-0.0102724,0.320869,0.948751
1318,1153,3.308,-0.00925409,0.320859,0.948015
1321,1150,3.30804,-0.0131321,0.320389,0.947118
1324,1147,3.30691,-0.0132536,0.322289,0.947816
1327,1144,3.30704,-0.00933532,0.320971,0.946812
1330,1141,3.309,-0.0115036,0.318865,0.946026
1333,1138,3.3086,-0.011325,0.319704,0.944534
1336,1135,3.30823,-0.0136135,0.320173,0.945988
1339,1132,3.30856,-0.00859798,0.318762,0.945238
1342,1129,3.3089,-0.00926093,0.318762,0.944871
1345,1126,3.30809,-0.0125361,0.3197,0.945226
1348,1123,3.30778,-0.0164536,0.320619,0.945236
1351,1120,3.30707,-0.0148675,0.320648,0.944859
1354,1117,3.30707,-0.0138646,0.320179,0.944315
1357,1114,3.30866,-0.0112405,0.31949,0.943557
1360,1111,3.30919,-0.00792884,0.318176,0.943394
1363,1108,3.30881,-0.00862625,0.318541,0.942806
1366,1105,3.30824,-0.0135428,0.31854,0.942422
1369,1102,3.30785,-0.0109456,0.319485,0.942426
1372,1099,3.30729,-0.00996089,0.319485,0.941706
1375,1096,3.30672,-0.0133619,0.320434,0.942019
1378,1093,3.3071,-0.0122493,0.319967,0.941556
1381,1090,3.30818,-0.00975626,0.318907,0.940743
1384,1087,3.30788,-0.00963639,0.319287,0.93931
1387,1084,3.30785,-0.00868232,0.318804,0.940218
1390,1081,3.30741,-0.0143091,0.318806,0.939456
1393,1078,3.30803,-0.0108451,0.317388,0.93932
1396,1075,3.30687,-0.0100197,0.31928,0.939302
1399,1072,3.30676,-0.0121911,0.31787,0.938682
1402,1069,3.30817,-0.0109482,0.317188,0.938217
1405,1066,3.30764,-0.0116084,0.317661,0.937662
1408,1063,3.30754,-0.0136689,0.31813,0.937636
1411,1060,3.30748,-0.0136433,0.318132,0.937642
1414,1057,3.30723,-0.0126812,0.318129,0.936887
1417,1054,3.30672,-0.0143836,0.318606,0.93705
1420,1051,3.30637,-0.0133751,0.318603,0.936306
1423,1048,3.30645,-0.0133838,0.3186,0.936316
1426,1045,3.30767,-0.0124268,0.317923,0.935919
1429,1042,3.30765,-0.00813808,0.316966,0.934785
1432,1039,3.30749,-0.0104321,0.317442,0.934615
1435,1036,3.30685,-0.0154251,0.317446,0.934281
1438,1033,3.30635,-0.0160342,0.317448,0.933906
1441,1030,3.30626,-0.0166638,0.317361,0.933805
1444,1027,3.30647,-0.0166014,0.317451,0.933604
1447,1024,3.30582,-0.017359,0.317924,0.933007
1450,1021,3.30734,-0.0130221,0.316763,0.932081
1453,1018,3.30683,-0.0148016,0.317343,0.932214
1456,1015,3.30733,-0.0108031,0.315428,0.931086
1459,1012,3.30689,-0.0125048,0.315899,0.931271
1462,1009,3.30626,-0.00982217,0.317244,0.931304
1465,1006,3.30597,-0.0135091,0.316372,0.930533
1468,1003,3.30562,-0.0140414,0.316766,0.930231
1471,1000,3.30733,-0.00983991,0.315214,0.929231
1474,997,3.30731,-0.0134271,0.314269,0.928701
1477,994,3.30728,-0.00910318,0.314743,0.928283
1480,991,3.3067,-0.0147358,0.314744,0.927814
1483,988,3.30696,-0.00814125,0.314273,0.927977
1486,985,3.30591,-0.0153539,0.314746,0.927485
1489,982,3.30532,-0.016121,0.315218,0.926883
1492,979,3.30759,-0.0100516,0.313118,0.92597
1495,976,3.30703,-0.0117712,0.31359,0.926145
1498,973,3.30632,-0.014222,0.314538,0.925732
1501,970,3.30644,-0.0131312,0.314064,0.925217
1504,967,3.30603,-0.0132144,0.314063,0.92517
1507,964,3.30537,-0.0138928,0.314539,0.924638
1510,961,3.30506,-0.0175106,0.315878,0.924822
1513,958,3.30505,-0.0148867,0.315001,0.923876
1516,955,3.30666,-0.0147148,0.313302,0.923353
1519,952,3.30685,-0.0107766,0.313776,0.922994
1522,949,3.30698,-0.00912935,0.312895,0.922767
1525,946,3.30636,-0.00956261,0.313364,0.922351
1528,943,3.30586,-0.0167902,0.313769,0.922022
1531,940,3.30553,-0.0167656,0.313767,0.92203
1534,937,3.30746,-0.00916303,0.313094,0.921653
1537,934,3.30673,-0.0147816,0.313626,0.92096
1540,931,3.30659,-0.0135563,0.312687,0.920342
1543,928,3.30547,-0.0162903,0.314041,0.919775
1546,925,3.3057,-0.0112029,0.314036,0.920172
1549,922,3.30576,-0.0116919,0.312607,0.918905
1552,919,3.30545,-0.0141033,0.313076,0.918692
1555,916,3.30624,-0.0126863,0.312877,0.918387
1558,913,3.30598,-0.00999663,0.313835,0.918443
1561,910,3.3055,-0.013862,0.313351,0.917568
1564,907,3.30586,-0.015584,0.313381,0.917931
1567,904,3.30471,-0.0145599,0.313834,0.917028
1570,901,3.30434,-0.0170686,0.314308,0.91678
1573,898,3.30438,-0.0176361,0.314306,0.916471
1576,895,3.30612,-0.00993412,0.312199,0.915112
1579,892,3.30601,-0.0115717,0.312196,0.915503
1582,889,3.30559,-0.00889419,0.311723,0.914558
1585,886,3.30536,-0.00953182,0.312209,0.91407
1588,883,3.30523,-0.0116046,0.312272,0.91406
1591,880,3.30499,-0.0101336,0.311792,0.913728
1594,877,3.30388,-0.0142179,0.313639,0.913573
1597,874,3.3062,-0.00812997,0.311526,0.9126
1600,871,3.3056,-0.0148711,0.31152,0.912589
1603,868,3.30523,-0.00889107,0.311994,0.911978
1606,865,3.30455,-0.0162521,0.311994,0.911661
1609,862,3.30413,-0.0153028,0.31199,0.910883
1612,859,3.30405,-0.0126626,0.312954,0.910895
1615,856,3.30593,-0.0132129,0.310845,0.91001
1618,853,3.30491,-0.0150829,0.3118,0.909935
1621,850,3.3051,-0.00892408,0.311801,0.909597
1624,847,3.30455,-0.0130071,0.311321,0.908648
1627,844,3.3037,-0.0165442,0.312278,0.908982
1630,841,3.30407,-0.0136448,0.311316,0.908287
1633,838,3.30359,-0.0143239,0.311792,0.907745
1636,835,3.30535,-0.01165,0.310644,0.907172
1639,832,3.30538,-0.00811217,0.309689,0.906851
1642,829,3.3047,-0.0106426,0.310641,0.906422
1645,826,3.3044,-0.0113483,0.31064,0.906035
1648,823,3.30405,-0.0163843,0.310161,0.905862
1651,820,3.30351,-0.0120518,0.311116,0.905492
1654,817,3.30362,-0.0160301,0.310156,0.904764
1657,814,3.30483,-0.0101306,0.310442,0.904302
1660,811,3.30489,-0.0090073,0.309488,0.903786
1663,808,3.30453,-0.009012,0.309961,0.903793
1666,805,3.30396,-0.0131063,0.309483,0.902852
1669,802,3.30312,-0.0104817,0.310924,0.902653
1672,799,3.30311,-0.0162013,0.310443,0.902137
1675,796,3.30504,-0.0110712,0.308808,0.90173
1678,793,3.30451,-0.0100015,0.308806,0.901005
1681,790,3.30403,-0.0124398,0.309285,0.900816
1684,787,3.30361,-0.0114685,0.309287,0.900055
1687,784,3.3029,-0.0156691,0.310244,0.900038
1690,781,3.30307,-0.0178327,0.308809,0.899209
1693,778,3.3044,-0.0101863,0.30919,0.898544
1696,775,3.30457,-0.00828139,0.308131,0.898432
1699,772,3.30385,-0.0125626,0.309096,0.898393
1702,769,3.3037,-0.0096624,0.308705,0.897519
1705,766,3.30271,-0.0122659,0.309667,0.897071
1708,763,3.30272,-0.0161481,0.308605,0.896415
1711,760,3.30423,-0.0145513,0.307937,0.896377
1714,757,3.30409,-0.0134904,0.307456,0.895816
1717,754,3.30362,-0.0107453,0.30698,0.894865
1720,751,3.30337,-0.0131893,0.307459,0.894684
1723,748,3.30306,-0.0152128,0.307942,0.894754
1726,745,3.30196,-0.0164076,0.308905,0.893775
1729,742,3.30405,-0.00948273,0.306784,0.893162
1732,739,3.3039,-0.0104687,0.306786,0.89265
1735,736,3.3031,-0.0163702,0.308228,0.892876
1738,733,3.30341,-0.0114015,0.306782,0.892149
1741,730,3.30315,-0.0119571,0.306828,0.891695
1744,727,3.30235,-0.0160017,0.306356,0.890827
1747,724,3.30193,-0.0133007,0.30732,0.890845
1750,721,3.30366,-0.00704262,0.305682,0.889687
1753,718,3.30338,-0.0146226,0.305675,0.889593
1756,715,3.30346,-0.00779895,0.305675,0.889276
1759,712,3.30302,-0.0152097,0.305672,0.889277
1762,709,3.30169,-0.0140604,0.308039,0.889145
1765,706,3.3029,-0.0146733,0.306394,0.888004
1768,703,3.30277,-0.0137137,0.30591,0.887407
1771,700,3.30247,-0.0133225,0.30591,0.886325
1774,697,3.30257,-0.0132437,0.305432,0.886546
1777,694,3.30166,-0.0157925,0.306393,0.886161
1780,691,3.30161,-0.0111515,0.305431,0.88506
1783,688,3.3036,-0.0102209,0.304315,0.884642
1786,685,3.30249,-0.0126481,0.305726,0.884306
1789,682,3.3024,-0.0116953,0.305243,0.883706
1792,679,3.30235,-0.00849905,0.304315,0.882956
1795,676,3.30156,-0.0108686,0.305239,0.882817
1798,673,3.30123,-0.0169774,0.304793,0.881999
1801,670,3.30261,-0.0141549,0.303644,0.881475
1804,667,3.30288,-0.0112378,0.302681,0.880733
1807,664,3.30218,-0.0137419,0.303644,0.880401
1810,661,3.30176,-0.0155657,0.304123,0.880558
1813,658,3.30213,-0.00945608,0.30268,0.879075
1816,655,3.30114,-0.0152586,0.304123,0.879412
1819,652,3.30329,-0.010586,0.302488,0.878702
1822,649,3.30218,-0.0131476,0.303456,0.878334
1825,646,3.30239,-0.0112439,0.302974,0.878469
1828,643,3.30141,-0.014624,0.303943,0.877409
1831,640,3.30146,-0.0109205,0.302972,0.877086
1834,637,3.30034,-0.0153432,0.304422,0.87684
1837,634,3.30272,-0.00888467,0.302289,0.875914
1840,631,3.30173,-0.00966519,0.303227,0.875322
1843,628,3.30183,-0.0112665,0.303226,0.875787
1846,625,3.30107,-0.0103307,0.303224,0.874965
1849,622,3.30105,-0.0148974,0.302287,0.873856
1852,619,3.30183,-0.0142872,0.302108,0.87311
1855,616,3.30179,-0.0142531,0.30211,0.873135
1858,613,3.30188,-0.00787722,0.302108,0.87278
1861,610,3.30101,-0.0086388,0.30259,0.872202
1864,607,3.30078,-0.0145046,0.302101,0.871703
1867,604,3.30029,-0.010115,0.303067,0.871247
1870,601,3.30226,-0.0100151,0.301034,0.870668
1873,598,3.30125,-0.0133279,0.301912,0.869917
1876,595,3.30128,-0.010369,0.300941,0.869207
1879,592,3.30042,-0.0111118,0.301435,0.868668
1882,589,3.29947,-0.0173222,0.302899,0.868876
1885,586,3.30206,-0.0124386,0.299409,0.867388
1888,583,3.30191,-0.00963299,0.298398,0.866566
1891,580,3.30095,-0.0121807,0.299312,0.866214
1894,577,3.30035,-0.0110733,0.29981,0.86549
1897,574,3.30003,-0.01189,0.29931,0.865073
1900,571,3.30189,-0.014218,0.297679,0.864361
1903,568,3.30157,-0.00967129,0.298636,0.863995
1906,565,3.30114,-0.00788512,0.300087,0.864623
1909,562,3.30032,-0.0140269,0.300088,0.863858
1912,559,3.3001,-0.01472,0.300085,0.863495
1915,556,3.29967,-0.0154138,0.300575,0.862961
1918,553,3.30164,-0.0100992,0.298928,0.862518
1921,550,3.30136,-0.010777,0.298927,0.862167
1924,547,3.3004,-0.0151718,0.300387,0.862005
1927,544,3.30104,-0.00856304,0.298436,0.860854
1930,541,3.29983,-0.0127182,0.299895,0.860827
1933,538,3.30128,-0.0119017,0.299697,0.860324
1936,535,3.30139,-0.00726252,0.298254,0.859408
1939,532,3.30008,-0.0151595,0.298742,0.858609
1942,529,3.30009,-0.00879454,0.298737,0.858199
1945,526,3.2999,-0.0112161,0.299222,0.858347
1948,523,3.29931,-0.0155288,0.298736,0.857136
1951,520,3.30118,-0.0125909,0.297578,0.856584
1954,517,3.30095,-0.007375,0.298063,0.856698
1957,514,3.29992,-0.0152374,0.298554,0.856219
1960,511,3.29963,-0.0156069,0.298553,0.856032
1963,508,3.29902,-0.0148999,0.298557,0.855099
1966,505,3.29915,-0.0138579,0.298612,0.854505
1969,502,3.30036,-0.0127948,0.297891,0.853961
1972,499,3.30036,-0.0116433,0.297403,0.853422
1975,496,3.29935,-0.0159734,0.296946,0.852425
1978,493,3.29929,-0.00919048,0.296902,0.852216
1981,490,3.30051,-0.00805537,0.296717,0.851883
1984,487,3.29974,-0.0145285,0.296719,0.850965
1987,484,3.29985,-0.0112601,0.295747,0.850358
1990,481,3.29919,-0.0122973,0.29623,0.849655
1993,478,3.29865,-0.0145247,0.296718,0.849671
1996,475,3.29821,-0.0157711,0.296721,0.848891
1999,472,3.29986,-0.0142933,0.296061,0.848758
2002,469,3.29966,-0.0116975,0.295565,0.847614
2005,466,3.29977,-0.0105506,0.295079,0.84707
2008,463,3.29915,-0.0124273,0.295566,0.847254
2011,460,3.29858,-0.0131784,0.296052,0.846709
2014,457,3.3003,-0.00847015,0.294412,0.845902
2017,454,3.29964,-0.0092495,0.295439,0.845341
2020,451,3.29936,-0.0117746,0.295389,0.845226
2023,448,3.29948,-0.00878022,0.294413,0.84447
2026,445,3.29878,-0.00954709,0.294902,0.84392
2029,442,3.30037,-0.0138676,0.29375,0.843387
2032,439,3.2995,-0.0146907,0.29424,0.842818
2035,436,3.29951,-0.0135184,0.294321,0.84226
2038,433,3.29892,-0.0124341,0.293743,0.841479
2041,430,3.29749,-0.016961,0.295703,0.841308
2044,427,3.29783,-0.0139672,0.294232,0.840559
2047,424,3.29974,-0.0111053,0.293118,0.839962
2050,421,3.29885,-0.0119114,0.293569,0.839397
2053,418,3.298713,-0.0125428,0.293569,0.839088
2056,415,3.29809,-0.011499,0.293487,0.838305
2059,412,3.29827,-0.0102536,0.293074,0.837788
2062,409,3.29964,-0.00882155,0.292908,0.837578
2065,406,3.29946,-0.00816201,0.292402,0.836607
2068,403,3.29854,-0.0157337,0.292901,0.836469
2071,400,3.29849,-0.0129046,0.291913,0.83546
2074,397,3.29758,-0.0154001,0.292983,0.835331
2077,394,3.29911,-0.0106747,0.291753,0.834357
2080,391,3.29867,-0.0132696,0.292246,0.834227
2083,388,3.29896,-0.0118193,0.291253,0.833833
2086,385,3.29785,-0.012862,0.292775,0.833109
2089,382,3.29694,-0.0156008,0.293211,0.832714
2092,379,3.29922,-0.00890288,0.290599,0.831721
2095,376,3.29847,-0.00970062,0.291567,0.831145
2098,373,3.29793,-0.0123028,0.292052,0.830997
2101,370,3.29698,-0.0186315,0.292054,0.830482
2104,367,3.29655,-0.0193082,0.292063,0.829933
2107,364,3.29804,-0.0165024,0.291409,0.829131
2110,361,3.2983,-0.01538,0.290412,0.828582
2113,358,3.29743,-0.0178736,0.291408,0.828472
2116,355,3.29681,-0.0167679,0.291403,0.827705
2119,352,3.29651,-0.0175169,0.291399,0.827327
2122,349,3.29778,-0.016536,0.291228,0.82674
2125,346,3.29778,-0.0153167,0.290738,0.826201
2128,343,3.29662,-0.0179843,0.291721,0.825871
2131,340,3.29678,-0.0149863,0.290739,0.825078
2134,337,3.29632,-0.0156684,0.290743,0.824764
2137,334,3.29828,-0.0125977,0.289597,0.824256
2140,331,3.29767,-0.0170743,0.289139,0.823277
2143,328,3.29681,-0.0179778,0.289599,0.822672
2146,325,3.29667,-0.0186653,0.289597,0.822338
2149,322,3.2963,-0.017291,0.289075,0.821712
2152,319,3.29788,-0.0145994,0.288528,0.820969
2155,316,3.29776,-0.0133943,0.287949,0.820415
2158,313,3.29708,-0.0142518,0.288439,0.819838
2161,310,3.2973,-0.012776,0.287432,0.81946
2164,307,3.29706,-0.0135728,0.287509,0.818938
2167,304,3.2968,-0.0187317,0.286542,0.817831
2170,301,3.29777,-0.0082946,0.286294,0.817043
2173,298,3.29677,-0.016602,0.286778,0.816485
2176,295,3.2972,-0.00907473,0.286289,0.81666
2179,292,3.29656,-0.014168,0.285712,0.815379
2182,289,3.29843,-0.0104619,0.285218,0.815144
2185,286,3.29799,-0.00943658,0.284648,0.814327
2188,283,3.29765,-0.0100595,0.284645,0.814015
2191,280,3.29661,-0.0116506,0.28514,0.813125
2194,277,3.2963,-0.0105223,0.284657,0.812541
2197,274,3.29755,-0.0150789,0.283996,0.811784
2200,271,3.29725,-0.00831405,0.284558,0.811411
2203,268,3.29643,-0.0165928,0.284476,0.810876
2206,265,3.29614,-0.0154466,0.283986,0.810283
2209,262,3.29592,-0.0142089,0.283497,0.808267
2212,259,3.29748,-0.00944351,0.282361,0.808715
2215,256,3.29737,-0.0101232,0.282357,0.808394
2218,253,3.29651,-0.0090718,0.282364,0.8076
2221,250,3.29682,-0.0117168,0.282432,0.807496
2224,247,3.29675,-0.0105211,0.281952,0.806942
2227,244,3.29709,-0.00758467,0.281705,0.80617
2230,241,3.29722,-0.0146894,0.281288,0.805054
2233,238,3.29667,-0.0166699,0.281769,0.80526
2236,235,3.29587,-0.0182256,0.282253,0.804348
2239,232,3.29721,-0.0132183,0.28104,0.803587
2242,229,3.29482,-0.0190602,0.282737,0.803801
2245,226,3.29615,-0.00842869,0.282005,0.803212
2248,223,3.29583,-0.0168014,0.28208,0.802961
2251,220,3.29584,-0.00997648,0.28208,0.802336
2254,217,3.29603,-0.0111793,0.282137,0.80163
2257,214,3.29538,-0.0194581,0.282135,0.801323
2260,211,3.29465,-0.0184295,0.282133,0.800511
2263,208,3.2957,-0.0153012,0.281422,0.799951
2266,205,3.295,-0.0142581,0.281422,0.799139
2269,202,3.29477,-0.015294,0.281419,0.798642
2272,199,3.29542,-0.0104346,0.280687,0.797602
2275,196,3.29538,-0.00917645,0.280199,0.797066
2278,193,3.29522,-0.0101896,0.28028,0.796426
2281,190,3.29564,-0.0146462,0.278874,0.795689
2284,187,3.2943,-0.0156002,0.27931,0.795248
2287,184,3.29627,-0.0107221,0.27769,0.794405
2290,181,3.29414,-0.0142367,0.278871,0.793283
2293,178,3.29496,-0.0123842,0.278645,0.793268
2296,175,3.29594,-0.0108391,0.278395,0.793097
2299,172,3.29456,-0.0136403,0.279368,0.792754
2302,169,3.29473,-0.0162237,0.277907,0.791726
2305,166,3.29453,-0.0149886,0.277442,0.791152
2308,163,3.29416,-0.0145483,0.277418,0.790052
2311,160,3.29478,-0.0172078,0.278013,0.789984
2314,157,3.29359,-0.0161768,0.277506,0.789176
2317,154,3.29583,-0.011161,0.275885,0.788381
2320,151,3.29522,-0.0100656,0.275884,0.787383
2323,148,3.29507,-0.0108267,0.275878,0.787217
2326,145,3.29542,-0.00975928,0.276107,0.786659
2329,142,3.2955,-0.0085413,0.275622,0.786078
2332,139,3.29447,-0.0112647,0.276581,0.785764
2335,136,3.29338,-0.0138571,0.278196,0.785665
2338,133,3.29498,-0.0165526,0.276013,0.784857
2341,130,3.2941,-0.0173952,0.276496,0.784305
2344,127,3.29494,-0.012378,0.274478,0.783258
2347,124,3.29377,-0.0151298,0.275439,0.782952
2350,121,3.29282,-0.0157995,0.276009,0.78266
2353,118,3.29297,-0.0146951,0.274955,0.782019
2356,115,3.29428,-0.0155184,0.273339,0.780767
2359,112,3.29411,-0.0162869,0.273341,0.780427
2362,109,3.29394,-0.0150252,0.272862,0.779867
2365,106,3.29314,-0.0139224,0.272876,0.779064
2368,103,3.2953,-0.00892345,0.271255,0.778249
2371,100,3.29436,-0.00970911,0.271727,0.777707
2374,97,3.29403,-0.0104851,0.271723,0.777355
2377,94,3.29363,-0.0112216,0.27173,0.777038
2380,91,3.29273,-0.0121029,0.272208,0.776608
2383,88,3.29449,-0.00784771,0.271077,0.775132
2386,85,3.29371,-0.016212,0.271074,0.774847
2389,82,3.29277,-0.0171629,0.271549,0.774246
2392,79,3.2926,-0.0159199,0.271072,0.773663
2395,76,3.29214,-0.0166958,0.271074,0.77333
2398,73,3.2936,-0.0117306,0.269941,0.772296
2401,70,3.29435,-0.0105391,0.269068,0.771711
2404,67,3.29393,-0.011261,0.269069,0.771397
2407,64,3.29295,-0.0121168,0.269541,0.77084
2410,61,3.2923,-0.0117007,0.269542,0.769711
2413,58,3.29149,-0.0202141,0.269539,0.769379
2416,55,3.29314,-0.0152366,0.268405,0.768344
2419,52,3.29284,-0.0159444,0.268408,0.768031
2422,49,3.2923,-0.0187273,0.268882,0.76792
2425,46,3.29222,-0.0167569,0.268406,0.76767
2428,43,3.29112,-0.0175895,0.268879,0.767128
2431,40,3.29342,-0.010541,0.266806,0.766052
2434,37,3.29239,-0.0133223,0.267746,0.765761
2437,34,3.29086,-0.0180296,0.269599,0.765927
2440,31,3.28985,-0.0188705,0.269566,0.76537
2443,28,3.29216,-0.0137189,0.267962,0.764558
2446,25,3.29138,-0.0145456,0.268437,0.764013
2449,22,3.29112,-0.0133712,0.267957,0.763396
2452,19,3.29053,-0.0122223,0.267956,0.762596
2455,16,3.28996,-0.0149265,0.268432,0.762524
2458,13,3.29165,-0.0110571,0.267303,0.762283
2461,10,3.2913,-0.011828,0.267305,0.76196
2464,7,3.29129,-0.00862521,0.266356,0.761134
2467,4,3.29103,-0.0180314,0.266434,0.760284
2468,3,3.28978,-0.0180413,0.266832,0.760276