File: hust_correlation_analysis/matrices/HUST_7-3_cycle_feature_matrix.csv
cycle_number,rul,voltage,current,capacity,charge_capacity
1,1297,3.30048,-0.00419295,0.365893,1.04223
3,1295,3.29464,-0.00422695,0.370121,1.03845
5,1293,3.29425,-0.00460877,0.370248,1.03811
7,1291,3.29435,-0.00515992,0.370108,1.0377
9,1289,3.29421,-0.00570396,0.370112,1.03731
11,1287,3.29551,-0.00368544,0.369162,1.03672
13,1285,3.29592,-0.00367996,0.368716,1.03686
15,1283,3.29604,-0.00413637,0.368721,1.03653
17,1281,3.29616,-0.00466571,0.368729,1.03614
19,1279,3.29585,-0.00461927,0.368736,1.03617
21,1277,3.29518,-0.00527932,0.369159,1.03556
23,1275,3.29522,-0.00521191,0.368717,1.03573
25,1273,3.29595,-0.00521931,0.368267,1.03581
27,1271,3.29613,-0.00576949,0.367827,1.03539
29,1269,3.29606,-0.00579544,0.368279,1.03543
31,1267,3.29801,-0.00310881,0.366887,1.03544
33,1265,3.29685,-0.00375622,0.367751,1.03468
35,1263,3.29668,-0.00384798,0.367755,1.03463
37,1261,3.29722,-0.00379939,0.367323,1.03479
39,1259,3.2974,-0.00424555,0.367321,1.03445
41,1257,3.29713,-0.00431857,0.367321,1.03441
43,1255,3.29729,-0.00429037,0.36732,1.03444
45,1253,3.29723,-0.00485785,0.367316,1.03398
47,1251,3.29695,-0.00490801,0.367284,1.03398
49,1249,3.29736,-0.00537896,0.367324,1.03362
51,1247,3.2977,-0.00531196,0.366891,1.03379
53,1245,3.29711,-0.00533128,0.367324,1.03366
55,1243,3.29687,-0.00535009,0.367322,1.03364
57,1241,3.29621,-0.00599554,0.36776,1.03304
59,1239,3.29661,-0.00588726,0.367327,1.03323
61,1237,3.29816,-0.0038326,0.366369,1.03266
63,1235,3.29803,-0.00396821,0.366378,1.0326
65,1233,3.29839,-0.00430785,0.366386,1.03235
67,1231,3.2979,-0.00427267,0.366386,1.03236
69,1229,3.29776,-0.00438752,0.366376,1.03227
71,1227,3.29839,-0.00482349,0.366377,1.03195
73,1225,3.2986,-0.00473208,0.366474,1.03215
75,1223,3.29796,-0.00482162,0.366378,1.03196
77,1221,3.29771,-0.00481656,0.366383,1.03196
79,1219,3.29727,-0.00538757,0.366817,1.0314
81,1217,3.29745,-0.00538485,0.366387,1.03154
83,1215,3.29755,-0.00541892,0.36638,1.03152
85,1213,3.29813,-0.00578116,0.366029,1.03138
87,1211,3.29793,-0.00572,0.365968,1.03144
89,1209,3.29717,-0.00588361,0.366391,1.03117
91,1207,3.29896,-0.00382906,0.365441,1.03062
93,1205,3.29911,-0.00378475,0.365436,1.03065
95,1203,3.29938,-0.00371974,0.365005,1.03082
97,1201,3.29918,-0.00368863,0.365006,1.03085
99,1199,3.29853,-0.00369946,0.365432,1.03069
101,1197,3.29839,-0.00430653,0.365433,1.03023
103,1195,3.29842,-0.00431004,0.365441,1.03026
105,1193,3.29895,-0.00478788,0.365441,1.02988
107,1191,3.29887,-0.0048054,0.36544,1.02989
109,1189,3.29879,-0.0046928,0.365439,1.03022
111,1187,3.2984,-0.00478794,0.365438,1.02989
113,1185,3.29851,-0.00489894,0.365428,1.02979
115,1183,3.29869,-0.00527611,0.365436,1.02951
117,1181,3.29846,-0.00532877,0.365439,1.02945
119,1179,3.29825,-0.00527821,0.365423,1.02975
121,1177,3.29804,-0.0053193,0.365317,1.02947
123,1175,3.29788,-0.00587162,0.365434,1.02904
125,1173,3.29797,-0.00582692,0.365532,1.02911
127,1171,3.2998,-0.00322863,0.364496,1.02896
129,1169,3.29993,-0.00369539,0.364492,1.0286
131,1167,3.29959,-0.00362472,0.364484,1.02865
133,1165,3.29935,-0.00374701,0.364494,1.02855
135,1163,3.2992,-0.00375085,0.364487,1.02853
137,1161,3.29935,-0.0036807,0.364482,1.02859
139,1159,3.29931,-0.00423289,0.36448,1.02815
141,1157,3.29944,-0.00424565,0.364491,1.02819
143,1155,3.29931,-0.00415201,0.364478,1.02822
145,1153,3.29902,-0.0042604,0.364483,1.02815
147,1151,3.2994,-0.00468041,0.364555,1.02782
149,1149,3.29969,-0.00474854,0.364384,1.02779
151,1147,3.29918,-0.00474715,0.364488,1.02779
153,1145,3.29925,-0.00465565,0.364483,1.02784
155,1143,3.29833,-0.00480768,0.364907,1.02758
157,1141,3.29848,-0.00537429,0.364913,1.02716
159,1139,3.29898,-0.00528075,0.364485,1.02735
161,1137,3.2993,-0.00526414,0.364476,1.02737
163,1135,3.29951,-0.00517974,0.364051,1.02755
165,1133,3.29889,-0.00528098,0.364477,1.02734
167,1131,3.29899,-0.00580029,0.364476,1.02694
169,1129,3.29911,-0.00582834,0.36448,1.02693
171,1127,3.29831,-0.0058678,0.364907,1.02677
173,1125,3.29864,-0.00585335,0.364481,1.0272
175,1123,3.299,-0.00573761,0.364047,1.02712
177,1121,3.29979,-0.00380365,0.363966,1.02623
179,1119,3.30008,-0.00377906,0.363601,1.02635
181,1117,3.30044,-0.0037616,0.363527,1.02637
183,1115,3.30062,-0.00368794,0.363107,1.02657
185,1113,3.30047,-0.00423757,0.36353,1.02604
187,1111,3.29964,-0.0043283,0.36397,1.02583
189,1109,3.29933,-0.0043338,0.363967,1.02583
191,1107,3.29996,-0.00424538,0.363541,1.02604
193,1105,3.30003,-0.00427866,0.363531,1.026
195,1103,3.30048,-0.00419668,0.363112,1.02619
197,1101,3.30008,-0.00422445,0.36352,1.02601
199,1099,3.29974,-0.00433896,0.36353,1.02593
201,1097,3.29991,-0.00437418,0.363521,1.02589
203,1095,3.30016,-0.00436183,0.363526,1.02566
205,1093,3.29973,-0.00490405,0.363951,1.02535
207,1091,3.2998,-0.00438575,0.363519,1.02586
209,1089,3.29967,-0.00495902,0.363945,1.02529
211,1087,3.29937,-0.00507921,0.363947,1.02522
213,1085,3.29974,-0.00493423,0.363521,1.02546
215,1083,3.29992,-0.00495033,0.363513,1.02546
217,1081,3.30002,-0.00534497,0.363515,1.02514
219,1079,3.29921,-0.0054945,0.363946,1.02488
221,1077,3.29883,-0.00553395,0.364023,1.02486
223,1075,3.29947,-0.00554135,0.363525,1.025
225,1073,3.29951,-0.00550323,0.363539,1.02507
227,1071,3.29981,-0.00586449,0.363095,1.02489
229,1069,3.29971,-0.00580539,0.363103,1.02524
231,1067,3.29936,-0.00584016,0.363112,1.02474
233,1065,3.30064,-0.0037885,0.362567,1.0242
235,1063,3.30073,-0.00380865,0.362589,1.02421
237,1061,3.30113,-0.00382352,0.362157,1.02433
239,1059,3.30097,-0.00376559,0.362159,1.02437
241,1057,3.30051,-0.00389707,0.362589,1.02415
243,1055,3.3009,-0.00380135,0.362148,1.02434
245,1053,3.30099,-0.00427246,0.362158,1.02399
247,1051,3.30081,-0.0043025,0.362166,1.024
249,1049,3.30105,-0.00478962,0.362167,1.0236
251,1047,3.3004,-0.00480502,0.362512,1.02348
253,1045,3.29998,-0.00493099,0.3626,1.0234
255,1043,3.30077,-0.00485632,0.362166,1.02356
257,1041,3.30091,-0.00481814,0.362159,1.02359
259,1039,3.30057,-0.00486062,0.362157,1.02356
261,1037,3.30112,-0.0047145,0.361727,1.02378
263,1035,3.3001,-0.00492165,0.362584,1.02339
265,1033,3.29954,-0.00542637,0.362582,1.02298
267,1031,3.30024,-0.00537856,0.362682,1.02317
269,1029,3.30058,-0.00589467,0.362158,1.02277
271,1027,3.30054,-0.00575883,0.362153,1.02287
273,1025,3.30025,-0.00581707,0.362149,1.02279
275,1023,3.30001,-0.00587939,0.362162,1.02279
277,1021,3.30006,-0.005892,0.362166,1.02278
279,1019,3.29996,-0.00596079,0.362154,1.02272
281,1017,3.30183,-0.00380563,0.361218,1.02224
283,1015,3.30182,-0.00368816,0.361211,1.02232
285,1013,3.30136,-0.00385178,0.361215,1.02216
287,1011,3.30191,-0.00379184,0.360793,1.02236
289,1009,3.30177,-0.00430259,0.361224,1.02187
291,1007,3.30151,-0.00427843,0.361225,1.02189
293,1005,3.30183,-0.00421934,0.360795,1.02205
295,1003,3.30114,-0.00431545,0.361227,1.02185
297,1001,3.30141,-0.00426428,0.360795,1.02201
299,999,3.30179,-0.00428007,0.360877,1.022
301,997,3.30196,-0.00482677,0.360798,1.02159
303,995,3.30181,-0.00478993,0.360786,1.0216
305,993,3.30109,-0.00479941,0.361217,1.02146
307,991,3.30073,-0.00483387,0.361223,1.02146
309,989,3.3013,-0.0052682,0.360791,1.02123
311,987,3.30147,-0.00531366,0.360895,1.02121
313,985,3.30148,-0.00530557,0.36132,1.01973
315,983,3.30161,-0.00574669,0.360791,1.02087
317,981,3.30082,-0.00575944,0.361216,1.02072
319,979,3.30054,-0.00590462,0.361362,1.02063
321,977,3.30095,-0.0058352,0.360791,1.02081
323,975,3.30111,-0.00583376,0.360792,1.02081
325,973,3.30283,-0.00367087,0.359928,1.02033
327,971,3.30265,-0.00370626,0.359859,1.02029
329,969,3.30233,-0.00370667,0.359859,1.0203
331,967,3.30242,-0.00364451,0.359851,1.02035
333,965,3.30251,-0.00424591,0.359854,1.01987
335,963,3.30255,-0.00422704,0.35985,1.0199
337,961,3.30243,-0.00418817,0.359858,1.01994
339,959,3.3017,-0.00434347,0.360281,1.01968
341,957,3.30243,-0.00479941,0.35985,1.01943
343,955,3.30255,-0.00471722,0.359848,1.01951
345,953,3.30215,-0.00474852,0.359862,1.01949
347,951,3.30215,-0.00476221,0.35985,1.01948
349,949,3.3017,-0.00529629,0.360286,1.01894
351,947,3.30145,-0.00535615,0.360285,1.0189
353,945,3.30209,-0.00523075,0.359803,1.01913
355,943,3.30213,-0.00570424,0.359854,1.01876
357,941,3.30193,-0.00568084,0.359861,1.01878
359,939,3.3013,-0.0057287,0.360273,1.0186
361,937,3.30128,-0.00578492,0.359854,1.01868
363,935,3.30278,-0.00372758,0.359334,1.01799
365,933,3.30348,-0.00366051,0.358912,1.01816
367,931,3.30384,-0.00361595,0.358487,1.01832
369,929,3.30289,-0.004141,0.359338,1.01767
371,927,3.30216,-0.00424153,0.35976,1.01746
373,925,3.30276,-0.00420927,0.358919,1.01774
375,923,3.30297,-0.00420189,0.358908,1.01773
377,921,3.30326,-0.00469976,0.358898,1.01733
379,919,3.30353,-0.00464671,0.358478,1.01751
381,917,3.30239,-0.00477037,0.359333,1.01716
383,915,3.3021,-0.00482759,0.359324,1.01712
385,913,3.30251,-0.00482277,0.35891,1.01725
387,911,3.30258,-0.00483055,0.358899,1.01697
389,909,3.30272,-0.00536701,0.358904,1.01682
391,907,3.3026,-0.00532205,0.358911,1.01688
393,905,3.30213,-0.00530953,0.3589,1.01684
395,903,3.3018,-0.00594339,0.35933,1.01625
397,901,3.30228,-0.00586462,0.3589,1.01642
399,899,3.3022,-0.00585798,0.358893,1.01644
401,897,3.30397,-0.00369406,0.357967,1.01596
403,895,3.30332,-0.00375698,0.358387,1.01576
405,893,3.30346,-0.00382964,0.357969,1.01583
407,891,3.30356,-0.00374435,0.357925,1.0159
409,889,3.30358,-0.00433276,0.357962,1.01542
411,887,3.30345,-0.00428099,0.357966,1.01551
413,885,3.30348,-0.00426965,0.357973,1.01552
415,883,3.30326,-0.00472568,0.357965,1.01503
417,881,3.30329,-0.0047915,0.357957,1.0151
419,879,3.30323,-0.00475946,0.357962,1.0151
421,877,3.30322,-0.00534407,0.357981,1.01468
423,875,3.30309,-0.00531334,0.357963,1.0147
425,873,3.30248,-0.00537596,0.358383,1.01451
427,871,3.30274,-0.00540092,0.358102,1.01463
429,869,3.30295,-0.00582088,0.357976,1.01432
431,867,3.30442,-0.00318659,0.357031,1.01418
433,865,3.30387,-0.00370578,0.357447,1.01365
435,863,3.30366,-0.00371107,0.357445,1.01363
437,861,3.30394,-0.00369578,0.357027,1.01377
439,859,3.3042,-0.00424504,0.357031,1.01335
441,857,3.30423,-0.00421965,0.357023,1.01336
443,855,3.30411,-0.00425341,0.357029,1.01335
445,853,3.30372,-0.0042203,0.357025,1.01336
447,851,3.30316,-0.004445,0.357456,1.0131
449,849,3.30366,-0.00484787,0.357019,1.01286
451,847,3.30349,-0.00537309,0.357452,1.01238
453,845,3.30374,-0.00525942,0.357026,1.01256
455,843,3.30385,-0.00566331,0.35717,1.01226
457,841,3.30245,-0.00583693,0.35788,1.01189
459,839,3.30263,-0.00584587,0.357449,1.012
461,837,3.30329,-0.00579563,0.357029,1.01215
463,835,3.30454,-0.00371862,0.356518,1.01148
465,833,3.30467,-0.00368871,0.356084,1.0116
467,831,3.30456,-0.00367254,0.35661,1.01161
469,829,3.30366,-0.0043337,0.35693,1.01083
471,827,3.30391,-0.00432136,0.356522,1.011
473,825,3.30441,-0.00477369,0.356523,1.01065
475,823,3.30426,-0.00471082,0.356517,1.0107
477,821,3.30427,-0.00518723,0.35652,1.01032
479,819,3.30306,-0.00537432,0.357366,1.00993
481,817,3.30293,-0.00528648,0.357023,1.01012
483,815,3.30371,-0.00527682,0.356507,1.01024
485,813,3.30385,-0.00578441,0.356508,1.00983
487,811,3.30559,-0.00307207,0.355147,1.00987
489,809,3.3052,-0.003612,0.355578,1.00933
491,807,3.3043,-0.00376102,0.356002,1.00909
493,805,3.3046,-0.00371441,0.355572,1.00924
495,803,3.30479,-0.00427916,0.355992,1.00868
497,801,3.30486,-0.00425027,0.355581,1.00884
499,799,3.3045,-0.00473175,0.355997,1.00836
501,797,3.30376,-0.00478209,0.356415,1.00818
503,795,3.30367,-0.00477485,0.356051,1.00827
505,793,3.30429,-0.00469795,0.355568,1.00848
507,791,3.30422,-0.00535836,0.355986,1.00786
509,789,3.30487,-0.00519004,0.355137,1.0082
511,787,3.30411,-0.00570065,0.355989,1.00758
513,785,3.3031,-0.00584419,0.356409,1.00734
515,783,3.30393,-0.00576388,0.355567,1.00764
517,781,3.30558,-0.00316389,0.354627,1.00747
519,779,3.3056,-0.00368363,0.354636,1.00708
521,777,3.30597,-0.00359626,0.35421,1.00726
523,775,3.30465,-0.00429734,0.355482,1.00637
525,773,3.30433,-0.004345,0.355471,1.00631
527,771,3.30487,-0.00430555,0.35505,1.00647
529,769,3.30528,-0.00432695,0.354625,1.00656
531,767,3.30499,-0.00478647,0.355058,1.00462
533,765,3.30465,-0.00476706,0.355048,1.0061
535,763,3.30403,-0.00539149,0.355482,1.00551
537,761,3.30408,-0.0053621,0.35505,1.00562
539,759,3.30479,-0.00532967,0.354626,1.00577
541,757,3.30482,-0.00578912,0.354619,1.00541
543,755,3.30482,-0.00573795,0.35463,1.00546
545,753,3.30584,-0.00318014,0.353696,1.00527
547,751,3.30551,-0.00384082,0.354116,1.00462
549,749,3.30552,-0.00376416,0.354113,1.00468
551,747,3.30603,-0.00372174,0.353697,1.00486
553,745,3.30595,-0.00418426,0.354121,1.00438
555,743,3.30537,-0.0042783,0.354125,1.00431
557,741,3.30482,-0.00484886,0.354554,1.00376
559,739,3.3052,-0.00481356,0.354123,1.00389
561,737,3.30569,-0.00473644,0.353688,1.00406
563,735,3.3054,-0.00524133,0.354129,1.00356
565,733,3.30497,-0.00531894,0.354122,1.00349
567,731,3.30429,-0.00579765,0.354629,1.00301
569,729,3.30418,-0.00585523,0.354544,1.00297
571,727,3.3062,-0.00327453,0.353194,1.0029
573,725,3.30635,-0.00363322,0.353198,1.00263
575,723,3.30616,-0.00367344,0.353714,1.00258
577,721,3.30564,-0.00424591,0.353624,1.00203
579,719,3.30587,-0.00416449,0.353183,1.00217
581,717,3.30534,-0.00434281,0.353615,1.00194
583,715,3.30584,-0.00478245,0.353192,1.00172
585,713,3.30599,-0.00514627,0.353195,1.00121
587,711,3.30474,-0.00535153,0.354037,1.00104
589,709,3.30511,-0.00538761,0.353611,1.00113
591,707,3.30543,-0.00529068,0.353192,1.00131
593,705,3.30517,-0.0057756,0.353185,1.00237
595,703,3.3055,-0.00588929,0.353186,1.00083
597,701,3.30638,-0.00324277,0.352678,1.00058
599,699,3.30567,-0.00387264,0.353095,0.999972
601,697,3.30615,-0.00385198,0.352682,1.0001
603,695,3.30611,-0.00419275,0.352678,0.999841
605,693,3.3061,-0.00430703,0.352674,0.999757
607,691,3.30612,-0.00474455,0.352678,0.999398
609,689,3.30521,-0.00485797,0.353099,0.999199
611,687,3.30574,-0.00491131,0.35268,0.999295
613,685,3.30562,-0.00545415,0.353029,0.998725
615,683,3.3058,-0.00540912,0.352667,0.998862
617,681,3.30562,-0.00532707,0.35268,0.998954
619,679,3.30665,-0.00332437,0.352167,0.998191
621,677,3.30676,-0.00321148,0.351747,0.998381
623,675,3.30651,-0.00379661,0.352171,0.997805
625,673,3.30692,-0.00423934,0.351749,0.9976
627,671,3.30648,-0.00422869,0.352176,0.997493
629,669,3.30566,-0.00434034,0.352596,0.997284
631,667,3.30612,-0.00479888,0.352172,0.997024
633,665,3.30559,-0.00481434,0.352589,0.996902
635,663,3.30593,-0.00535523,0.352177,0.996604
637,661,3.30618,-0.0052582,0.351747,0.996786
639,659,3.30481,-0.0060033,0.353012,0.99611
641,657,3.30547,-0.00593842,0.35217,0.996132
643,655,3.30738,-0.00370281,0.351248,0.995689
645,653,3.30655,-0.00383058,0.351672,0.99547
647,651,3.3071,-0.00419949,0.351247,0.995277
649,649,3.30651,-0.00428059,0.351669,0.995113
651,647,3.30572,-0.00496931,0.352099,0.994476
653,645,3.30648,-0.00487159,0.351668,0.994662
655,643,3.30589,-0.00545014,0.352156,0.994097
657,641,3.30547,-0.00551677,0.352101,0.994055
659,639,3.30566,-0.00576445,0.352104,0.993877
661,637,3.30699,-0.00374429,0.35118,0.993223
663,635,3.30699,-0.00374209,0.351317,0.992765
665,633,3.30699,-0.00379565,0.351175,0.993193
667,631,3.30666,-0.00417289,0.351168,0.992881
669,629,3.30643,-0.00425146,0.351166,0.992805
671,627,3.3058,-0.00496449,0.351604,0.99215
673,625,3.30596,-0.00544678,0.351605,0.991803
675,623,3.3063,-0.00540851,0.351172,0.991918
677,621,3.30575,-0.00595355,0.351603,0.991402
679,619,3.30679,-0.00375995,0.351103,0.990758
681,617,3.30664,-0.00379387,0.351104,0.990748
683,615,3.30716,-0.00422214,0.350671,0.990516
685,613,3.30666,-0.004254,0.351106,0.99041
687,611,3.30658,-0.00478043,0.351103,0.989982
689,609,3.30632,-0.00524113,0.351106,0.989628
691,607,3.30535,-0.00539974,0.351521,0.98936
693,605,3.30616,-0.00592786,0.351166,0.989079
695,603,3.30784,-0.00317991,0.350177,0.989
697,601,3.30711,-0.0037357,0.350607,0.988225
699,599,3.30688,-0.00368769,0.350603,0.988466
701,597,3.30616,-0.00427598,0.351025,0.987901
703,595,3.306165,-0.00484032,0.351023,0.987447
705,593,3.30677,-0.00478647,0.350597,0.988944
707,591,3.30627,-0.00528526,0.351017,0.98711
709,589,3.30559,-0.0058681,0.351584,0.98654
711,587,3.30658,-0.00329041,0.350524,0.986307
713,585,3.30646,-0.00378298,0.351047,0.985931
715,583,3.30721,-0.0037771,0.350092,0.986044
717,581,3.30715,-0.00425271,0.350089,0.985667
719,579,3.30609,-0.00473192,0.350944,0.98506
721,577,3.30521,-0.00497114,0.351374,0.984758
723,575,3.30595,-0.00534472,0.350525,0.984691
725,573,3.30567,-0.00550277,0.350941,0.984452
727,571,3.30754,-0.00319062,0.349588,0.984133
729,569,3.30757,-0.0036623,0.349593,0.98377
731,567,3.3055,-0.00444335,0.350876,0.982796
733,565,3.30632,-0.00439975,0.350022,0.98305
735,563,3.30668,-0.0049363,0.350534,0.982659
737,561,3.30609,-0.00550921,0.350442,0.982099
739,559,3.30644,-0.00534615,0.350013,0.98235
741,557,3.30496,-0.00609031,0.350878,0.981522
743,555,3.30644,-0.00344069,0.350036,0.981363
745,553,3.30707,-0.00383956,0.349525,0.98115
747,551,3.30665,-0.00439566,0.349956,0.980581
749,549,3.30662,-0.00484455,0.350009,0.980258
751,547,3.30576,-0.00552087,0.350387,0.979621
753,545,3.30529,-0.00552896,0.35038,0.979588
755,543,3.30574,-0.00552025,0.349956,0.979734
757,541,3.30737,-0.00333973,0.349115,0.979195
759,539,3.30711,-0.00247691,0.349019,0.978535
761,537,3.30696,-0.00301445,0.349026,0.978124
763,535,3.30609,-0.00499127,0.349898,0.977695
765,533,3.30615,-0.00901293,0.349466,0.977586
767,531,3.30623,-0.00942237,0.349028,0.977366
769,529,3.3066,-0.00716448,0.348171,0.976703
771,527,3.30707,-0.0065368,0.348545,0.975952
773,525,3.30673,-0.00715335,0.348538,0.975467
775,523,3.30733,-0.00565271,0.347674,0.975532
777,521,3.30668,-0.00497507,0.347678,0.974744
779,519,3.3067,-0.00558614,0.347671,0.97427
781,517,3.3066,-0.00410681,0.347215,0.974209
783,515,3.30572,-0.00614139,0.348237,0.97373
785,513,3.30813,-0.00241134,0.346327,0.973277
787,511,3.30718,-0.00715527,0.34676,0.972408
789,509,3.30721,-0.00885519,0.346754,0.972391
791,507,3.30715,-0.00752914,0.346472,0.972214
793,505,3.30601,-0.0095682,0.347188,0.971763
795,503,3.30656,-0.00949486,0.346763,0.971925
797,501,3.30809,-0.00323704,0.34499,0.970809
799,499,3.30745,-0.00653177,0.345926,0.970655
801,497,3.30758,-0.00515057,0.345418,0.970525
803,495,3.30711,-0.00490773,0.345545,0.96914
805,493,3.30715,-0.00759462,0.345837,0.969825
807,491,3.30776,-0.00401228,0.344561,0.968979
809,489,3.30617,-0.00607619,0.345843,0.96838
811,487,3.3082,-0.00193706,0.344124,0.967976
813,485,3.30739,-0.00303867,0.344922,0.967166
815,483,3.30787,-0.00434176,0.344494,0.967575
817,481,3.30832,-0.00616113,0.343226,0.967011
819,479,3.30664,-0.0082206,0.344489,0.966153
821,477,3.30722,-0.00861811,0.344063,0.965931
823,475,3.30794,-0.0052072,0.343581,0.964922
825,473,3.30804,-0.00656106,0.343576,0.965188
827,471,3.30846,-0.00424697,0.343237,0.964554
829,469,3.30775,-0.00487511,0.34315,0.963973
831,467,3.30744,-0.00532558,0.343149,0.963605
833,465,3.30686,-0.00464057,0.343237,0.962828
835,463,3.3087,-0.00322925,0.342229,0.96298
837,461,3.30848,-0.00781037,0.341809,0.962445
839,459,3.30827,-0.00835627,0.341811,0.962024
841,457,3.30763,-0.00896186,0.34223,0.961437
843,455,3.30718,-0.00818259,0.34223,0.960986
845,453,3.3077,-0.00813627,0.341806,0.960879
847,451,3.30961,-0.00368485,0.340052,0.959644
849,449,3.30887,-0.00427249,0.340479,0.95911
851,447,3.30831,-0.0048556,0.340906,0.95855
853,445,3.30766,-0.00626508,0.341246,0.958669
855,443,3.30875,-0.00392876,0.340062,0.958169
857,441,3.30797,-0.00993888,0.340474,0.957603
859,439,3.30868,-0.00788925,0.339989,0.956854
861,437,3.30804,-0.00850533,0.340404,0.956254
863,435,3.30832,-0.00306314,0.339989,0.956362
865,433,3.30889,-0.00613872,0.338724,0.955847
867,431,3.30789,-0.00689155,0.339569,0.955087
869,429,3.30963,-0.00460034,0.338245,0.954718
871,427,3.30875,-0.00389629,0.338655,0.95383
873,425,3.30844,-0.00715122,0.339496,0.953742
875,423,3.30944,-0.0034543,0.337818,0.951634
877,421,3.30855,-0.00360102,0.338241,0.952853
879,419,3.30843,-0.00941568,0.337822,0.952664
881,417,3.30746,-0.00471868,0.338658,0.951874
883,415,3.30945,-0.00791554,0.337334,0.951494
885,413,3.30911,-0.00711538,0.337337,0.950796
887,411,3.30842,-0.00769539,0.337754,0.950245
889,409,3.30865,-0.00669439,0.336914,0.949886
891,407,3.3074,-0.00881174,0.338169,0.949269
893,405,3.3098,-0.00512036,0.336434,0.948773
895,403,3.30926,-0.00434933,0.336432,0.948035
897,401,3.30911,-0.00352275,0.33602,0.947471
899,399,3.30807,-0.0040738,0.336979,0.946811
901,397,3.30838,-0.00548625,0.336427,0.94715
903,395,3.31005,-0.00724973,0.335118,0.946567
905,393,3.30947,-0.00793024,0.335539,0.945932
907,391,3.30913,-0.00754601,0.335529,0.944921
909,389,3.30783,-0.00910252,0.336772,0.9447
911,387,3.30853,-0.0095968,0.335939,0.944538
913,385,3.30999,-0.00462124,0.334631,0.94359
915,383,3.3098,-0.00379007,0.334212,0.943012
917,381,3.30929,-0.00425219,0.334568,0.942535
919,379,3.30839,-0.00635273,0.335452,0.942034
921,377,3.30869,-0.00534923,0.334616,0.941674
923,375,3.3099,-0.00190552,0.333728,0.940535
925,373,3.30952,-0.00836232,0.33372,0.940028
927,371,3.30842,-0.00305651,0.334557,0.939691
929,369,3.30846,-0.00906779,0.33414,0.939382
931,367,3.30869,-0.00810152,0.333713,0.938878
933,365,3.30986,-0.00463418,0.332823,0.937991
935,363,3.30932,-0.0056948,0.33324,0.93709
937,361,3.30885,-0.00580017,0.333239,0.936981
939,359,3.30839,-0.00684314,0.333646,0.936084
941,357,3.3089,-0.00404012,0.332478,0.935867
943,355,3.30966,-0.00786911,0.331919,0.934829
945,353,3.30915,-0.00242389,0.33233,0.934661
947,351,3.308416,-0.0090515,0.33275,0.933727
949,349,3.30837,-0.00959719,0.332751,0.93357
951,347,3.30965,-0.00600048,0.331442,0.932593
953,345,3.30951,-0.00648514,0.331434,0.93221
955,343,3.30893,-0.00569588,0.33144,0.931485
957,341,3.30851,-0.00687007,0.331857,0.930513
959,339,3.30896,-0.00536896,0.331018,0.930759
961,337,3.30988,-0.00232354,0.330257,0.929266
963,335,3.30889,-0.00302747,0.330957,0.928512
965,333,3.30839,-0.00902165,0.330947,0.928158
967,331,3.30836,-0.00954156,0.33095,0.927769
969,329,3.3097,-0.00597559,0.329648,0.92702
971,327,3.3091,-0.00703984,0.330058,0.926095
973,325,3.30816,-0.00631529,0.330474,0.925232
975,323,3.30822,-0.0082067,0.330475,0.92512
977,321,3.31021,-0.00180702,0.32835,0.924071
979,319,3.30925,-0.00430513,0.329176,0.923297
981,317,3.30879,-0.00351868,0.329175,0.922569
983,315,3.3085,-0.00404593,0.329169,0.922165
985,313,3.30949,-0.00745763,0.328699,0.921456
987,311,3.30934,-0.00653256,0.328248,0.920927
989,309,3.30838,-0.00759544,0.329103,0.919906
991,307,3.30747,-0.00832889,0.329518,0.919239
993,305,3.30853,-0.00729058,0.328274,0.919002
995,303,3.30902,-0.00380869,0.327804,0.917986
997,301,3.30879,-0.00477326,0.327806,0.917242
999,299,3.30768,-0.00408447,0.328212,0.916339
1001,297,3.3098,-0.00180649,0.326503,0.916015
1003,295,3.30921,-0.0064856,0.326509,0.91537
1005,293,3.30841,-0.0089991,0.327326,0.914594
1007,291,3.30749,-0.00825362,0.327741,0.913723
1009,289,3.30864,-0.0074934,0.327378,0.913307
1011,287,3.3095,-0.00365634,0.325623,0.912619
1013,285,3.30835,-0.00491123,0.326442,0.911462
1015,283,3.30806,-0.00396002,0.326019,0.910918
1017,281,3.3087,-0.00325664,0.32592,0.910357
1019,279,3.30939,-0.00840986,0.325145,0.909558
1021,277,3.30824,-0.00776873,0.325541,0.908585
1023,275,3.3076,-0.00735138,0.325547,0.907576
1025,273,3.30766,-0.00813691,0.326331,0.907042
1027,271,3.30887,-0.0056996,0.324794,0.906581
1029,269,3.30784,-0.00554765,0.32508,0.905259
1031,267,3.30932,-0.00188119,0.323495,0.904571
1033,265,3.30767,-0.00389066,0.325019,0.904052
1035,263,3.30817,-0.00445566,0.324618,0.903774
1037,261,3.30761,-0.00977424,0.324607,0.902648
1039,259,3.30911,-0.00598368,0.323244,0.902026
1041,257,3.30735,-0.00729122,0.324562,0.900741
1043,255,3.30748,-0.00918791,0.324556,0.900659
1045,253,3.3075,-0.00693631,0.323739,0.90015
1047,251,3.30932,-0.00232077,0.322037,0.898654
1049,249,3.30707,-0.0035628,0.32368,0.897284
1051,247,3.30689,-0.00561142,0.323679,0.897106
1053,245,3.30855,-0.00753507,0.322804,0.896383
1055,243,3.30861,-0.00570965,0.321565,0.895297
1057,241,3.30669,-0.00644054,0.322795,0.894427
1059,239,3.30598,-0.0104718,0.323626,0.893936
1061,237,3.3079,-0.00537258,0.321868,0.892998
1063,235,3.30854,-0.00303431,0.320686,0.892386
1065,233,3.30674,-0.00415446,0.321919,0.89124
1067,231,3.30749,-0.00391907,0.321872,0.890324
1069,229,3.30743,-0.00870743,0.321462,0.889752
1071,227,3.30759,-0.00686125,0.320636,0.888654
1073,225,3.30831,-0.00466195,0.320175,0.88794
1075,223,3.30739,-0.00580018,0.320584,0.887
1077,221,3.30706,-0.00642499,0.320585,0.886538
1079,219,3.30705,-0.00550396,0.320165,0.885975
1081,217,3.30775,-0.00246452,0.319714,0.884558
1083,215,3.30679,-0.00357085,0.320125,0.883641
1085,213,3.3059,-0.00996456,0.320541,0.883055
1087,211,3.30747,-0.00669638,0.319252,0.881985
1089,209,3.30711,-0.00588664,0.31929,0.881255
1091,207,3.30649,-0.00692296,0.31926,0.880498
1093,205,3.3078,-0.00325408,0.318513,0.879619
1095,203,3.30755,-0.00293409,0.317975,0.878613
1097,201,3.30667,-0.00919623,0.318408,0.87811
1099,199,3.30745,-0.00755802,0.317929,0.876993
1101,197,3.3075,-0.00664496,0.317526,0.87644
1103,195,3.30638,-0.0064751,0.317931,0.875124
1105,193,3.30633,-0.00693151,0.31752,0.874886
1107,191,3.30666,-0.00675996,0.317892,0.873827
1109,189,3.30754,-0.00432715,0.316656,0.873237
1111,187,3.30634,-0.00411396,0.317065,0.871947
1113,185,3.30668,-0.00811293,0.317033,0.87082
1115,183,3.30627,-0.00298831,0.317025,0.870347
1117,181,3.30625,-0.00842401,0.316743,0.869335
1119,179,3.30721,-0.00661667,0.316153,0.868348
1121,177,3.30587,-0.00581915,0.316579,0.867483
1123,175,3.30505,-0.00992095,0.317395,0.866974
1125,173,3.30729,-0.00329606,0.315296,0.865828
1127,171,3.3073,-0.00292735,0.314881,0.864879
1129,169,3.3052,-0.00848459,0.315713,0.86348
1131,167,3.30663,-0.0018454,0.315268,0.863133
1133,165,3.30605,-0.00877326,0.315679,0.862235
1135,163,3.3069,-0.00545443,0.314007,0.861073
1137,161,3.30648,-0.00376628,0.314899,0.85963
1139,159,3.30595,-0.00584811,0.314811,0.859413
1141,157,3.30588,-0.00554112,0.314396,0.85839
1143,155,3.30722,-0.0074662,0.313129,0.857733
1145,153,3.30598,-0.00733045,0.31354,0.856393
1147,151,3.30517,-0.0079074,0.313953,0.855887
1149,149,3.30667,-0.0047118,0.312674,0.854708
1151,147,3.30597,-0.00582892,0.313093,0.853823
1153,145,3.30527,-0.00497926,0.313089,0.853084
1155,143,3.30713,-0.00283972,0.311828,0.852507
1157,141,3.306,-0.00283658,0.31224,0.851062
1159,139,3.30546,-0.00367485,0.312235,0.850449
1161,137,3.30569,-0.00762602,0.312207,0.849407
1163,135,3.30662,-0.00571276,0.310969,0.848379
1165,133,3.30544,-0.00545259,0.311383,0.847145
1167,131,3.30587,-0.00205773,0.310939,0.845894
1169,129,3.30517,-0.00594895,0.311769,0.8456
1171,127,3.30595,-0.00346255,0.310526,0.844983
1173,125,3.30673,-0.00751179,0.310092,0.843978
1175,123,3.3043,-0.0074386,0.311324,0.842369
1177,121,3.30516,-0.00792198,0.310166,0.842338
1179,119,3.30574,-0.00317241,0.308413,0.8408
1181,117,3.30648,-0.00742095,0.308073,0.839563
1183,115,3.30431,-0.00358338,0.309667,0.836147
1185,113,3.30396,-0.00410213,0.30964,0.838681
1187,111,3.3053,-0.00827802,0.308797,0.837701
1189,109,3.30445,-0.00651112,0.308793,0.83624
1191,107,3.30374,-0.0091396,0.309204,0.83563
1193,105,3.30494,-0.00531156,0.308355,0.834789
1195,103,3.30467,-0.00497954,0.307942,0.833765
1197,101,3.30408,-0.00417956,0.307946,0.832978
1199,99,3.30545,-0.00378167,0.307517,0.832313
1201,97,3.30475,-0.00797495,0.307098,0.830923
1203,95,3.30371,-0.0090905,0.307509,0.830044
1205,93,3.30388,-0.00686645,0.307499,0.829221
1207,91,3.30498,-0.00592046,0.30626,0.828837
1209,89,3.3043,-0.00556362,0.306245,0.827721
1211,87,3.30433,-0.00246228,0.306236,0.826155
1213,85,3.30392,-0.00594364,0.306647,0.826307
1215,83,3.3039,-0.00955151,0.305826,0.825442
1217,81,3.30541,-0.00607301,0.304567,0.824417
1219,79,3.30342,-0.00749381,0.305797,0.823132
1221,77,3.30328,-0.0065551,0.305391,0.822525
1223,75,3.30477,-0.00477997,0.30455,0.821563
1225,73,3.30403,-0.0030487,0.304447,0.820198
1227,71,3.30319,-0.00561507,0.305035,0.819543
1229,69,3.30412,-0.0077372,0.304127,0.818589
1231,67,3.30374,-0.00885216,0.304128,0.817905
1233,65,3.30301,-0.00657754,0.303715,0.816895
1235,63,3.30455,-0.00474973,0.302885,0.815981
1237,61,3.30373,-0.00303993,0.302471,0.81454
1239,59,3.30284,-0.003583,0.302943,0.814068
1241,57,3.30228,-0.00632169,0.303288,0.813397
1243,55,3.30378,-0.00682294,0.301611,0.812511
1245,53,3.30303,-0.00671137,0.301627,0.811217
1247,51,3.30309,-0.0052219,0.301626,0.809879
1249,49,3.30318,-0.00390987,0.301211,0.809517
1251,47,3.30334,-0.00940452,0.300393,0.808716
1253,45,3.30112,-0.0107723,0.301621,0.807473
1255,43,3.30313,-0.00226801,0.300375,0.80708
1257,41,3.30285,-0.0089393,0.30037,0.806617
1259,39,3.30237,-0.0070575,0.299962,0.805304
1261,37,3.30258,-0.0077547,0.300483,0.805047
1263,35,3.30221,-0.00603249,0.299956,0.803647
1265,33,3.30224,-0.00653482,0.29954,0.803386
1267,31,3.30154,-0.00468798,0.299139,0.801972
1269,29,3.30287,-0.00831023,0.29831,0.801482
1271,27,3.30191,-0.00805676,0.298305,0.80029
1273,25,3.30093,-0.0086971,0.298714,0.799771
1275,23,3.30273,-0.00622146,0.297478,0.799656
1277,21,3.30187,-0.0045425,0.297477,0.797825
1279,19,3.30064,-0.0101235,0.297488,0.796791
1281,17,3.30209,-0.00338418,0.297564,0.796349
1283,15,3.30201,-0.00747541,0.296259,0.795139
1285,13,3.30063,-0.00705478,0.296669,0.793997
1287,11,3.29956,-0.0108798,0.29747,0.793898
1289,9,3.30163,-0.00545079,0.295845,0.792906
1291,7,3.30147,-0.00337863,0.295035,0.791831
1293,5,3.29948,-0.00574151,0.296254,0.791272
1295,3,3.30147,-0.00181349,0.294633,0.79061