File: hust_correlation_analysis/matrices/HUST_5-6_cycle_feature_matrix.csv
cycle_number,rul,voltage,current,capacity,charge_capacity
1,2462,3.32351,-0.0151173,0.286487,1.02805
4,2459,3.31227,-0.0175252,0.291414,1.02163
7,2456,3.31344,-0.0155269,0.290057,1.02076
10,2453,3.31394,-0.0167536,0.290038,1.02011
13,2450,3.31254,-0.0175557,0.29046,1.01948
16,2447,3.31246,-0.0181169,0.290455,1.01919
19,2444,3.314,-0.0155953,0.289098,1.01859
22,2441,3.31375,-0.0162912,0.289095,1.01823
25,2438,3.31375,-0.0168796,0.289095,1.01795
28,2435,3.31288,-0.0174779,0.289516,1.01741
31,2432,3.31356,-0.0174801,0.289081,1.01761
34,2429,3.31273,-0.0182919,0.289503,1.01564
37,2426,3.31485,-0.0156606,0.288141,1.01641
40,2423,3.31471,-0.0156563,0.288135,1.0164
43,2420,3.31439,-0.016279,0.28813,1.01605
46,2417,3.31489,-0.0168676,0.288127,1.01576
49,2414,3.31363,-0.016997,0.288551,1.01547
52,2411,3.31386,-0.0177104,0.288552,1.01511
55,2408,3.31325,-0.0175647,0.288553,1.01517
58,2405,3.31346,-0.0182641,0.288551,1.01484
61,2402,3.31542,-0.0151341,0.287191,1.01453
64,2399,3.31547,-0.0156928,0.287472,1.01425
67,2396,3.31457,-0.0163113,0.287824,1.01369
70,2393,3.31467,-0.0164439,0.287606,1.01362
73,2390,3.31471,-0.0170422,0.287598,1.0133
76,2387,3.31433,-0.0171064,0.287609,1.0133
79,2384,3.3141,-0.017702,0.287608,1.01301
82,2381,3.31425,-0.0183229,0.287609,1.01272
85,2378,3.31396,-0.0183261,0.287608,1.0112
88,2375,3.31603,-0.0151356,0.286244,1.0124
91,2372,3.31583,-0.0157453,0.286241,1.0121
94,2369,3.31548,-0.0157009,0.286341,1.01212
97,2366,3.31514,-0.0164465,0.286664,1.01152
100,2363,3.3151,-0.0165336,0.286668,1.01148
103,2360,3.31492,-0.0171209,0.286668,1.0112
106,2357,3.31532,-0.0178015,0.286671,1.01087
109,2354,3.3154,-0.0176314,0.286245,1.01118
112,2351,3.31442,-0.0177774,0.286665,1.01086
115,2348,3.3146,-0.0183386,0.286662,1.01058
118,2345,3.31455,-0.0183722,0.286663,1.01056
121,2342,3.31621,-0.0151541,0.2853,1.01028
124,2339,3.31653,-0.0157425,0.285299,1.00999
127,2336,3.31606,-0.0157544,0.2854,1.01
130,2333,3.31631,-0.016462,0.285308,1.00967
133,2330,3.3155,-0.0165178,0.285733,1.00942
136,2327,3.31589,-0.0164306,0.285305,1.00942
139,2324,3.31559,-0.0171964,0.285728,1.00906
142,2321,3.31529,-0.0171251,0.285727,1.0091
145,2318,3.31592,-0.0170721,0.285302,1.00935
148,2315,3.31525,-0.0177675,0.285727,1.00877
151,2312,3.31411,-0.0179155,0.28615,1.00847
154,2309,3.31522,-0.0184761,0.285728,1.00868
157,2306,3.31484,-0.0184355,0.28573,1.00846
160,2303,3.31682,-0.0158946,0.284794,1.00763
163,2300,3.31687,-0.0158496,0.284369,1.00787
166,2297,3.31556,-0.0159227,0.284791,1.00761
169,2294,3.31597,-0.0159139,0.284792,1.00761
172,2291,3.31645,-0.0165531,0.284795,1.00731
175,2288,3.31599,-0.0165568,0.284796,1.00729
178,2285,3.31609,-0.0166211,0.284795,1.00727
181,2282,3.3151,-0.0172257,0.285225,1.00676
184,2279,3.31589,-0.0171288,0.284797,1.00703
187,2276,3.31579,-0.0177636,0.28532,1.00647
190,2273,3.31508,-0.0179348,0.285227,1.00642
193,2270,3.31542,-0.0179153,0.285223,1.00642
196,2267,3.31579,-0.017801,0.284792,1.00668
199,2264,3.31498,-0.0185816,0.285226,1.00609
202,2261,3.31453,-0.018487,0.285503,1.00613
205,2258,3.31445,-0.0185517,0.285221,1.00609
208,2255,3.3172,-0.0159375,0.283859,1.00552
211,2252,3.31719,-0.0158325,0.283847,1.00553
214,2249,3.31641,-0.0159291,0.283852,1.00549
217,2246,3.31622,-0.0159643,0.283949,1.00548
220,2243,3.31635,-0.0165898,0.283854,1.00517
223,2240,3.31561,-0.0166523,0.284278,1.00491
226,2237,3.31567,-0.0166293,0.284277,1.00492
229,2234,3.31638,-0.0166661,0.283852,1.00513
232,2231,3.31647,-0.0172391,0.283852,1.00485
235,2228,3.31567,-0.0173278,0.284279,1.00459
238,2225,3.3154,-0.0178914,0.284275,1.00431
241,2222,3.31608,-0.0178477,0.283846,1.00453
244,2219,3.31525,-0.0178991,0.284271,1.00428
247,2216,3.31543,-0.017991,0.284268,1.00422
250,2213,3.31561,-0.0178816,0.284264,1.00426
253,2210,3.31498,-0.0179842,0.284681,1.0042
256,2207,3.31458,-0.0178207,0.284673,1.00402
259,2204,3.31513,-0.0177838,0.284666,1.00399
262,2201,3.31418,-0.0182592,0.284955,1.00377
265,2198,3.31483,-0.0186486,0.284955,1.00209
268,2195,3.31432,-0.0186493,0.284672,1.00359
271,2192,3.31444,-0.0186597,0.284673,1.00353
274,2189,3.31661,-0.0160425,0.283303,1.00297
277,2186,3.31596,-0.0160835,0.283727,1.00272
280,2183,3.3154,-0.0162141,0.28373,1.00266
283,2180,3.31595,-0.0167637,0.283306,1.00264
286,2177,3.31564,-0.0166585,0.283309,1.0027
289,2174,3.31589,-0.0173433,0.283313,1.00238
292,2171,3.31655,-0.0173346,0.282885,1.00261
295,2168,3.31593,-0.0173325,0.282883,1.0026
298,2165,3.31655,-0.017313,0.28288,1.00261
301,2162,3.31581,-0.0180176,0.283304,1.00202
304,2159,3.31526,-0.0180288,0.283306,1.00202
307,2156,3.31574,-0.0179606,0.282978,1.00095
310,2153,3.31504,-0.0186774,0.283321,1.00174
313,2150,3.31762,-0.0153547,0.28153,1.00173
316,2147,3.31834,-0.0160114,0.28144,1.0014
319,2144,3.31693,-0.0159855,0.281951,1.00118
322,2141,3.31713,-0.0161202,0.281938,1.00108
325,2138,3.31745,-0.0159853,0.281513,1.00136
328,2135,3.31667,-0.0166358,0.281935,1.0008
331,2132,3.31599,-0.0168211,0.282361,1.00049
334,2129,3.31619,-0.0168687,0.282373,1.00051
337,2126,3.31681,-0.017349,0.281948,1.00051
340,2123,3.31694,-0.0173398,0.281949,1.00051
343,2120,3.31675,-0.0180101,0.281949,1.00017
346,2117,3.31651,-0.0180407,0.281951,1.00017
349,2114,3.31641,-0.0180733,0.28195,1.00015
352,2111,3.31574,-0.0185665,0.281942,0.999884
355,2108,3.31564,-0.0187575,0.282368,0.999574
358,2105,3.31545,-0.0187233,0.282369,0.999579
361,2102,3.31763,-0.0154896,0.280581,0.999529
364,2099,3.31805,-0.016055,0.280864,0.999251
367,2096,3.31772,-0.016765,0.281009,0.998682
370,2093,3.31744,-0.0167835,0.281007,0.998667
373,2090,3.31772,-0.0167182,0.28058,0.998905
376,2087,3.31753,-0.0166698,0.280578,0.998926
379,2084,3.3174,-0.0167406,0.280579,0.998899
382,2081,3.31623,-0.0174364,0.281422,0.998096
385,2078,3.31698,-0.0174246,0.281003,0.998329
388,2075,3.3163,-0.0182169,0.281433,0.997739
391,2072,3.31696,-0.0181497,0.281008,0.99825
394,2069,3.31763,-0.0180353,0.280584,0.998278
397,2066,3.31609,-0.0188789,0.281432,0.99741
400,2063,3.31654,-0.0187592,0.281008,0.997698
403,2060,3.31601,-0.0187046,0.281006,0.997721
406,2057,3.31809,-0.0161125,0.279636,0.997081
409,2054,3.31779,-0.016248,0.280061,0.996806
412,2051,3.31824,-0.0160432,0.279643,0.997142
415,2048,3.31757,-0.016875,0.280275,0.996523
418,2045,3.31823,-0.0167365,0.279649,0.996828
421,2042,3.31792,-0.0166998,0.279642,0.996834
424,2039,3.31761,-0.0174434,0.280068,0.996246
427,2036,3.31743,-0.0174745,0.280063,0.99604
430,2033,3.3176,-0.0174105,0.279637,0.99645
433,2030,3.31744,-0.0174049,0.279636,0.996447
436,2027,3.31683,-0.0181731,0.28006,0.995846
439,2024,3.31681,-0.0181501,0.280066,0.995885
442,2021,3.31658,-0.0188736,0.280494,0.995325
445,2018,3.31706,-0.0188015,0.280073,0.995583
448,2015,3.31902,-0.0154956,0.278708,0.99534
451,2012,3.31854,-0.0162146,0.27963,0.994744
454,2009,3.31899,-0.0161685,0.278699,0.994982
457,2006,3.31857,-0.016133,0.2787,0.994991
460,2003,3.31856,-0.0161832,0.278699,0.994957
463,2000,3.31849,-0.0168504,0.278907,0.994433
466,1997,3.31789,-0.0167425,0.278703,0.994695
469,1994,3.31809,-0.017539,0.279134,0.994101
472,1991,3.31738,-0.0173675,0.279131,0.994178
475,1988,3.3175,-0.0175147,0.279119,0.994075
478,1985,3.31803,-0.0174647,0.278693,0.994301
481,1982,3.31759,-0.0181598,0.279114,0.993737
484,1979,3.31825,-0.0181276,0.278689,0.993962
487,1976,3.31763,-0.0182659,0.279112,0.99367
490,1973,3.31726,-0.0182771,0.279113,0.993671
493,1970,3.31737,-0.0188666,0.279112,0.993373
496,1967,3.31775,-0.0188343,0.278687,0.993607
499,1964,3.31645,-0.0188572,0.279111,0.993372
502,1961,3.31903,-0.0162666,0.278016,0.992736
505,1958,3.31955,-0.0160883,0.277256,0.993041
508,1955,3.31831,-0.0162039,0.277738,0.992762
511,1952,3.31876,-0.0162217,0.277737,0.992746
514,1949,3.31864,-0.0168322,0.278012,0.992444
517,1946,3.31837,-0.0169485,0.277741,0.992411
520,1943,3.31927,-0.0168487,0.277323,0.992691
523,1940,3.31842,-0.0175455,0.27775,0.992143
526,1937,3.31912,-0.0174645,0.277322,0.99239
529,1934,3.31866,-0.0182042,0.277745,0.991792
532,1931,3.31818,-0.0182364,0.277739,0.99044
535,1928,3.31838,-0.0181536,0.277816,0.992026
538,1925,3.31799,-0.0182644,0.277739,0.99176
541,1922,3.31771,-0.0188641,0.277742,0.991462
544,1919,3.31774,-0.0189519,0.277748,0.991447
547,1916,3.31965,-0.0162345,0.276385,0.990898
550,1913,3.31927,-0.0161151,0.27638,0.990943
553,1910,3.31948,-0.0161772,0.276377,0.9909
556,1907,3.31945,-0.016198,0.27637,0.990865
559,1904,3.31962,-0.0167564,0.276367,0.990573
562,1901,3.31887,-0.0169803,0.276787,0.990237
565,1898,3.31967,-0.0169027,0.276367,0.990496
568,1895,3.31901,-0.0169424,0.276367,0.990031
571,1892,3.31944,-0.0175722,0.276374,0.990192
574,1889,3.31918,-0.0183071,0.276803,0.989634
577,1886,3.31881,-0.0182629,0.276802,0.989661
580,1883,3.31952,-0.01818,0.27637,0.989896
583,1880,3.31827,-0.0182871,0.276789,0.989599
586,1877,3.31928,-0.0181731,0.275942,0.99008
589,1874,3.31812,-0.0190026,0.276787,0.989237
592,1871,3.31875,-0.01891,0.276362,0.989491
595,1868,3.3194,-0.0163036,0.275846,0.988465
598,1865,3.32015,-0.01629,0.275433,0.988709
601,1862,3.32011,-0.0169538,0.275527,0.988392
604,1859,3.31934,-0.0170076,0.275856,0.988144
607,1856,3.31953,-0.0175451,0.275434,0.988096
610,1853,3.3191,-0.0176838,0.275854,0.987807
613,1850,3.31931,-0.0176541,0.275435,0.988049
616,1847,3.31906,-0.0175657,0.275431,0.988079
619,1844,3.31899,-0.0182717,0.275853,0.987505
622,1841,3.31855,-0.0182479,0.275859,0.987533
625,1838,3.31879,-0.018998,0.275857,0.987155
628,1835,3.31816,-0.0188549,0.275856,0.987219
631,1832,3.32058,-0.0156706,0.274488,0.987145
634,1829,3.32048,-0.0163194,0.274488,0.986563
637,1826,3.32054,-0.0163625,0.274577,0.986406
640,1823,3.31993,-0.0171896,0.274909,0.98592
643,1820,3.32072,-0.0169894,0.274489,0.986245
646,1817,3.32,-0.0170349,0.274484,0.986204
649,1814,3.31995,-0.0176342,0.274487,0.98591
652,1811,3.32018,-0.0176969,0.274486,0.985884
655,1808,3.31986,-0.0176926,0.274487,0.985886
658,1805,3.32008,-0.0183502,0.274484,0.985545
661,1802,3.31989,-0.0183132,0.274485,0.985575
664,1799,3.31969,-0.0183231,0.274484,0.985563
667,1796,3.31953,-0.0183098,0.274479,0.985554
670,1793,3.31967,-0.0190568,0.27448,0.985175
673,1790,3.31909,-0.0191121,0.274901,0.984939
676,1787,3.3214,-0.0157257,0.273109,0.984903
679,1784,3.32151,-0.0163193,0.273533,0.984397
682,1781,3.32082,-0.0163386,0.273112,0.984609
685,1778,3.32101,-0.0170692,0.273528,0.984022
688,1775,3.32065,-0.0170622,0.273526,0.984018
691,1772,3.32065,-0.0176546,0.273524,0.983709
694,1769,3.32028,-0.0177452,0.273527,0.983674
697,1766,3.32045,-0.0177005,0.273518,0.983679
700,1763,3.32006,-0.0177051,0.273515,0.98366
703,1760,3.32016,-0.0177954,0.273527,0.983644
706,1757,3.31996,-0.0185142,0.27395,0.983083
709,1754,3.31898,-0.0191439,0.273949,0.982765
712,1751,3.32017,-0.0190758,0.273526,0.983017
715,1748,3.32184,-0.0164111,0.272573,0.982182
718,1745,3.32135,-0.0164331,0.272571,0.982169
721,1742,3.32151,-0.0163797,0.272354,0.982407
724,1739,3.3214,-0.017007,0.27257,0.981875
727,1736,3.32106,-0.0170608,0.272574,0.981859
730,1733,3.32136,-0.0170756,0.272158,0.982084
733,1730,3.3202,-0.017896,0.272999,0.981249
736,1727,3.32064,-0.0177778,0.27273,0.981517
739,1724,3.32064,-0.0185147,0.272578,0.981161
742,1721,3.31983,-0.0191654,0.272997,0.980609
745,1718,3.31955,-0.0191406,0.272995,0.980618
748,1715,3.31996,-0.0190667,0.272573,0.980858
751,1712,3.32106,-0.0165646,0.272042,0.979725
754,1709,3.32077,-0.016462,0.27203,0.979743
757,1706,3.321,-0.0165173,0.27203,0.979711
760,1703,3.32095,-0.0165656,0.272303,0.979687
763,1700,3.32028,-0.0166129,0.272035,0.979659
766,1697,3.32079,-0.0171748,0.271617,0.979644
769,1694,3.32036,-0.0178813,0.272038,0.979065
772,1691,3.32073,-0.0178017,0.271615,0.979318
775,1688,3.32032,-0.0178521,0.271612,0.979274
778,1685,3.32076,-0.0178909,0.271614,0.979278
781,1682,3.32049,-0.0178583,0.271606,0.979265
784,1679,3.32035,-0.0184631,0.271611,0.978975
787,1676,3.32066,-0.0184612,0.271615,0.978985
790,1673,3.32055,-0.0185587,0.271618,0.979194
793,1670,3.3201,-0.0192961,0.272042,0.978385
796,1667,3.32261,-0.015766,0.270183,0.978392
799,1664,3.3215,-0.0165658,0.270663,0.977776
802,1661,3.32258,-0.0164483,0.270242,0.978052
805,1658,3.32174,-0.0172138,0.270662,0.977439
808,1655,3.32154,-0.0171671,0.270655,0.977449
811,1652,3.32112,-0.0172468,0.270655,0.977413
814,1649,3.3208,-0.0179066,0.27128,0.976871
817,1646,3.32096,-0.0178338,0.270659,0.977126
820,1643,3.32062,-0.0186447,0.271077,0.976506
823,1640,3.32035,-0.0185965,0.271072,0.976517
826,1637,3.32109,-0.0184831,0.270646,0.976766
829,1634,3.32057,-0.0186039,0.270641,0.976701
832,1631,3.32018,-0.0192441,0.271061,0.976159
835,1628,3.32042,-0.0193152,0.271061,0.976128
838,1625,3.32256,-0.0165713,0.2697,0.975582
841,1622,3.32261,-0.0165503,0.269706,0.975614
844,1619,3.32236,-0.0172265,0.269701,0.975258
847,1616,3.32197,-0.0172648,0.269699,0.975234
850,1613,3.32159,-0.0179596,0.270113,0.97466
853,1610,3.32126,-0.0179475,0.270111,0.974653
856,1607,3.32082,-0.0180499,0.270109,0.974596
859,1604,3.32117,-0.018633,0.270109,0.974314
862,1601,3.32078,-0.0187453,0.270118,0.974276
865,1598,3.32069,-0.0193861,0.270121,0.973965
868,1595,3.32073,-0.0193308,0.270124,0.974006
871,1592,3.32285,-0.0160439,0.268745,0.973688
874,1589,3.32311,-0.0166049,0.268744,0.973389
877,1586,3.32258,-0.0167129,0.269166,0.973138
880,1583,3.32216,-0.0173741,0.269159,0.972785
883,1580,3.32271,-0.0173029,0.268824,0.973031
886,1577,3.32249,-0.0172522,0.268739,0.973062
889,1574,3.32137,-0.0180959,0.269585,0.972225
892,1571,3.32143,-0.0179829,0.269163,0.972493
895,1568,3.32121,-0.0187611,0.269587,0.971908
898,1565,3.32125,-0.0187374,0.269166,0.972137
901,1562,3.32079,-0.0194006,0.269585,0.971596
904,1559,3.32072,-0.0194768,0.269582,0.97154
907,1556,3.32102,-0.019319,0.26916,0.971825
910,1553,3.32396,-0.015928,0.267361,0.971755
913,1550,3.32322,-0.0166581,0.267779,0.971167
916,1547,3.32255,-0.0174046,0.268696,0.970593
919,1544,3.32305,-0.0173817,0.267778,0.970809
922,1541,3.3222,-0.0173897,0.268199,0.970592
925,1538,3.32146,-0.0180739,0.268616,0.970033
928,1535,3.32121,-0.0180794,0.268622,0.970049
931,1532,3.32123,-0.0188255,0.268618,0.96966
934,1529,3.32146,-0.0187626,0.268281,0.969898
937,1526,3.32148,-0.018797,0.268195,0.969877
940,1523,3.32151,-0.0188068,0.26819,0.969863
943,1520,3.32111,-0.0195147,0.269103,0.969284
946,1517,3.32159,-0.0195084,0.268193,0.969517
949,1514,3.32296,-0.0166984,0.267235,0.968752
952,1511,3.32255,-0.0168761,0.267239,0.968662
955,1508,3.32172,-0.0174734,0.267656,0.968138
958,1505,3.32222,-0.0174311,0.267231,0.968372
961,1502,3.32183,-0.0174851,0.267228,0.968341
964,1499,3.32214,-0.0180399,0.267226,0.968303
967,1496,3.32217,-0.0181096,0.267227,0.968019
970,1493,3.32111,-0.0189586,0.268079,0.967197
973,1490,3.32194,-0.0195647,0.267666,0.96739
976,1487,3.32313,-0.0161522,0.266285,0.966875
979,1484,3.32294,-0.0168725,0.266694,0.96626
982,1481,3.32298,-0.0169019,0.266696,0.966246
985,1478,3.32275,-0.0168277,0.265905,0.966498
988,1475,3.32265,-0.0175058,0.26627,0.966137
991,1472,3.32266,-0.0174079,0.266269,0.966193
994,1469,3.32307,-0.015729,0.265849,0.965983
997,1466,3.32242,-0.0183461,0.266689,0.965506
1000,1463,3.32248,-0.0189834,0.266695,0.965209
1003,1460,3.32191,-0.0189142,0.266695,0.965249
1006,1457,3.32108,-0.0191004,0.267201,0.963632
1009,1454,3.32119,-0.0179422,0.266692,0.964479
1012,1451,3.32337,-0.0161545,0.265307,0.964627
1015,1448,3.32387,-0.0150631,0.264888,0.964133
1018,1445,3.32384,-0.0203113,0.264884,0.963721
1021,1442,3.32376,-0.0150517,0.264882,0.964118
1024,1439,3.3234,-0.0174699,0.265297,0.963939
1027,1436,3.32215,-0.0159717,0.265723,0.963241
1030,1433,3.32214,-0.0233874,0.265297,0.963227
1033,1430,3.32202,-0.0183996,0.265723,0.96328
1036,1427,3.32219,-0.0241414,0.265306,0.962879
1039,1424,3.32218,-0.0241852,0.265304,0.962852
1042,1421,3.32126,-0.0249624,0.265724,0.962264
1045,1418,3.32361,-0.0185896,0.263504,0.961357
1048,1415,3.32256,-0.0222657,0.264763,0.961415
1051,1412,3.32316,-0.0228811,0.264344,0.961331
1054,1409,3.32304,-0.0229071,0.264345,0.961325
1057,1406,3.32311,-0.0210205,0.264423,0.961225
1060,1403,3.32327,-0.0200161,0.263286,0.960666
1063,1400,3.32259,-0.0207575,0.264006,0.960091
1066,1397,3.32196,-0.0189551,0.263922,0.959714
1069,1394,3.32282,-0.0179044,0.263081,0.959386
1072,1391,3.32228,-0.0214197,0.264187,0.959733
1075,1388,3.32499,-0.0142937,0.261289,0.959402
1078,1385,3.32421,-0.0151565,0.261706,0.958789
1081,1382,3.32329,-0.0228095,0.262126,0.958281
1084,1379,3.32285,-0.0165012,0.262543,0.957721
1087,1376,3.32319,-0.0165759,0.262397,0.957896
1090,1373,3.32409,-0.0163182,0.261703,0.958204
1093,1370,3.32344,-0.0165323,0.262117,0.957872
1096,1367,3.3227,-0.0242706,0.262114,0.957501
1099,1364,3.32188,-0.0250063,0.26344,0.956724
1102,1361,3.32241,-0.024865,0.262109,0.957185
1105,1358,3.32318,-0.0178624,0.261693,0.957634
1108,1355,3.32441,-0.0206164,0.260733,0.956086
1111,1352,3.32384,-0.0203326,0.260734,0.956482
1114,1349,3.32368,-0.01938,0.26073,0.955423
1117,1346,3.32349,-0.0211216,0.260726,0.955814
1120,1343,3.32298,-0.0218655,0.261141,0.955245
1123,1340,3.32364,-0.0218202,0.260987,0.955445
1126,1337,3.32283,-0.0225264,0.261131,0.954884
1129,1334,3.32279,-0.0207237,0.260716,0.954724
1132,1331,3.32288,-0.0242661,0.261134,0.955272
1135,1328,3.32347,-0.0196969,0.26032,0.954231
1138,1325,3.32447,-0.0169617,0.259354,0.953402
1141,1322,3.32423,-0.0169869,0.259546,0.953397
1144,1319,3.32425,-0.0211454,0.259762,0.953623
1147,1316,3.32426,-0.0193013,0.259348,0.953476
1150,1313,3.324,-0.016494,0.258931,0.952564
1153,1310,3.32272,-0.0183737,0.259753,0.95245
1156,1307,3.32299,-0.0190503,0.259753,0.952128
1159,1304,3.32408,-0.0171941,0.258927,0.952196
1162,1301,3.32336,-0.0179912,0.259349,0.951633
1165,1298,3.32234,-0.0216298,0.260258,0.951924
1168,1295,3.32433,-0.0153111,0.258384,0.950774
1171,1292,3.3244,-0.0152549,0.258383,0.950797
1174,1289,3.3239,-0.0229546,0.258378,0.950718
1177,1286,3.32381,-0.0229899,0.258375,0.9502
1180,1283,3.32439,-0.0183388,0.258864,0.950498
1183,1280,3.3244,-0.0218038,0.257552,0.950166
1186,1277,3.32335,-0.0225641,0.257964,0.949598
1189,1274,3.32243,-0.0244761,0.258788,0.94951
1192,1271,3.32278,-0.0181259,0.258789,0.94916
1195,1268,3.32518,-0.018023,0.256587,0.948617
1198,1265,3.32438,-0.0186581,0.256584,0.948285
1201,1262,3.32467,-0.0204774,0.256582,0.948643
1204,1259,3.32564,-0.0193699,0.256125,0.948388
1207,1256,3.3245,-0.0193386,0.256585,0.947952
1210,1253,3.32382,-0.0211986,0.256994,0.948097
1213,1250,3.32414,-0.0218693,0.256995,0.947755
1216,1247,3.32389,-0.0190628,0.256586,0.946843
1219,1244,3.32327,-0.0191299,0.256585,0.946794
1222,1241,3.3233,-0.0215892,0.256995,0.946648
1225,1238,3.32371,-0.0197617,0.256584,0.946487
1228,1235,3.32548,-0.0151379,0.254797,0.945736
1231,1232,3.32453,-0.0171295,0.255879,0.945612
1234,1229,3.32513,-0.0169917,0.255205,0.945876
1237,1226,3.32459,-0.0159239,0.255203,0.94514
1240,1223,3.32411,-0.0166923,0.255614,0.944567
1243,1220,3.3246,-0.0166293,0.255204,0.944798
1246,1217,3.32363,-0.0244085,0.255618,0.944272
1249,1214,3.32337,-0.0173473,0.255619,0.944522
1252,1211,3.32328,-0.0250387,0.255621,0.943952
1255,1208,3.32298,-0.0240543,0.255616,0.943187
1258,1205,3.32466,-0.0224064,0.254645,0.943069
1261,1202,3.32473,-0.0223896,0.254645,0.943072
1264,1199,3.32509,-0.019456,0.253827,0.942394
1267,1196,3.32429,-0.0214317,0.25442,0.94247
1270,1193,3.32499,-0.0212834,0.253825,0.942745
1273,1190,3.32452,-0.0201868,0.253827,0.942045
1276,1187,3.32375,-0.0208879,0.253831,0.941699
1279,1184,3.32456,-0.0190556,0.25342,0.941534
1282,1181,3.32333,-0.0198541,0.254231,0.940727
1285,1178,3.32314,-0.0234488,0.254639,0.941286
1288,1175,3.32551,-0.0153502,0.252452,0.939927
1291,1172,3.32469,-0.017165,0.252852,0.940081
1294,1169,3.32566,-0.016954,0.252044,0.940599
1297,1166,3.32547,-0.0158622,0.251968,0.93987
1300,1163,3.32456,-0.0160164,0.252443,0.939576
1303,1160,3.32476,-0.0167106,0.25244,0.939219
1306,1157,3.32372,-0.023816,0.252847,0.939009
1309,1154,3.32446,-0.0173402,0.252441,0.93892
1312,1151,3.32421,-0.0225756,0.252033,0.939004
1315,1148,3.32368,-0.0244788,0.252435,0.93761
1318,1145,3.32358,-0.0182223,0.252841,0.938255
1321,1142,3.32479,-0.0152783,0.251866,0.937505
1324,1139,3.32543,-0.0152606,0.251462,0.937726
1327,1136,3.32513,-0.0224319,0.251466,0.937722
1330,1133,3.32439,-0.0232012,0.252359,0.937146
1333,1130,3.32459,-0.0202654,0.251466,0.936263
1336,1127,3.32391,-0.020388,0.251466,0.936202
1339,1124,3.32366,-0.022739,0.25186,0.936074
1342,1121,3.32411,-0.0207773,0.251051,0.936163
1345,1118,3.32362,-0.0235507,0.252045,0.935673
1348,1115,3.32308,-0.0216106,0.251447,0.935539
1351,1112,3.32347,-0.0198117,0.251043,0.935358
1354,1109,3.32509,-0.0171466,0.250073,0.934489
1357,1106,3.32455,-0.0171642,0.250075,0.934499
1360,1103,3.32547,-0.016028,0.250158,0.934003
1363,1100,3.32394,-0.0185238,0.25048,0.933622
1366,1097,3.32451,-0.0184635,0.250073,0.933853
1369,1094,3.32403,-0.017416,0.25007,0.933099
1372,1091,3.32363,-0.0192674,0.250471,0.933242
1375,1088,3.32322,-0.0234758,0.250061,0.932333
1378,1085,3.32339,-0.0180214,0.250063,0.932769
1381,1082,3.32528,-0.0207398,0.248687,0.930353
1384,1079,3.32471,-0.0225821,0.249094,0.931874
1387,1076,3.32548,-0.0205962,0.248295,0.931996
1390,1073,3.32449,-0.0214162,0.248694,0.931389
1393,1070,3.32394,-0.0239939,0.249499,0.930994
1396,1067,3.3241,-0.0202941,0.248689,0.930659
1399,1064,3.32334,-0.0210526,0.24909,0.930087
1402,1061,3.32375,-0.0209642,0.248682,0.930322
1405,1058,3.3236,-0.0199903,0.248687,0.929527
1408,1055,3.32455,-0.0190766,0.248117,0.929134
1411,1052,3.32508,-0.0171931,0.247719,0.92853
1414,1049,3.32446,-0.0178755,0.248202,0.928419
1417,1046,3.32442,-0.0204211,0.248127,0.928261
1420,1043,3.3241,-0.0205476,0.248121,0.928181
1423,1040,3.324,-0.0168299,0.247718,0.927659
1426,1037,3.32349,-0.0193991,0.24812,0.927475
1429,1034,3.32398,-0.0173456,0.247316,0.927617
1432,1031,3.32367,-0.0182828,0.247716,0.926944
1435,1028,3.32574,-0.015413,0.24634,0.926377
1438,1025,3.3247,-0.0180359,0.247144,0.925969
1441,1022,3.32489,-0.0161323,0.246745,0.925839
1444,1019,3.32424,-0.0168456,0.247148,0.925289
1447,1016,3.32417,-0.0168068,0.246744,0.925519
1450,1013,3.32332,-0.0246853,0.247145,0.924973
1453,1010,3.32292,-0.0255826,0.247547,0.924326
1456,1007,3.32307,-0.0236933,0.247142,0.924188
1459,1004,3.32419,-0.0209719,0.246163,0.923314
1462,1001,3.32468,-0.0190927,0.245762,0.923154
1465,998,3.32375,-0.0216123,0.246647,0.921516
1468,995,3.32393,-0.0216625,0.246178,0.923024
1471,992,3.32315,-0.0212599,0.246182,0.921975
1474,989,3.32366,-0.0211974,0.245778,0.922202
1477,986,3.32281,-0.0238345,0.246576,0.921787
1480,983,3.32426,-0.0155161,0.244793,0.920211
1483,980,3.32539,-0.0172738,0.244385,0.922305
1486,977,3.32342,-0.0163864,0.245189,0.919572
1489,974,3.32417,-0.0162359,0.244779,0.919834
1492,971,3.32363,-0.0181164,0.245183,0.92
1495,968,3.32391,-0.0170833,0.244803,0.919489
1498,965,3.32264,-0.01866,0.245212,0.918561
1501,962,3.32496,-0.0200256,0.243012,0.918485
1504,959,3.32481,-0.022175,0.243791,0.918259
1507,956,3.3237,-0.0156802,0.24419,0.917687
1510,953,3.32421,-0.0217118,0.243789,0.917212
1513,950,3.32313,-0.0217293,0.244187,0.916988
1516,947,3.32307,-0.0224559,0.244183,0.916628
1519,944,3.32283,-0.0224543,0.244183,0.916629
1522,941,3.32222,-0.0233897,0.24459,0.916002
1525,938,3.32221,-0.0222081,0.244191,0.915523
1528,935,3.32192,-0.024642,0.244593,0.915428
1531,932,3.32301,-0.019381,0.243604,0.914466
1534,929,3.32348,-0.0163532,0.242799,0.91377
1537,926,3.32314,-0.0200368,0.243266,0.914344
1540,923,3.32238,-0.0187815,0.243672,0.913668
1543,920,3.32273,-0.0188019,0.243195,0.913655
1546,917,3.32195,-0.0197506,0.243598,0.913009
1549,914,3.32167,-0.0184356,0.24313,0.912574
1552,911,3.32453,-0.0167011,0.241814,0.912702
1555,908,3.3228,-0.017703,0.242622,0.911846
1558,905,3.32279,-0.0236102,0.242226,0.911472
1561,902,3.32284,-0.0189261,0.242619,0.911261
1564,899,3.32136,-0.0180349,0.243017,0.910195
1567,896,3.32152,-0.0179141,0.242612,0.910452
1570,893,3.32366,-0.022312,0.241223,0.909861
1573,890,3.32212,-0.023156,0.242028,0.90906
1576,887,3.32271,-0.0219044,0.241401,0.908805
1579,884,3.32216,-0.0227288,0.241624,0.908204
1582,881,3.32155,-0.019831,0.241223,0.907245
1585,878,3.32217,-0.0197314,0.240821,0.907495
1588,875,3.32097,-0.0223369,0.241622,0.907125
1591,872,3.323,-0.017603,0.24071,0.906104
1594,869,3.3226,-0.0195184,0.240631,0.90627
1597,866,3.32238,-0.0220417,0.241032,0.906143
1600,863,3.32082,-0.0230697,0.241841,0.905252
1603,860,3.3218,-0.019142,0.240629,0.905172
1606,857,3.32125,-0.0235404,0.241434,0.905236
1609,854,3.32028,-0.0207105,0.241427,0.904008
1612,851,3.32318,-0.0157782,0.23948,0.903497
1615,848,3.32273,-0.0175901,0.239632,0.903705
1618,845,3.3221,-0.0166327,0.239885,0.901419
1621,842,3.32087,-0.0247566,0.240034,0.902355
1624,839,3.32124,-0.0234936,0.239633,0.90188
1627,836,3.32043,-0.0262217,0.240919,0.901469
1630,833,3.3221,-0.0160553,0.239447,0.900576
1633,830,3.32212,-0.0232719,0.239044,0.90089
1636,827,3.32177,-0.016804,0.239445,0.898884
1639,824,3.32111,-0.0248849,0.239447,0.899953
1642,821,3.32064,-0.0217619,0.239044,0.899062
1645,818,3.32108,-0.0206364,0.238893,0.898534
1648,815,3.32187,-0.0216405,0.238704,0.898019
1651,812,3.32114,-0.0198005,0.238449,0.897589
1654,809,3.32136,-0.018595,0.238046,0.897316
1657,806,3.32122,-0.0192669,0.238046,0.896779
1660,803,3.32044,-0.018207,0.238046,0.896254
1663,800,3.31973,-0.0190478,0.238448,0.895409
1666,797,3.32167,-0.0216168,0.236652,0.894655
1669,794,3.32108,-0.0241216,0.23705,0.89456
1672,791,3.32085,-0.024159,0.237049,0.894539
1675,788,3.3203,-0.023141,0.237049,0.893758
1678,785,3.32014,-0.023824,0.237048,0.893443
1681,782,3.32224,-0.0207799,0.235651,0.892876
1684,779,3.32148,-0.0161376,0.236454,0.892417
1687,776,3.32065,-0.022626,0.236452,0.89162
1690,773,3.32023,-0.0193934,0.236048,0.89076
1693,770,3.32044,-0.0213302,0.236052,0.891163
1696,767,3.31944,-0.0209167,0.236454,0.889881
1699,764,3.32126,-0.0172411,0.235053,0.889593
1702,761,3.32038,-0.0179458,0.235442,0.88902
1705,758,3.32025,-0.0208336,0.235912,0.888706
1708,755,3.31994,-0.0195937,0.235848,0.888073
1711,752,3.32019,-0.0194152,0.235444,0.88836
1714,749,3.3194,-0.0203214,0.235846,0.887737
1717,746,3.31861,-0.0212782,0.236251,0.887098
1720,743,3.32012,-0.0181961,0.235494,0.886309
1723,740,3.32,-0.0224586,0.234431,0.885684
1726,737,3.32001,-0.0169575,0.234829,0.885775
1729,734,3.31994,-0.0177143,0.234835,0.885469
1732,731,3.31832,-0.0269196,0.235649,0.884348
1735,728,3.31978,-0.0220579,0.234244,0.881878
1738,725,3.31952,-0.0227735,0.234244,0.882997
1741,722,3.31963,-0.0214801,0.233835,0.882513
1744,719,3.31954,-0.0214578,0.23383,0.882506
1747,716,3.3184,-0.0263276,0.235046,0.882236
1750,713,3.31873,-0.0230693,0.234231,0.881574
1753,710,3.32041,-0.0239152,0.233633,0.881354
1756,707,3.31928,-0.0210291,0.233641,0.880141
1759,704,3.31911,-0.0217775,0.233639,0.880061
1762,701,3.31857,-0.020657,0.23364,0.879047
1765,698,3.31857,-0.0213458,0.233638,0.878744
1768,695,3.3198,-0.0184058,0.23263,0.877883
1771,692,3.31956,-0.0163429,0.232225,0.877743
1774,689,3.31947,-0.0191,0.232628,0.877564
1777,686,3.31863,-0.020712,0.233032,0.876647
1780,683,3.3181,-0.0195714,0.23303,0.875881
1783,680,3.32013,-0.0165335,0.231177,0.87528
1786,677,3.31906,-0.0250637,0.232029,0.874735
1789,674,3.31813,-0.0258968,0.232437,0.874165
1792,671,3.31716,-0.0266546,0.232847,0.873633
1795,668,3.31744,-0.0254788,0.232434,0.873077
1798,665,3.3191,-0.0204062,0.231016,0.872093
1801,662,3.31935,-0.0203489,0.230608,0.872334
1804,659,3.31859,-0.0213071,0.23101,0.871691
1807,656,3.31826,-0.02188,0.231006,0.871424
1810,653,3.31737,-0.0228029,0.231413,0.870804
1813,650,3.31921,-0.0177995,0.229995,0.869778
1816,647,3.31964,-0.018484,0.229589,0.869703
1819,644,3.31902,-0.0173035,0.22959,0.868964
1822,641,3.31817,-0.0182439,0.229994,0.868336
1825,638,3.31795,-0.0210318,0.230399,0.867958
1828,635,3.31952,-0.0158533,0.228979,0.867215
1831,632,3.31865,-0.0167923,0.229384,0.866585
1834,629,3.31808,-0.0252147,0.229382,0.866328
1837,626,3.31794,-0.0260159,0.229381,0.865981
1840,623,3.31743,-0.0249356,0.229435,0.865188
1843,620,3.31878,-0.0218653,0.228363,0.864348
1846,617,3.3182,-0.0246269,0.22877,0.864216
1849,614,3.31779,-0.0235914,0.228771,0.863402
1852,611,3.31746,-0.022163,0.228361,0.862965
1855,608,3.31661,-0.0230556,0.229127,0.862346
1858,605,3.31844,-0.0179071,0.22758,0.861344
1861,602,3.31831,-0.0188274,0.227334,0.860957
1864,599,3.31785,-0.0195001,0.227333,0.860679
1867,596,3.31683,-0.020291,0.227733,0.8601
1870,593,3.31639,-0.0191367,0.227737,0.859333
1873,590,3.31564,-0.0200115,0.228145,0.858751
1876,587,3.31802,-0.0170047,0.226721,0.85811
1879,584,3.31663,-0.0257444,0.227126,0.857542
1882,581,3.31707,-0.0192771,0.227128,0.856926
1885,578,3.31648,-0.0214001,0.227536,0.85707
1888,575,3.31816,-0.0162648,0.226346,0.856039
1891,572,3.31763,-0.0248983,0.226099,0.85575
1894,569,3.31667,-0.0236123,0.226096,0.854989
1897,566,3.31633,-0.0225049,0.226096,0.854238
1900,563,3.3151,-0.0262376,0.226915,0.853494
1903,560,3.31685,-0.0211347,0.225642,0.852447
1906,557,3.31703,-0.0238608,0.225484,0.852573
1909,554,3.31614,-0.0226922,0.225487,0.85182
1912,551,3.31628,-0.0214457,0.225078,0.851312
1915,548,3.31567,-0.0223514,0.225485,0.850712
1918,545,3.31718,-0.0191526,0.224459,0.849902
1921,542,3.31618,-0.0259073,0.224457,0.849168
1924,539,3.31621,-0.0188091,0.224455,0.848773
1927,536,3.31587,-0.0216602,0.224864,0.848622
1930,533,3.31517,-0.0204111,0.224858,0.847871
1933,530,3.31656,-0.0251923,0.223423,0.847312
1936,527,3.31613,-0.0240015,0.223424,0.846552
1939,524,3.31523,-0.0249676,0.223831,0.845935
1942,521,3.31519,-0.0257057,0.223831,0.845633
1945,518,3.31733,-0.0204788,0.221991,0.844841
1948,515,3.31679,-0.0192661,0.221982,0.844075
1951,512,3.31563,-0.0229696,0.222801,0.843625
1954,509,3.31586,-0.0217217,0.222393,0.842858
1957,506,3.3152,-0.021667,0.222396,0.842889
1960,503,3.31699,-0.0172412,0.220958,0.841775
1963,500,3.31616,-0.0202311,0.221773,0.841106
1966,497,3.31591,-0.0209676,0.221761,0.840776
1969,494,3.31501,-0.0197699,0.221765,0.839781
1972,491,3.314,-0.0289539,0.222185,0.839418
1975,488,3.31726,-0.0174092,0.220332,0.839104
1978,485,3.31618,-0.0263867,0.220738,0.838547
1981,482,3.315,-0.0272625,0.221144,0.839265
1984,479,3.31535,-0.0281452,0.221142,0.837603
1987,476,3.31664,-0.024878,0.220256,0.836774
1990,473,3.3159,-0.0237121,0.220097,0.835977
1993,470,3.31607,-0.018437,0.220747,0.835813
1996,467,3.31545,-0.0252005,0.220094,0.835373
1999,464,3.31433,-0.0241793,0.220097,0.834541
2002,461,3.31703,-0.0187482,0.21824,0.833782
2005,458,3.31544,-0.0265834,0.218646,0.832457
2008,455,3.31592,-0.0191949,0.218648,0.832139
2011,452,3.31451,-0.0200175,0.219052,0.831571
2014,449,3.31435,-0.0209169,0.21905,0.831208
2017,446,3.31662,-0.0168002,0.21761,0.830955
2020,443,3.31567,-0.0184439,0.218012,0.830074
2023,440,3.31553,-0.0191979,0.218014,0.829762
2026,437,3.3138,-0.0264651,0.218417,0.82868
2029,434,3.31348,-0.0293722,0.218829,0.828554
2032,431,3.31525,-0.0240248,0.21738,0.827773
2035,428,3.31543,-0.0268829,0.217374,0.827643
2038,425,3.31408,-0.0234907,0.217378,0.826482
2041,422,3.31416,-0.0265532,0.217376,0.826526
2044,419,3.31563,-0.0177142,0.215512,0.82458
2047,416,3.31554,-0.0228342,0.216332,0.824627
2050,413,3.31451,-0.0215004,0.216326,0.823877
2053,410,3.31436,-0.0245162,0.216758,0.823707
2056,407,3.31378,-0.0211097,0.216324,0.822781
2059,404,3.31568,-0.0199156,0.215273,0.822349
2062,401,3.31472,-0.0208557,0.215681,0.82175
2065,398,3.3148,-0.0195132,0.215274,0.82127
2068,395,3.31383,-0.0226451,0.216098,0.820838
2071,392,3.31516,-0.0172296,0.214642,0.819815
2074,389,3.31527,-0.0264136,0.214875,0.819532
2077,386,3.3147,-0.027125,0.214634,0.819236
2080,383,3.31421,-0.0197552,0.215042,0.818573
2083,380,3.31299,-0.0290875,0.215451,0.817997
2086,377,3.31496,-0.0256287,0.213982,0.817419
2089,374,3.31446,-0.0266927,0.214392,0.816769
2092,371,3.31375,-0.0274095,0.214389,0.816485
2095,368,3.31405,-0.0239214,0.213569,0.815808
2098,365,3.31318,-0.0257149,0.213979,0.814889
2101,362,3.31473,-0.0223741,0.212927,0.814064
2104,359,3.31503,-0.0232451,0.212928,0.81374
2107,356,3.31417,-0.0220475,0.212933,0.812964
2110,353,3.31317,-0.0207354,0.212929,0.812197
2113,350,3.31303,-0.0237437,0.213337,0.812052
2116,347,3.31491,-0.01827,0.211862,0.81098
2119,344,3.31457,-0.0189646,0.212006,0.810725
2122,341,3.31347,-0.0222016,0.212687,0.810262
2125,338,3.31232,-0.029479,0.212687,0.809521
2128,335,3.31173,-0.0302639,0.212684,0.809214
2131,332,3.31432,-0.0183994,0.211208,0.808549
2134,329,3.3131,-0.0266489,0.212103,0.807226
2137,326,3.31305,-0.0242025,0.210806,0.807382
2140,323,3.31202,-0.0283373,0.211628,0.806602
2143,320,3.3147,-0.0205327,0.209332,0.805633
2146,317,3.31375,-0.0191584,0.209327,0.804894
2149,314,3.31359,-0.0199971,0.209325,0.80458
2152,311,3.31313,-0.0231517,0.209969,0.804413
2155,308,3.3146,-0.0261448,0.208264,0.80339
2158,305,3.31427,-0.0268875,0.208258,0.8031
2161,302,3.31355,-0.0287288,0.208668,0.802177
2164,299,3.31357,-0.0201091,0.208666,0.802156
2167,296,3.31247,-0.0212273,0.20949,0.80127
2170,293,3.31191,-0.0219227,0.209484,0.800988
2173,290,3.3139,-0.0270681,0.208008,0.80044
2176,287,3.31374,-0.0195581,0.208419,0.79976
2179,284,3.3129,-0.0203914,0.208827,0.79919
2182,281,3.31184,-0.029819,0.208823,0.79892
2185,278,3.31126,-0.0285728,0.208825,0.798156
2188,275,3.31384,-0.0186999,0.207762,0.797693
2191,272,3.31266,-0.0283664,0.208159,0.797094
2194,269,3.31246,-0.0291857,0.208158,0.796788
2197,266,3.31158,-0.0280155,0.208157,0.795968
2200,263,3.31137,-0.0263632,0.207747,0.796849
2203,260,3.31349,-0.0251761,0.206671,0.79513
2206,257,3.31308,-0.0240063,0.206902,0.794328
2209,254,3.31258,-0.0249034,0.206675,0.793996
2212,251,3.31205,-0.0243995,0.206667,0.792923
2215,248,3.31348,-0.0224527,0.206483,0.792513
2218,245,3.31302,-0.0196776,0.205588,0.791277
2221,242,3.31321,-0.0194861,0.205175,0.791592
2224,239,3.31249,-0.0204833,0.205589,0.790989
2227,236,3.31204,-0.0236123,0.205996,0.790834
2230,233,3.31309,-0.0212363,0.205335,0.789333
2233,230,3.31314,-0.019752,0.204919,0.789119
2236,227,3.31209,-0.0207888,0.205334,0.788248
2239,224,3.3116,-0.03057,0.205339,0.787959
2242,221,3.31059,-0.0314085,0.205752,0.787416
2245,218,3.31255,-0.0257789,0.204256,0.786317
2248,215,3.31219,-0.0266058,0.204252,0.786008
2251,212,3.31199,-0.0251017,0.203831,0.785539
2254,209,3.31159,-0.026006,0.203828,0.785214
2257,206,3.31338,-0.0226406,0.202747,0.784308
2260,203,3.31297,-0.0235871,0.202745,0.783966
2263,200,3.3129,-0.0220578,0.202805,0.783511
2266,197,3.31148,-0.0240944,0.203156,0.782292
2269,194,3.3114,-0.0226204,0.202742,0.781826
2272,191,3.31317,-0.0191348,0.201652,0.78093
2275,188,3.31288,-0.0199695,0.201652,0.780632
2278,185,3.31194,-0.02104,0.202067,0.780021
2281,182,3.31122,-0.0308306,0.202065,0.779745
2284,179,3.31025,-0.0318405,0.202482,0.779157
2287,176,3.31269,-0.0282066,0.200975,0.778553
2290,173,3.31181,-0.0292243,0.201385,0.778191
2293,170,3.31173,-0.0277218,0.200968,0.777472
2296,167,3.31095,-0.0286651,0.201384,0.776901
2299,164,3.3105,-0.0296098,0.201385,0.77657
2302,161,3.31254,-0.0237872,0.199878,0.775507
2305,158,3.31226,-0.0246876,0.199878,0.775191
2308,155,3.31144,-0.0256978,0.200285,0.774579
2311,152,3.31115,-0.0241654,0.199872,0.774117
2314,149,3.31041,-0.0252532,0.200289,0.773505
2317,146,3.31281,-0.0216169,0.199001,0.772901
2320,143,3.31188,-0.0226201,0.199191,0.772306
2323,140,3.31144,-0.0235152,0.199211,0.771981
2326,137,3.31078,-0.0245419,0.199602,0.771378
2329,134,3.31027,-0.0253878,0.199599,0.771068
2332,131,3.3131,-0.0193846,0.197674,0.7703
2335,128,3.31224,-0.0204164,0.198305,0.769683
2338,125,3.3119,-0.0213592,0.198084,0.769357
2341,122,3.31078,-0.0223202,0.198497,0.768777
2344,119,3.31023,-0.0323849,0.1985,0.768499
2347,116,3.31272,-0.0287806,0.196982,0.76787
2350,113,3.31189,-0.0299023,0.197394,0.767243
2353,110,3.31144,-0.030741,0.197401,0.766947
2356,107,3.31081,-0.0293284,0.197388,0.766184
2359,104,3.31316,-0.0256106,0.195873,0.765601
2362,101,3.31243,-0.0242565,0.195873,0.764818
2365,98,3.31172,-0.0228895,0.195867,0.764038
2368,95,3.3111,-0.0260931,0.19628,0.763923
2371,92,3.31052,-0.0247044,0.196272,0.763147
2374,89,3.31002,-0.0256921,0.196277,0.763061
2377,86,3.31252,-0.0219766,0.194752,0.762207
2380,83,3.31161,-0.0230981,0.19517,0.761594
2383,80,3.31149,-0.0239942,0.195172,0.761302
2386,77,3.31049,-0.0250067,0.195587,0.760714
2389,74,3.31328,-0.0189562,0.193651,0.759909
2392,71,3.31283,-0.019768,0.193644,0.759617
2395,68,3.31194,-0.0207622,0.194054,0.759019
2398,65,3.31069,-0.0311074,0.194461,0.758442
2401,62,3.31042,-0.0295772,0.194048,0.757964
2404,59,3.31245,-0.0259847,0.192936,0.757066
2407,56,3.31216,-0.0269458,0.192948,0.756732
2410,53,3.31192,-0.0278664,0.192934,0.756417
2413,50,3.31114,-0.0298948,0.193345,0.755491
2416,47,3.31078,-0.0308,0.193474,0.755213
2419,44,3.31294,-0.0260845,0.191822,0.754928
2422,41,3.31186,-0.0258382,0.192235,0.753536
2425,38,3.31182,-0.0242649,0.191826,0.753078
2428,35,3.31066,-0.0253399,0.19223,0.752445
2431,32,3.31051,-0.0262051,0.192702,0.752157
2434,29,3.313,-0.0216337,0.190693,0.751808
2437,26,3.31239,-0.024887,0.191101,0.751931
2440,23,3.3115,-0.025953,0.191512,0.751076
2443,20,3.31148,-0.0243993,0.1911,0.750615
2446,17,3.31027,-0.0253533,0.191507,0.750032
2449,14,3.3124,-0.0193599,0.189978,0.748941
2452,11,3.31142,-0.0308967,0.190392,0.748044
2455,8,3.31092,-0.0319092,0.190393,0.747716
2458,5,3.31093,-0.032694,0.190391,0.747454
2460,3,3.31066,-0.0302556,0.189977,0.747276