File: hust_correlation_analysis/matrices/HUST_8-1_cycle_feature_matrix.csv
cycle_number,rul,voltage,current,capacity,charge_capacity
1,1310,3.31701,-0.00261003,0.304316,1.0208
3,1308,3.30191,-0.00545146,0.312871,1.01511
5,1306,3.3017,-0.00652694,0.313308,1.01431
7,1304,3.30163,-0.0071882,0.313454,1.01394
9,1302,3.30397,-0.00402262,0.311626,1.01393
11,1300,3.30343,-0.00470932,0.312063,1.01335
13,1298,3.30366,-0.00531428,0.312063,1.01302
15,1296,3.30407,-0.00535974,0.311624,1.0132
17,1294,3.30402,-0.00597678,0.311629,1.01288
19,1292,3.30409,-0.00659679,0.311624,1.01251
21,1290,3.30391,-0.00662222,0.311619,1.01251
23,1288,3.30385,-0.00719458,0.31162,1.01214
25,1286,3.30591,-0.00473969,0.310399,1.0116
27,1284,3.30582,-0.00470558,0.309955,1.01182
29,1282,3.30566,-0.00469264,0.30996,1.01184
31,1280,3.30601,-0.00538827,0.310049,1.01146
33,1278,3.30584,-0.0054262,0.309963,1.01143
35,1276,3.30563,-0.00542044,0.309969,1.01146
37,1274,3.30578,-0.0060244,0.309959,1.01111
39,1272,3.30552,-0.00606638,0.309956,1.01107
41,1270,3.30554,-0.00604239,0.309955,1.01109
43,1268,3.30504,-0.00677796,0.310391,1.01048
45,1266,3.30487,-0.00684848,0.310398,1.01047
47,1264,3.3047,-0.00681398,0.310592,1.01047
49,1262,3.30456,-0.00737053,0.310391,1.01015
51,1260,3.30428,-0.00744905,0.310402,1.01012
53,1258,3.30621,-0.00446585,0.309165,1.00981
55,1256,3.3062,-0.00495194,0.309164,1.00954
57,1254,3.30596,-0.00493411,0.309166,1.00956
59,1252,3.30617,-0.00556573,0.309161,1.00919
61,1250,3.30598,-0.00557607,0.309165,1.00919
63,1248,3.30582,-0.00559397,0.309162,1.00919
65,1246,3.30549,-0.00630735,0.309596,1.00857
67,1244,3.30529,-0.00633448,0.309605,1.00858
69,1242,3.30571,-0.00616385,0.309163,1.00885
71,1240,3.30573,-0.00622783,0.309161,1.00883
73,1238,3.3056,-0.00675188,0.309163,1.00852
75,1236,3.30511,-0.00697651,0.309605,1.00821
77,1234,3.30539,-0.00741073,0.309159,1.00814
79,1232,3.30524,-0.00738005,0.30916,1.00817
81,1230,3.30718,-0.00425265,0.307931,1.00653
83,1228,3.30675,-0.00491895,0.308365,1.00738
85,1226,3.30702,-0.00487535,0.307928,1.0076
87,1224,3.30694,-0.00487859,0.307929,1.00761
89,1222,3.30703,-0.00490482,0.307935,1.00761
91,1220,3.30665,-0.0056076,0.308366,1.007
93,1218,3.30654,-0.00559626,0.30837,1.00702
95,1216,3.30688,-0.00558761,0.307929,1.00721
97,1214,3.30639,-0.00617968,0.308364,1.00669
99,1212,3.3064,-0.0061896,0.30836,1.00667
101,1210,3.30655,-0.00680877,0.308365,1.00632
103,1208,3.30642,-0.00681378,0.308362,1.00633
105,1206,3.30678,-0.00669525,0.307928,1.00659
107,1204,3.30697,-0.00670984,0.307925,1.00658
109,1202,3.30688,-0.00736868,0.307926,1.00622
111,1200,3.30613,-0.00739502,0.308361,1.006
113,1198,3.30601,-0.007512,0.30836,1.00593
115,1196,3.30641,-0.00736454,0.307924,1.00621
117,1194,3.3081,-0.00497222,0.307139,1.0054
119,1192,3.30823,-0.00488157,0.306699,1.00562
121,1190,3.30767,-0.00493975,0.307128,1.0054
123,1188,3.30787,-0.00550102,0.307128,1.00508
125,1186,3.30761,-0.00557085,0.307132,1.00505
127,1184,3.3078,-0.00543181,0.306695,1.00532
129,1182,3.30764,-0.00548672,0.306704,1.00531
131,1180,3.30736,-0.00614676,0.307129,1.00473
133,1178,3.30724,-0.00614309,0.307129,1.00473
135,1176,3.30705,-0.00611579,0.307026,1.00474
137,1174,3.30693,-0.00613731,0.307135,1.00499
139,1172,3.30683,-0.00619638,0.307133,1.00472
141,1170,3.30703,-0.00677108,0.307131,1.00437
143,1168,3.30675,-0.00680868,0.307135,1.00436
145,1166,3.30653,-0.00679198,0.30713,1.00436
147,1164,3.30632,-0.00748562,0.307569,1.00379
149,1162,3.30652,-0.00734097,0.307132,1.00405
151,1160,3.30592,-0.00745562,0.307565,1.00378
153,1158,3.30626,-0.00736715,0.307133,1.00403
155,1156,3.30801,-0.00483485,0.306329,1.00328
157,1154,3.30782,-0.00480382,0.306342,1.00331
159,1152,3.30772,-0.00484522,0.306338,1.00328
161,1150,3.30769,-0.00493027,0.306339,1.00322
163,1148,3.30799,-0.00482484,0.306119,1.00349
165,1146,3.30789,-0.0055146,0.306337,1.0029
167,1144,3.30789,-0.00550871,0.306337,1.0029
169,1142,3.30777,-0.00549808,0.306333,1.00292
171,1140,3.30765,-0.00546556,0.306336,1.00293
173,1138,3.30792,-0.00611818,0.306485,1.00256
175,1136,3.30791,-0.0059977,0.306338,1.00262
177,1134,3.30754,-0.00614683,0.30634,1.00257
179,1132,3.3075,-0.00610819,0.306341,1.00258
181,1130,3.30763,-0.00671653,0.306343,1.00224
183,1128,3.30763,-0.00681663,0.306338,1.00217
185,1126,3.30728,-0.00676341,0.306341,1.00221
187,1124,3.30711,-0.00671377,0.306341,1.00224
189,1122,3.30722,-0.0068411,0.306342,1.00218
191,1120,3.30744,-0.00740323,0.306337,1.00184
193,1118,3.30729,-0.00738735,0.306338,1.00185
195,1116,3.30708,-0.00742821,0.306338,1.00183
197,1114,3.30699,-0.00741015,0.306343,1.00185
199,1112,3.30695,-0.0073776,0.306335,1.00187
201,1110,3.30705,-0.00735777,0.306338,1.00187
203,1108,3.30861,-0.00508195,0.305539,0.999466
205,1106,3.30884,-0.00480547,0.305106,1.0013
207,1104,3.30872,-0.00488859,0.305112,1.00128
209,1102,3.30865,-0.00487586,0.305108,1.00128
211,1100,3.30855,-0.00492674,0.305112,1.00127
213,1098,3.30887,-0.00553343,0.305112,1.00091
215,1096,3.30882,-0.00543663,0.305109,1.00097
217,1094,3.30871,-0.00548385,0.305108,1.00095
219,1092,3.3087,-0.00555565,0.305106,1.0009
221,1090,3.30862,-0.00550238,0.305193,1.00094
223,1088,3.30843,-0.00611814,0.305109,1.00058
225,1086,3.30841,-0.00607423,0.305114,1.00063
227,1084,3.30843,-0.00610453,0.305104,1.00061
229,1082,3.30821,-0.00624869,0.305259,1.00052
231,1080,3.30832,-0.00623322,0.30511,1.00051
233,1078,3.30844,-0.00678734,0.304752,1.00021
235,1076,3.30787,-0.00690306,0.305762,0.999967
237,1074,3.30784,-0.00688198,0.305543,0.999964
239,1072,3.30778,-0.00687135,0.305538,0.999966
241,1070,3.30757,-0.00696022,0.305541,0.999916
243,1068,3.30765,-0.00685389,0.305542,0.999963
245,1066,3.30753,-0.00697975,0.305541,0.999905
247,1064,3.30741,-0.00704685,0.305535,0.99984
249,1062,3.30712,-0.00715722,0.305531,0.999783
251,1060,3.30727,-0.00705938,0.305536,0.999842
253,1058,3.30722,-0.00757755,0.305537,0.99955
255,1056,3.30697,-0.00762694,0.305536,0.999515
257,1054,3.30698,-0.00759984,0.305532,0.999542
259,1052,3.30736,-0.00755631,0.305103,0.999757
261,1050,3.3068,-0.00762027,0.305534,0.999534
263,1048,3.30906,-0.00508491,0.304307,0.998948
265,1046,3.30883,-0.00507958,0.304309,0.998962
267,1044,3.30872,-0.00509408,0.3043,0.99894
269,1042,3.30879,-0.00514652,0.304307,0.998921
271,1040,3.30873,-0.00565295,0.304302,0.998629
273,1038,3.30849,-0.00562731,0.304312,0.998658
275,1036,3.30886,-0.00563746,0.304025,0.998832
277,1034,3.30854,-0.00566753,0.304305,0.998633
279,1032,3.30874,-0.00630856,0.304304,0.998282
281,1030,3.3087,-0.00633653,0.304303,0.99826
283,1028,3.30845,-0.00634418,0.304305,0.998243
285,1026,3.30889,-0.00629586,0.303873,0.998469
287,1024,3.30885,-0.00631859,0.303875,0.998459
289,1022,3.30841,-0.00696319,0.304305,0.997903
291,1020,3.3087,-0.00686375,0.303873,0.998155
293,1018,3.30848,-0.0069104,0.303872,0.998118
295,1016,3.30816,-0.00760991,0.304305,0.997542
297,1014,3.30851,-0.00749996,0.303872,0.997791
299,1012,3.30828,-0.00749594,0.303869,0.997797
301,1010,3.30992,-0.00495663,0.303075,0.997036
303,1008,3.30985,-0.0049482,0.303083,0.997063
305,1006,3.30983,-0.00503067,0.303076,0.996999
307,1004,3.31017,-0.00499145,0.302641,0.997205
309,1002,3.30973,-0.0050941,0.303077,0.996954
311,1000,3.3098,-0.00507782,0.303075,0.996967
313,998,3.30975,-0.0056439,0.303078,0.996642
315,996,3.30966,-0.00565787,0.303155,0.996632
317,994,3.30987,-0.00560535,0.302643,0.996855
319,992,3.309468,-0.00628506,0.303157,0.996278
321,990,3.30932,-0.00630995,0.303078,0.996275
323,988,3.30929,-0.00629255,0.303078,0.996288
325,986,3.3093,-0.00622897,0.303068,0.996325
327,984,3.30936,-0.00690888,0.303075,0.995922
329,982,3.30921,-0.00686263,0.303169,0.995974
331,980,3.30892,-0.00685054,0.302948,0.995964
333,978,3.309,-0.00685165,0.303287,0.995974
335,976,3.30864,-0.00758135,0.303508,0.995363
337,974,3.30878,-0.00743442,0.303072,0.995626
339,972,3.30877,-0.00756195,0.303075,0.99556
341,970,3.30859,-0.00755377,0.303072,0.995569
343,968,3.31041,-0.00490188,0.301849,0.995059
345,966,3.31038,-0.00500221,0.301847,0.995017
347,964,3.31023,-0.00503353,0.301849,0.995005
349,962,3.31017,-0.00553915,0.301931,0.994705
351,960,3.31004,-0.00562273,0.301846,0.994656
353,958,3.30989,-0.0055851,0.301851,0.994677
355,956,3.3098,-0.005555,0.301851,0.994977
357,954,3.30991,-0.00570062,0.301849,0.99463
359,952,3.30994,-0.0062143,0.301844,0.994325
361,950,3.30978,-0.00627858,0.301847,0.994288
363,948,3.30967,-0.00629779,0.302283,0.994256
365,946,3.30949,-0.00684144,0.30151,0.993973
367,944,3.30884,-0.00692399,0.302278,0.993739
369,942,3.30931,-0.00681764,0.301849,0.993992
371,940,3.30932,-0.00743474,0.301852,0.993645
373,938,3.30909,-0.0074521,0.301844,0.993627
375,936,3.3091,-0.00752701,0.301848,0.993582
377,934,3.31087,-0.00430515,0.300621,0.993398
379,932,3.31057,-0.00497704,0.301052,0.992826
381,930,3.31097,-0.0049067,0.300622,0.99306
383,928,3.31019,-0.00501372,0.301058,0.992812
385,926,3.31067,-0.00490671,0.300621,0.993076
387,924,3.3103,-0.00561323,0.301051,0.992468
389,922,3.31002,-0.00568613,0.301492,0.992436
391,920,3.31058,-0.00555526,0.300623,0.992697
393,918,3.31026,-0.00618267,0.301054,0.992134
395,916,3.31003,-0.00623175,0.301053,0.992132
397,914,3.30995,-0.006185,0.301047,0.992135
399,912,3.31,-0.00622404,0.301049,0.99212
401,910,3.30994,-0.00684132,0.301053,0.991772
403,908,3.30983,-0.00684784,0.301265,0.991774
405,906,3.30979,-0.00684747,0.300874,0.991758
407,904,3.31008,-0.00686576,0.300627,0.991948
409,902,3.31033,-0.00742792,0.30062,0.991611
411,900,3.30981,-0.0074922,0.301054,0.991409
413,898,3.30954,-0.0075114,0.301045,0.991369
415,896,3.31153,-0.00501037,0.299826,0.990787
417,894,3.31136,-0.00487809,0.299823,0.990874
419,892,3.31162,-0.0048505,0.299394,0.991067
421,890,3.31145,-0.00557481,0.299826,0.990485
423,888,3.31169,-0.0055145,0.299391,0.990695
425,886,3.31161,-0.00548367,0.299394,0.990711
427,884,3.31144,-0.0061522,0.299823,0.990152
429,882,3.31159,-0.00612904,0.299394,0.990357
431,880,3.31149,-0.00606478,0.299389,0.990387
433,878,3.31133,-0.00607452,0.299391,0.990372
435,876,3.311,-0.0068311,0.299822,0.989761
437,874,3.31076,-0.00679667,0.299821,0.989786
439,872,3.31118,-0.00673869,0.299194,0.989989
441,870,3.31132,-0.00732806,0.299388,0.989661
443,868,3.31068,-0.00744256,0.299823,0.989431
445,866,3.31298,-0.00427608,0.298167,0.989381
447,864,3.31243,-0.00481757,0.298603,0.988911
449,862,3.31224,-0.00490923,0.298606,0.988856
451,860,3.31226,-0.0049323,0.298604,0.988844
453,858,3.31213,-0.00491984,0.298604,0.98885
455,856,3.31248,-0.00489675,0.298173,0.987734
457,854,3.31222,-0.00552842,0.298745,0.988506
459,852,3.31201,-0.00550183,0.298598,0.98849
461,850,3.31193,-0.00566003,0.298606,0.988437
463,848,3.31185,-0.00562983,0.298606,0.98845
465,846,3.31147,-0.00626473,0.29904,0.987914
467,844,3.31158,-0.00621741,0.298598,0.988091
469,842,3.31153,-0.00626394,0.298602,0.98808
471,840,3.31109,-0.00688235,0.299031,0.987538
473,838,3.31148,-0.00683896,0.298593,0.987734
475,836,3.3114,-0.00682459,0.298598,0.987756
477,834,3.31112,-0.00691114,0.298603,0.987709
479,832,3.31136,-0.0074442,0.298972,0.987396
481,830,3.31095,-0.00750159,0.298591,0.987354
483,828,3.31077,-0.00749319,0.2986,0.987365
485,826,3.31269,-0.00435688,0.297375,0.987137
487,824,3.31257,-0.00505895,0.297371,0.986719
489,822,3.31238,-0.00495692,0.29737,0.986782
491,820,3.31242,-0.00501885,0.297369,0.986752
493,818,3.31234,-0.00558885,0.297374,0.986425
495,816,3.31224,-0.0055365,0.297372,0.986467
497,814,3.31176,-0.0062535,0.297803,0.985858
499,812,3.31198,-0.0062778,0.297373,0.986044
501,810,3.31169,-0.00622377,0.297453,0.986062
503,808,3.31135,-0.0069508,0.297799,0.985447
505,806,3.31118,-0.00687081,0.29801,0.985507
507,804,3.31111,-0.00693697,0.297799,0.985471
509,802,3.31115,-0.0069458,0.2978,0.985475
511,800,3.31096,-0.00754433,0.297807,0.985139
513,798,3.31278,-0.00439857,0.296579,0.984893
515,796,3.31229,-0.00498941,0.296996,0.984341
517,794,3.31249,-0.00485874,0.296574,0.984618
519,792,3.31216,-0.00562145,0.297003,0.984003
521,790,3.31244,-0.0055005,0.296572,0.984254
523,788,3.31219,-0.00555852,0.296576,0.98428
525,786,3.31245,-0.00619669,0.297013,0.983858
527,784,3.31231,-0.00617557,0.296573,0.983861
529,782,3.31165,-0.00621189,0.296996,0.983641
531,780,3.31214,-0.00618438,0.297006,0.983858
533,778,3.31163,-0.00688121,0.297004,0.983282
535,776,3.3115,-0.00694741,0.297002,0.983225
537,774,3.31152,-0.00693612,0.297004,0.983259
539,772,3.31126,-0.00759228,0.296995,0.982855
541,770,3.31312,-0.00440679,0.295772,0.982644
543,768,3.31303,-0.00498379,0.295779,0.982329
545,766,3.31305,-0.00502786,0.29578,0.982306
547,764,3.3131,-0.00553595,0.295856,0.982025
549,762,3.31291,-0.0056064,0.295778,0.981978
551,760,3.31277,-0.00565884,0.295784,0.98196
553,758,3.31221,-0.0063501,0.296208,0.981367
555,756,3.31261,-0.00631331,0.29578,0.981582
557,754,3.31217,-0.00692197,0.296203,0.981036
559,752,3.31244,-0.00692768,0.295774,0.981207
561,750,3.31232,-0.00691754,0.295772,0.981218
563,748,3.3118,-0.00749893,0.2962,0.980692
565,746,3.31395,-0.00435445,0.29498,0.980462
567,744,3.31381,-0.00500491,0.295128,0.980101
569,742,3.31354,-0.00490836,0.294974,0.980129
571,740,3.31354,-0.0055769,0.294983,0.979769
573,738,3.31335,-0.00555443,0.294977,0.979776
575,736,3.3132,-0.0056429,0.29542,0.979732
577,734,3.31323,-0.00614821,0.294984,0.979454
579,732,3.31287,-0.00612213,0.294983,0.979441
581,730,3.3129,-0.00680845,0.29498,0.979047
583,728,3.31274,-0.00685982,0.294982,0.979037
585,726,3.31261,-0.00682986,0.294978,0.979031
587,724,3.31217,-0.00748146,0.295406,0.978476
589,722,3.31365,-0.00428404,0.294181,0.97825
591,720,3.31353,-0.00489185,0.294182,0.977913
593,718,3.31345,-0.00493597,0.294183,0.977895
595,716,3.31353,-0.00559789,0.294185,0.97753
597,714,3.31305,-0.00550164,0.294186,0.977582
599,712,3.31268,-0.00620327,0.294612,0.976995
601,710,3.3128,-0.0061255,0.294185,0.977218
603,708,3.31227,-0.00683018,0.294609,0.976627
605,706,3.31221,-0.00691526,0.294609,0.976572
607,704,3.31156,-0.00749232,0.295042,0.976077
609,702,3.31176,-0.00752078,0.294615,0.976231
611,700,3.31365,-0.00428573,0.293387,0.976057
613,698,3.31358,-0.00487381,0.293377,0.975703
615,696,3.3136,-0.00485732,0.293395,0.975721
617,694,3.31304,-0.00557026,0.29382,0.975122
619,692,3.31282,-0.00565353,0.293817,0.975071
621,690,3.31296,-0.006187,0.293817,0.974763
623,688,3.31274,-0.00627902,0.293818,0.974714
625,686,3.31259,-0.00689313,0.293812,0.974351
627,684,3.31242,-0.00686686,0.293814,0.974363
629,682,3.31205,-0.00761198,0.294249,0.973782
631,680,3.31248,-0.00753719,0.293815,0.973999
633,678,3.31429,-0.00436087,0.292592,0.973772
635,676,3.31348,-0.00498866,0.293019,0.973214
637,674,3.31384,-0.00575727,0.293015,0.972769
639,672,3.31409,-0.00564256,0.292591,0.973022
641,670,3.31362,-0.00633551,0.293023,0.972456
643,668,3.31341,-0.00627867,0.293022,0.972493
645,666,3.31293,-0.0068954,0.293443,0.97194
647,664,3.31277,-0.00697448,0.293019,0.97208
649,662,3.31304,-0.00754478,0.293019,0.971756
651,660,3.31261,-0.00755543,0.293021,0.971742
653,658,3.31467,-0.00500962,0.291801,0.971148
655,656,3.31426,-0.00504316,0.291796,0.971109
657,654,3.31389,-0.00569146,0.292221,0.970564
659,652,3.31421,-0.00564914,0.291998,0.970778
661,650,3.31348,-0.00635349,0.292218,0.970179
663,648,3.31318,-0.00638497,0.292215,0.970157
665,646,3.31271,-0.0070749,0.292652,0.969589
667,644,3.31235,-0.00706493,0.29265,0.96961
669,642,3.31235,-0.00772718,0.29265,0.969231
671,640,3.31407,-0.00435368,0.29142,0.969059
673,638,3.3135,-0.00505385,0.291422,0.968671
675,636,3.31348,-0.00572544,0.291854,0.968097
677,634,3.31321,-0.00574592,0.29185,0.968097
679,632,3.31294,-0.00631765,0.292282,0.967568
681,630,3.31305,-0.00641844,0.29185,0.967709
683,628,3.31256,-0.00705077,0.292277,0.967157
685,626,3.31251,-0.00702796,0.29242,0.967169
687,624,3.31252,-0.00771008,0.292284,0.966785
689,622,3.31422,-0.0049705,0.291012,0.966287
691,620,3.31404,-0.00509275,0.291055,0.966227
693,618,3.31392,-0.00577219,0.29106,0.965847
695,616,3.31375,-0.00627478,0.291048,0.965523
697,614,3.31374,-0.00634244,0.291046,0.965485
699,612,3.31349,-0.00695921,0.291051,0.965145
701,610,3.31344,-0.00690715,0.291048,0.965164
703,608,3.31281,-0.00772783,0.291482,0.964523
705,606,3.31477,-0.00508336,0.290257,0.963964
707,604,3.31457,-0.00495785,0.290256,0.964034
709,602,3.31436,-0.00563724,0.290252,0.96364
711,600,3.31403,-0.00564448,0.290257,0.963634
713,598,3.31369,-0.00632038,0.290254,0.963497
715,596,3.3132,-0.00633653,0.290257,0.963247
717,594,3.31265,-0.00714073,0.29068,0.962606
719,592,3.31253,-0.00705007,0.290681,0.96265
721,590,3.31185,-0.00777523,0.291119,0.962074
723,588,3.31376,-0.00446078,0.289892,0.961871
725,586,3.31357,-0.00511948,0.289962,0.960153
727,584,3.31352,-0.00568252,0.289891,0.961177
729,582,3.31309,-0.0064959,0.290324,0.960528
731,580,3.31328,-0.00636337,0.290291,0.960778
733,578,3.31254,-0.00709915,0.29032,0.960198
735,576,3.31252,-0.00782694,0.290319,0.95978
737,574,3.31444,-0.00514387,0.289089,0.959204
739,572,3.31439,-0.00514227,0.289098,0.959239
741,570,3.31396,-0.00568903,0.28952,0.958488
743,568,3.31368,-0.00588784,0.289525,0.958602
745,566,3.31337,-0.00637521,0.289517,0.958322
747,564,3.31314,-0.00713502,0.289519,0.9579
749,562,3.31304,-0.00708576,0.289522,0.957916
751,560,3.31456,-0.00441741,0.288289,0.95734
753,558,3.31382,-0.005117,0.288723,0.956772
755,556,3.3138,-0.00578342,0.288723,0.956386
757,554,3.31358,-0.00588553,0.288866,0.956241
759,552,3.31301,-0.00650094,0.289158,0.955803
761,550,3.31269,-0.00718602,0.289158,0.955415
763,548,3.31264,-0.00720093,0.289158,0.9554
765,546,3.31467,-0.00273561,0.287482,0.954743
767,544,3.31422,-0.00336937,0.287988,0.95286
769,542,3.31413,-0.0100399,0.287486,0.954399
771,540,3.31349,-0.0108734,0.287916,0.953738
773,538,3.31351,-0.011465,0.287922,0.953406
775,536,3.31367,-0.0104631,0.287485,0.952886
777,534,3.31333,-0.0111424,0.287489,0.952496
779,532,3.31518,-0.0077332,0.286255,0.952334
781,530,3.31509,-0.00674929,0.285822,0.951797
783,528,3.31466,-0.00848509,0.28625,0.951897
785,526,3.31421,-0.00754791,0.286249,0.951162
787,524,3.31386,-0.0081649,0.286249,0.950807
789,522,3.31362,-0.00817683,0.28624,0.95078
791,520,3.31261,-0.010649,0.287115,0.950306
793,518,3.31263,-0.00957184,0.287112,0.949819
795,516,3.31395,-0.00536989,0.285454,0.948861
797,514,3.31401,-0.00406303,0.285014,0.948484
799,512,3.31368,-0.0114502,0.285019,0.948112
801,510,3.313105,-0.0121668,0.28545,0.947524
803,508,3.31321,-0.0110585,0.285019,0.947051
805,506,3.31494,-0.00787061,0.283788,0.946763
807,504,3.31507,-0.0068305,0.283352,0.946241
809,502,3.31532,-0.00576076,0.282928,0.945912
811,500,3.3151,-0.00649004,0.282922,0.945348
813,498,3.31452,-0.00720241,0.283355,0.945038
815,496,3.31493,-0.00545103,0.282497,0.944828
817,494,3.31616,-0.0028191,0.281701,0.944066
819,492,3.31554,-0.00357138,0.282262,0.942118
821,490,3.3154,-0.0108529,0.281696,0.943296
823,488,3.31461,-0.011514,0.282125,0.94276
825,486,3.31462,-0.0104475,0.281694,0.942259
827,484,3.31358,-0.0128654,0.282553,0.941823
829,482,3.31568,-0.00945741,0.281103,0.941832
831,480,3.31521,-0.00846697,0.2809,0.941131
833,478,3.31458,-0.00924264,0.281327,0.940508
835,476,3.31481,-0.00647053,0.28047,0.93987
837,474,3.314,-0.00705545,0.280892,0.939364
839,472,3.31405,-0.00779649,0.281099,0.938954
841,470,3.31608,-0.00342049,0.279247,0.938222
843,468,3.31599,-0.00335051,0.279248,0.938272
845,466,3.31562,-0.0107567,0.279245,0.937869
847,464,3.31559,-0.00476911,0.279237,0.937448
849,462,3.3154,-0.0104225,0.278817,0.93694
851,460,3.31663,-0.00778336,0.278219,0.93616
853,458,3.31627,-0.0084402,0.278025,0.935816
855,456,3.31571,-0.00913939,0.278447,0.935236
857,454,3.31573,-0.00810895,0.27802,0.934724
859,452,3.31543,-0.00809799,0.278024,0.934725
861,450,3.31501,-0.00878411,0.278019,0.934347
863,448,3.31605,-0.00616036,0.277223,0.933561
865,446,3.31544,-0.00691448,0.277636,0.932941
867,444,3.31516,-0.00588083,0.277213,0.932424
869,442,3.31492,-0.00645274,0.277215,0.932098
871,440,3.31456,-0.00545028,0.277212,0.931221
873,438,3.31384,-0.00619669,0.277645,0.930828
875,436,3.31619,-0.00999383,0.275993,0.930546
877,434,3.3155,-0.010865,0.276408,0.929859
879,432,3.31498,-0.00977562,0.276842,0.929207
881,430,3.31552,-0.00882417,0.275695,0.928561
883,428,3.31513,-0.00784995,0.275574,0.928103
885,426,3.31691,-0.00509711,0.274351,0.927549
887,424,3.31653,-0.00577615,0.274351,0.927176
889,422,3.31605,-0.0114706,0.27393,0.926635
891,420,3.31555,-0.0121932,0.274341,0.926065
893,418,3.31517,-0.0128397,0.274348,0.925715
895,416,3.31696,-0.00960101,0.27313,0.925436
897,414,3.31697,-0.00846795,0.272712,0.924959
899,412,3.31646,-0.0110314,0.273127,0.924638
901,410,3.31604,-0.00993781,0.273127,0.923957
903,408,3.31539,-0.0105884,0.27313,0.923612
905,406,3.31659,-0.00786232,0.272326,0.922856
907,404,3.316,-0.00697805,0.272328,0.922081
909,402,3.31586,-0.0074184,0.27232,0.921841
911,400,3.31522,-0.0066222,0.272326,0.921015
913,398,3.31516,-0.00545249,0.271899,0.92055
915,396,3.31696,-0.00276476,0.270687,0.919963
917,394,3.31672,-0.0102442,0.27069,0.919573
919,392,3.31607,-0.0116072,0.271101,0.918636
921,390,3.31613,-0.0105659,0.27068,0.918093
923,388,3.31549,-0.0112707,0.271097,0.917538
925,386,3.31715,-0.00689206,0.269884,0.916616
927,384,3.31703,-0.00590716,0.269466,0.916065
929,382,3.31648,-0.0064679,0.269467,0.916018
931,380,3.31563,-0.00718444,0.26988,0.915181
933,378,3.31785,-0.00271533,0.26784,0.914645
935,376,3.31715,-0.00347207,0.268249,0.914038
937,374,3.31651,-0.0041349,0.268657,0.913515
939,372,3.31555,-0.0116178,0.268664,0.913123
941,370,3.31502,-0.0129866,0.269075,0.912202
943,368,3.31646,-0.00858934,0.267862,0.91129
945,366,3.31641,-0.00757656,0.267453,0.910724
947,364,3.31599,-0.00650038,0.267441,0.910026
949,362,3.31574,-0.00730275,0.26744,0.909839
951,360,3.31573,-0.00793892,0.267439,0.909241
953,358,3.31775,-0.00347073,0.265817,0.908514
955,356,3.31719,-0.0109097,0.265815,0.90816
957,354,3.31685,-0.0105635,0.265813,0.907056
959,352,3.31656,-0.0111734,0.265813,0.906735
961,350,3.31783,-0.00690542,0.264604,0.905739
963,348,3.31739,-0.00746456,0.264597,0.905421
965,346,3.31635,-0.00822207,0.265011,0.90484
967,344,3.31604,-0.0089184,0.265008,0.904426
969,342,3.31753,-0.00614078,0.263797,0.903904
971,340,3.31666,-0.00761881,0.264613,0.902746
973,338,3.3161,-0.0076593,0.264615,0.902734
975,336,3.31582,-0.00544277,0.264193,0.901525
977,334,3.31526,-0.00621429,0.264609,0.900946
979,332,3.31683,-0.0103543,0.263395,0.900365
981,330,3.31661,-0.0109941,0.263396,0.900008
983,328,3.31614,-0.0107059,0.263395,0.898893
985,326,3.31577,-0.00953002,0.262983,0.898409
987,324,3.31783,-0.00511565,0.261364,0.897645
989,322,3.31758,-0.00570507,0.261365,0.897317
991,320,3.31684,-0.00709274,0.261766,0.896388
993,318,3.31592,-0.00608169,0.261651,0.895649
995,316,3.31691,-0.00519674,0.261497,0.895003
997,314,3.31647,-0.00412346,0.260961,0.894471
999,312,3.31563,-0.0123026,0.261374,0.893617
1001,310,3.31524,-0.0114239,0.261375,0.892814
1003,308,3.31733,-0.0068554,0.259691,0.892093
1005,306,3.31705,-0.00746178,0.259799,0.891751
1007,304,3.31656,-0.007279,0.259755,0.890584
1009,302,3.31856,-0.00274896,0.25814,0.88986
1011,300,3.31805,-0.0103177,0.258135,0.88949
1013,298,3.3171,-0.0116888,0.258544,0.888857
1015,296,3.31655,-0.0106453,0.258536,0.887852
1017,294,3.3157,-0.0130671,0.258945,0.887686
1019,292,3.31683,-0.0103808,0.258329,0.886895
1021,290,3.31594,-0.0100167,0.258187,0.885797
1023,288,3.31508,-0.010785,0.258546,0.885241
1025,286,3.3171,-0.00617725,0.256931,0.884521
1027,284,3.31655,-0.00514856,0.256926,0.883785
1029,282,3.3167,-0.00468115,0.25652,0.882911
1031,280,3.31633,-0.0125167,0.25652,0.882444
1033,278,3.31787,-0.0086653,0.255309,0.881158
1035,276,3.3178,-0.00759436,0.254906,0.880608
1037,274,3.31744,-0.00824163,0.255326,0.880281
1039,272,3.31696,-0.00792268,0.254911,0.879171
1041,270,3.31741,-0.00522812,0.254504,0.878189
1043,268,3.3168,-0.00754704,0.254906,0.878064
1045,266,3.31606,-0.00661285,0.254907,0.877289
1047,264,3.31521,-0.00804643,0.255247,0.87636
1049,262,3.31671,-0.0104929,0.253695,0.875591
1051,260,3.31624,-0.0101068,0.253697,0.874523
1053,258,3.31617,-0.010892,0.253691,0.87409
1055,256,3.31738,-0.00810957,0.25289,0.873347
1057,254,3.31708,-0.00591397,0.252484,0.8721
1059,252,3.3166,-0.00666734,0.25248,0.871679
1061,250,3.31605,-0.00733126,0.252479,0.871342
1063,248,3.3172,-0.00526351,0.251672,0.870205
1065,246,3.31645,-0.0042653,0.251672,0.869454
1067,244,3.3156,-0.0126782,0.252071,0.868548
1069,242,3.31709,-0.00803431,0.25086,0.867655
1071,240,3.3176,-0.00701739,0.250063,0.86725
1073,238,3.31645,-0.00857187,0.250863,0.866078
1075,236,3.31695,-0.00737396,0.25006,0.865977
1077,234,3.31763,-0.00533307,0.249653,0.864442
1079,232,3.31704,-0.00598002,0.249649,0.864106
1081,230,3.31572,-0.00676246,0.250165,0.863517
1083,228,3.31696,-0.00460193,0.249241,0.86239
1085,226,3.31609,-0.0035779,0.249236,0.86166
1087,224,3.3154,-0.0103034,0.249234,0.860547
1089,222,3.31563,-0.00807653,0.248434,0.859475
1091,220,3.31751,-0.00535316,0.247238,0.858877
1093,218,3.31705,-0.0049069,0.24723,0.857804
1095,216,3.31612,-0.00570239,0.247631,0.857227
1097,214,3.31725,-0.00352103,0.246822,0.85613
1099,212,3.3165,-0.00425088,0.247006,0.855746
1101,210,3.31564,-0.00497002,0.247226,0.855205
1103,208,3.31485,-0.011729,0.247222,0.854107
1105,206,3.31622,-0.00888451,0.246411,0.853363
1107,204,3.31625,-0.00855795,0.246009,0.852409
1109,202,3.31593,-0.0092406,0.246011,0.852069
1111,200,3.31699,-0.00538313,0.245199,0.850525
1113,198,3.31649,-0.00602565,0.245198,0.850188
1115,196,3.31558,-0.00575338,0.245193,0.849044
1117,194,3.31671,-0.00287418,0.24439,0.848305
1119,192,3.31586,-0.00962535,0.244388,0.847239
1121,190,3.31573,-0.00846042,0.243988,0.846733
1123,188,3.31809,-0.00453729,0.242344,0.845559
1125,186,3.31674,-0.00705318,0.243175,0.845214
1127,184,3.31614,-0.00666915,0.243175,0.844127
1129,182,3.31476,-0.00756643,0.243577,0.843504
1131,180,3.31642,-0.0052487,0.242359,0.842622
1133,178,3.31521,-0.00432664,0.242758,0.841623
1135,176,3.31465,-0.0111406,0.242755,0.840551
1137,174,3.31702,-0.00641594,0.240863,0.839962
1139,172,3.31639,-0.00790935,0.241151,0.839028
1141,170,3.31564,-0.00934254,0.241544,0.838136
1143,168,3.31749,-0.00448926,0.239945,0.837445
1145,166,3.31545,-0.00721279,0.241135,0.836839
1147,164,3.31522,-0.006781,0.240737,0.83594
1149,162,3.31415,-0.00649386,0.241545,0.83462
1151,160,3.3157,-0.0109209,0.239925,0.83403
1153,158,3.31586,-0.0104424,0.239528,0.833138
1155,156,3.31497,-0.00932019,0.239524,0.832419
1157,154,3.31656,-0.00714991,0.238316,0.831466
1159,152,3.3155,-0.00680972,0.238713,0.830169
1161,150,3.31453,-0.00758408,0.239112,0.829616
1163,148,3.31654,-0.00276764,0.23751,0.82887
1165,146,3.31616,-0.0115763,0.237506,0.828133
1167,144,3.3147,-0.0131323,0.238297,0.827017
1169,142,3.31642,-0.00834132,0.236694,0.82625
1171,140,3.31524,-0.00975074,0.237087,0.82538
1173,138,3.31459,-0.00942489,0.237087,0.824246
1175,136,3.31673,-0.00274353,0.235093,0.823299
1177,134,3.3162,-0.0116066,0.235481,0.822379
1179,132,3.31561,-0.0122806,0.235657,0.822038
1181,130,3.31462,-0.0137069,0.235906,0.821171
1183,128,3.3153,-0.0109304,0.235064,0.820352
1185,126,3.31413,-0.0106463,0.235455,0.819024
1187,124,3.31358,-0.01021,0.235449,0.817952
1189,122,3.31641,-0.00540039,0.233456,0.817332
1191,120,3.31539,-0.00513456,0.233854,0.815999
1193,118,3.31429,-0.0132001,0.233845,0.815665
1195,116,3.31548,-0.0033226,0.233037,0.814684
1197,114,3.31485,-0.0116796,0.233037,0.814233
1199,112,3.31437,-0.0112525,0.233034,0.813154
1201,110,3.3162,-0.00736491,0.231829,0.811744
1203,108,3.31587,-0.00608528,0.231437,0.811244
1205,106,3.31474,-0.00757533,0.231827,0.810597
1207,104,3.31533,-0.0054589,0.231409,0.808992
1209,102,3.31512,-0.01168,0.23102,0.808495
1211,100,3.31462,-0.0114524,0.231014,0.807309
1213,98,3.31681,-0.00837188,0.229422,0.806954
1215,96,3.31516,-0.00995898,0.230199,0.805839
1217,94,3.31394,-0.010773,0.230592,0.805288
1219,92,3.31538,-0.00478397,0.229381,0.803557
1221,90,3.31598,-0.00360172,0.228599,0.803178
1223,88,3.3153,-0.00528979,0.229085,0.802184
1225,86,3.31408,-0.00662003,0.229377,0.801375
1227,84,3.31553,-0.00352745,0.228174,0.800839
1229,82,3.31442,-0.0106324,0.228172,0.799758
1231,80,3.31413,-0.00965296,0.228172,0.798929
1233,78,3.31621,-0.00542471,0.226581,0.797832
1235,76,3.31512,-0.00691962,0.226962,0.796919
1237,74,3.31431,-0.00759783,0.227366,0.796604
1239,72,3.31584,-0.0109444,0.225764,0.793866
1241,70,3.31565,-0.011767,0.225758,0.79492
1243,68,3.31464,-0.0115108,0.226161,0.793565
1245,66,3.31571,-0.00844263,0.224942,0.793025
1247,64,3.31426,-0.0100753,0.225882,0.791881
1249,62,3.31396,-0.00764506,0.225322,0.790627
1251,60,3.31618,-0.00486364,0.224125,0.789946
1253,58,3.31606,-0.00432013,0.223739,0.789088
1255,56,3.31425,-0.00704801,0.224511,0.788734
1257,54,3.31472,-0.0108177,0.223694,0.787078
1259,52,3.3152,-0.0111169,0.223326,0.787125
1261,50,3.31495,-0.00891434,0.222917,0.785737
1263,48,3.31384,-0.0104984,0.223301,0.784808
1265,46,3.31485,-0.0075375,0.222487,0.784038
1267,44,3.31439,-0.00506056,0.2221,0.782774
1269,42,3.31428,-0.0059727,0.222095,0.782339
1271,40,3.3153,-0.0115654,0.221285,0.781148
1273,38,3.31465,-0.00437695,0.221279,0.780894
1275,36,3.31326,-0.0116716,0.221665,0.779633
1277,34,3.31621,-0.00667526,0.219697,0.778998
1279,32,3.31526,-0.00823634,0.220083,0.778119
1281,30,3.314,-0.00907674,0.220457,0.77754
1283,28,3.31527,-0.00476214,0.219259,0.776235
1285,26,3.31485,-0.00369818,0.219427,0.775428
1287,24,3.31475,-0.010983,0.218873,0.774484
1289,22,3.31362,-0.0124876,0.219249,0.773626
1291,20,3.31435,-0.0114748,0.218816,0.77307
1293,18,3.31383,-0.0109768,0.218815,0.771983
1295,16,3.31381,-0.00788678,0.218047,0.771166
1297,14,3.31552,-0.00361471,0.216845,0.76983
1299,12,3.31468,-0.005108,0.216844,0.769138
1301,10,3.31355,-0.0135975,0.217222,0.768639
1303,8,3.31592,-0.00873821,0.215645,0.767745
1305,6,3.31482,-0.0102907,0.216028,0.766877
1307,4,3.31372,-0.0129428,0.216499,0.766794
1308,3,3.31275,-0.011903,0.216787,0.765776