File: hust_correlation_analysis/matrices/HUST_5-5_cycle_feature_matrix.csv
cycle_number,rul,voltage,current,capacity,charge_capacity
1,1585,3.31385,0.0314574,0.290498,1.03772
3,1583,3.29723,-0.0157408,0.309738,1.00032
5,1581,3.30073,-0.0120299,0.30799,1.00254
7,1579,3.3022,-0.0118265,0.306726,1.00594
9,1577,3.30324,-0.0175892,0.306812,1.00855
11,1575,3.3059,-0.0142442,0.304577,1.01138
13,1573,3.30513,-0.0154567,0.304547,1.01333
15,1571,3.30752,-0.0146885,0.303232,1.01439
17,1569,3.30868,-0.0128459,0.301926,1.01603
19,1567,3.3079,-0.014656,0.302352,1.01742
21,1565,3.30905,-0.0140246,0.301649,1.01819
23,1563,3.30877,-0.0156911,0.30149,1.01985
25,1561,3.30899,-0.0150451,0.301064,1.02043
27,1559,3.31019,-0.0143865,0.300213,1.02119
29,1557,3.3101,-0.0149875,0.299786,1.02108
31,1555,3.31064,-0.0142913,0.299362,1.02166
33,1553,3.31132,-0.0131616,0.298459,1.0225
35,1551,3.3118,-0.0131617,0.298521,1.02269
37,1549,3.3121,-0.0125613,0.298103,1.02324
39,1547,3.31247,-0.0125328,0.297255,1.02345
41,1545,3.31064,-0.0155917,0.298957,1.0237
43,1543,3.3111,-0.0149814,0.298537,1.02425
45,1541,3.31133,-0.0149517,0.298538,1.02426
47,1539,3.31156,-0.0149119,0.298123,1.02448
49,1537,3.31177,-0.0148151,0.297708,1.02474
51,1535,3.31154,-0.0155872,0.298123,1.02412
53,1533,3.312,-0.0153213,0.297701,1.02447
55,1531,3.31342,-0.011929,0.296442,1.02444
57,1529,3.31321,-0.0124645,0.296439,1.02415
59,1527,3.31398,-0.0124256,0.296031,1.02438
61,1525,3.31417,-0.0124771,0.29603,1.02436
63,1523,3.31367,-0.0124361,0.296029,1.02438
65,1521,3.31407,-0.0124163,0.295617,1.02458
67,1519,3.31407,-0.0129831,0.295612,1.02426
69,1517,3.31382,-0.0130318,0.295614,1.02424
71,1515,3.31396,-0.013071,0.295611,1.0242
73,1513,3.31308,-0.0137812,0.296026,1.02362
75,1511,3.31307,-0.0134075,0.295613,1.02404
77,1509,3.31337,-0.0143905,0.295616,1.02351
79,1507,3.31342,-0.0148296,0.295615,1.02325
81,1505,3.31289,-0.0148428,0.295321,1.02325
83,1503,3.3152,-0.0117357,0.29394,1.02325
85,1501,3.31488,-0.0122677,0.294348,1.02276
87,1499,3.31496,-0.0124322,0.294642,1.02265
89,1497,3.31476,-0.0124307,0.294352,1.02267
91,1495,3.3146,-0.0131538,0.294765,1.02208
93,1493,3.31489,-0.0130321,0.294346,1.02233
95,1491,3.31442,-0.0129445,0.294347,1.02238
97,1489,3.31401,-0.0137206,0.294758,1.02175
99,1487,3.31474,-0.0136732,0.294346,1.02197
101,1485,3.31455,-0.0141652,0.294347,1.0217
103,1483,3.31441,-0.0148407,0.294347,1.02133
105,1481,3.31414,-0.0148243,0.294069,1.02159
107,1479,3.31377,-0.0149235,0.295052,1.02108
109,1477,3.31585,-0.011859,0.293079,1.02105
111,1475,3.31508,-0.0125004,0.293633,1.02029
113,1473,3.31522,-0.0124547,0.293488,1.02051
115,1471,3.3156,-0.0124363,0.293489,1.02054
117,1469,3.3157,-0.0130876,0.293489,1.02017
119,1467,3.31469,-0.0131602,0.2939,1.01993
121,1465,3.31483,-0.0136689,0.2939,1.01965
123,1463,3.31538,-0.0136728,0.29349,1.01984
125,1461,3.31523,-0.0143054,0.293902,1.01931
127,1459,3.31471,-0.014236,0.293902,1.01935
129,1457,3.31475,-0.0143216,0.2939,1.01929
131,1455,3.3147,-0.0148982,0.293897,1.01895
133,1453,3.31438,-0.0148263,0.293895,1.019
135,1451,3.31564,-0.0125253,0.293039,1.01814
137,1449,3.31555,-0.0125839,0.293452,1.0179
139,1447,3.31527,-0.0125486,0.293452,1.01792
141,1445,3.31499,-0.0126105,0.293452,1.01789
143,1443,3.3158,-0.0124934,0.293038,1.01814
145,1441,3.31515,-0.0131697,0.293451,1.01758
147,1439,3.31491,-0.0137644,0.293451,1.01725
149,1437,3.31566,-0.0136971,0.293039,1.01748
151,1435,3.31512,-0.013761,0.293452,1.01725
153,1433,3.31503,-0.0143135,0.293453,1.01695
155,1431,3.31493,-0.0143716,0.29345,1.01691
157,1429,3.31478,-0.0149625,0.29345,1.01658
159,1427,3.31428,-0.0149945,0.293862,1.01638
161,1425,3.31429,-0.0150344,0.293862,1.01635
163,1423,3.31545,-0.012627,0.293004,1.01553
165,1421,3.31582,-0.012493,0.292593,1.01581
167,1419,3.31599,-0.0125385,0.292591,1.01579
169,1417,3.31538,-0.0131386,0.293002,1.01525
171,1415,3.31584,-0.0131024,0.292589,1.01547
173,1413,3.31578,-0.0138203,0.293002,1.01487
175,1411,3.31531,-0.0136643,0.293415,1.01501
177,1409,3.31517,-0.0137488,0.293002,1.0149
179,1407,3.3144,-0.0138803,0.29371,1.01462
181,1405,3.31493,-0.0143887,0.293413,1.01434
183,1403,3.3146,-0.0144123,0.293414,1.01433
185,1401,3.31421,-0.0144976,0.293412,1.01428
187,1399,3.31485,-0.0150283,0.293414,1.01399
189,1397,3.31439,-0.0150742,0.293413,1.01396
191,1395,3.31547,-0.0126294,0.292555,1.01317
193,1393,3.31579,-0.0125937,0.292553,1.01317
195,1391,3.31548,-0.0125791,0.292554,1.01319
197,1389,3.31539,-0.013194,0.292553,1.01285
199,1387,3.31572,-0.0131916,0.292552,1.01285
201,1385,3.31491,-0.0132641,0.292967,1.01261
203,1383,3.31458,-0.0133201,0.292966,1.01257
205,1381,3.31483,-0.0138463,0.292966,1.01228
207,1379,3.31433,-0.0139965,0.293382,1.012
209,1377,3.31468,-0.0139414,0.292966,1.01223
211,1375,3.31481,-0.013813,0.292964,1.01229
213,1373,3.31424,-0.0145242,0.293381,1.0117
215,1371,3.31407,-0.0145024,0.293381,1.01173
217,1369,3.31393,-0.0145203,0.293428,1.01171
219,1367,3.31369,-0.0152177,0.293383,1.01133
221,1365,3.31395,-0.0151565,0.293381,1.01137
223,1363,3.31554,-0.0127233,0.292523,1.01056
225,1361,3.31498,-0.0127297,0.292523,1.01055
227,1359,3.31508,-0.0127332,0.292523,1.01055
229,1357,3.31527,-0.0127262,0.292521,1.01055
231,1355,3.31513,-0.0132994,0.292521,1.01023
233,1353,3.31501,-0.0132243,0.292521,1.01026
235,1351,3.31473,-0.0133043,0.292939,1.01003
237,1349,3.31455,-0.0133303,0.29294,1.01002
239,1347,3.31397,-0.0134573,0.29335,1.00971
241,1345,3.31339,-0.0135357,0.293771,1.00947
243,1343,3.31339,-0.0131948,0.293766,1.00964
245,1341,3.31335,-0.0134602,0.293772,1.0095
247,1339,3.31282,-0.0135358,0.29419,1.00924
249,1337,3.31281,-0.0137097,0.294347,1.00916
251,1335,3.31215,-0.013649,0.293945,1.00919
253,1333,3.31262,-0.0141364,0.294188,1.00892
255,1331,3.31271,-0.01471,0.294187,1.0086
257,1329,3.31243,-0.0146996,0.294136,1.0086
259,1327,3.31152,-0.0148103,0.294908,1.00833
261,1325,3.31157,-0.014813,0.29461,1.00834
263,1323,3.31269,-0.0153389,0.294188,1.00827
265,1321,3.31208,-0.0154521,0.294609,1.008
267,1319,3.31386,-0.0129322,0.293329,1.00742
269,1317,3.31394,-0.0128765,0.292911,1.00766
271,1315,3.31398,-0.0135202,0.292911,1.00731
273,1313,3.31355,-0.013518,0.293003,1.00733
275,1311,3.31376,-0.0140705,0.292913,1.00702
277,1309,3.31339,-0.0140711,0.292911,1.00704
279,1307,3.31346,-0.0140469,0.293065,1.00705
281,1305,3.31387,-0.014691,0.292908,1.00668
283,1303,3.31348,-0.0148567,0.293329,1.00639
285,1301,3.31319,-0.0147011,0.293331,1.00647
287,1299,3.313,-0.0147696,0.293329,1.00644
289,1297,3.31259,-0.0154792,0.293751,1.00585
291,1295,3.31277,-0.0154088,0.29333,1.0061
293,1293,3.31425,-0.012901,0.292475,1.00531
295,1291,3.31464,-0.0128136,0.292061,1.00559
297,1289,3.31515,-0.0133694,0.291635,1.00548
299,1287,3.31426,-0.0134621,0.292057,1.00524
301,1285,3.31426,-0.0140161,0.292055,1.00493
303,1283,3.3146,-0.0140595,0.292055,1.00491
305,1281,3.31403,-0.0141103,0.292469,1.00465
307,1279,3.31373,-0.0141978,0.292626,1.00454
309,1277,3.31396,-0.0140977,0.292468,1.00465
311,1275,3.3135,-0.0141095,0.292468,1.00466
313,1273,3.31331,-0.0147857,0.292889,1.00408
315,1271,3.31337,-0.0147564,0.29289,1.0041
317,1269,3.31272,-0.014825,0.292899,1.00408
319,1267,3.31273,-0.0153938,0.292897,1.00378
321,1265,3.31281,-0.0154239,0.292893,1.00376
323,1263,3.31439,-0.0130314,0.292035,1.0029
325,1261,3.31477,-0.0128731,0.291613,1.00318
327,1259,3.31454,-0.0128912,0.291611,1.00317
329,1257,3.3146,-0.0129021,0.291618,1.00319
331,1255,3.31376,-0.0116193,0.292155,1.00304
333,1253,3.31409,-0.0138554,0.292033,1.00245
335,1251,3.31364,-0.0135314,0.292033,1.00263
337,1249,3.31386,-0.0135491,0.292035,1.00262
339,1247,3.31317,-0.0141736,0.292455,1.00207
341,1245,3.31355,-0.014111,0.292036,1.00231
343,1243,3.31391,-0.0142468,0.292029,1.00223
345,1241,3.31331,-0.0148873,0.292456,1.00194
347,1239,3.31345,-0.0154931,0.292453,1.00136
349,1237,3.31395,-0.0153572,0.292028,1.00163
351,1235,3.3129,-0.0153978,0.292455,1.0014
353,1233,3.31298,-0.0154805,0.292454,1.00136
355,1231,3.31486,-0.0123086,0.291169,1.00113
357,1229,3.31434,-0.012993,0.29159,1.00055
359,1227,3.31453,-0.0129891,0.29159,1.00055
361,1225,3.31441,-0.0129723,0.291592,1.00056
363,1223,3.3145,-0.0135279,0.291597,1.00028
365,1221,3.31422,-0.0135409,0.291593,1.00025
367,1219,3.31364,-0.0135881,0.291589,1.00022
369,1217,3.31386,-0.0143004,0.292016,0.999652
371,1215,3.31448,-0.0142626,0.291591,0.999873
373,1213,3.31368,-0.0149219,0.292014,0.999305
375,1211,3.31358,-0.0147974,0.292015,0.999375
377,1209,3.3134,-0.0149309,0.292014,0.999315
379,1207,3.31288,-0.0155833,0.292441,0.998754
381,1205,3.31337,-0.0154594,0.292015,0.999012
383,1203,3.31312,-0.0154877,0.292014,0.999001
385,1201,3.31315,-0.01546,0.29201,0.999001
387,1199,3.31481,-0.0130024,0.291148,0.998169
389,1197,3.31459,-0.0128734,0.29115,0.998247
391,1195,3.31443,-0.0130216,0.291045,0.99817
393,1193,3.31386,-0.0137259,0.291581,0.997594
395,1191,3.31459,-0.0135705,0.291159,0.99789
397,1189,3.3148,-0.0135873,0.291158,0.997884
399,1187,3.31401,-0.0140079,0.291583,0.997458
401,1185,3.31413,-0.014238,0.291582,0.997354
403,1183,3.31501,-0.00944914,0.290401,0.997275
405,1181,3.31335,-0.0149704,0.292006,0.996735
407,1179,3.31372,-0.0148389,0.291575,0.996976
409,1177,3.31357,-0.0149629,0.291577,0.996919
411,1175,3.31312,-0.0150337,0.292524,0.996684
413,1173,3.3133,-0.0156103,0.291999,0.996355
415,1171,3.31233,-0.0156744,0.292426,0.996123
417,1169,3.31294,-0.0156321,0.292089,0.99635
419,1167,3.31487,-0.0129728,0.290714,0.995827
421,1165,3.31364,-0.0113515,0.291251,0.995842
423,1163,3.31523,-0.0132784,0.290718,0.995675
425,1161,3.31517,-0.0085428,0.290912,0.995185
427,1159,3.3151,-0.00918254,0.29039,0.994838
429,1157,3.31446,-0.0142956,0.291144,0.994934
431,1155,3.31354,-0.0143532,0.291568,0.994681
433,1153,3.31362,-0.014359,0.291566,0.994681
435,1151,3.314,-0.0143556,0.291137,0.994879
437,1149,3.31352,-0.0149399,0.291568,0.994368
439,1147,3.31353,-0.0149759,0.291569,0.994347
441,1145,3.31331,-0.0150575,0.291567,0.994305
443,1143,3.31364,-0.0110269,0.291326,0.993434
445,1141,3.31272,-0.0157484,0.291998,0.993738
447,1139,3.31486,-0.012562,0.290706,0.993486
449,1137,3.314,-0.0111147,0.291243,0.993392
451,1135,3.3131,-0.0117661,0.291672,0.992841
453,1133,3.31437,-0.0133161,0.290702,0.993066
455,1131,3.31437,-0.0130782,0.290701,0.99319
457,1129,3.31384,-0.0137118,0.291129,0.992645
459,1127,3.31441,-0.0137709,0.290849,0.992807
461,1125,3.3135,-0.0138125,0.291125,0.992582
463,1123,3.31328,-0.0138234,0.291126,0.992581
465,1121,3.31294,-0.0145522,0.291554,0.99198
467,1119,3.31259,-0.0144791,0.29142,0.992017
469,1117,3.3136,-0.0145077,0.291128,0.992221
471,1115,3.31296,-0.0151676,0.291556,0.99166
473,1113,3.31286,-0.0151297,0.291553,0.991669
475,1111,3.31279,-0.0151556,0.291554,0.991665
477,1109,3.31188,-0.0158108,0.291984,0.991101
479,1107,3.31196,-0.0158845,0.291984,0.991059
481,1105,3.3126,-0.0158165,0.291638,0.991306
483,1103,3.31429,-0.0124468,0.290003,0.991121
485,1101,3.31396,-0.0132189,0.290688,0.990502
487,1099,3.31376,-0.0131943,0.291213,0.990513
489,1097,3.31375,-0.0131984,0.29069,0.990526
491,1095,3.31319,-0.0139017,0.29112,0.989942
493,1093,3.31313,-0.0139198,0.291121,0.989929
495,1091,3.31315,-0.0138903,0.291121,0.989959
497,1089,3.31264,-0.0145381,0.291124,0.989614
499,1087,3.31336,-0.0145293,0.290692,0.989827
501,1085,3.313,-0.0151806,0.291126,0.989285
503,1083,3.3126,-0.0151553,0.291124,0.989292
505,1081,3.31245,-0.0156691,0.291556,0.988814
507,1079,3.31208,-0.0157751,0.291553,0.98876
509,1077,3.31179,-0.0158933,0.291554,0.98869
511,1075,3.31223,-0.015817,0.291119,0.988933
513,1073,3.31418,-0.0125094,0.289823,0.988722
515,1071,3.31389,-0.0132884,0.290255,0.988096
517,1069,3.31353,-0.0132403,0.290261,0.988133
519,1067,3.31335,-0.0140192,0.290691,0.987523
521,1065,3.31455,-0.00904318,0.289496,0.987522
523,1063,3.31334,-0.0143019,0.290696,0.987394
525,1061,3.31415,-0.00940766,0.289929,0.987392
527,1059,3.31293,-0.0148212,0.290697,0.987109
529,1057,3.31287,-0.0148695,0.290695,0.987076
531,1055,3.31224,-0.0153278,0.291127,0.986626
533,1053,3.31213,-0.0152225,0.291652,0.986682
535,1051,3.31226,-0.0158669,0.291124,0.986348
537,1049,3.31156,-0.0158935,0.291556,0.986118
539,1047,3.31206,-0.0158851,0.291646,0.98632
541,1045,3.31317,-0.012718,0.290255,0.985817
543,1043,3.31311,-0.0133206,0.290258,0.985493
545,1041,3.31356,-0.0134568,0.290258,0.985435
547,1039,3.31342,-0.0140192,0.290257,0.985138
549,1037,3.31303,-0.0139718,0.29026,0.985166
551,1035,3.31368,-0.00984707,0.28993,0.984288
553,1033,3.31304,-0.0149998,0.290695,0.984425
555,1031,3.31262,-0.0146215,0.290256,0.984814
557,1029,3.31255,-0.0146078,0.290251,0.984813
559,1027,3.31232,-0.0152955,0.290688,0.984248
561,1025,3.31181,-0.0153426,0.290687,0.984219
563,1023,3.31174,-0.0160157,0.291124,0.983659
565,1021,3.31201,-0.0159569,0.290684,0.983896
567,1019,3.31143,-0.0160469,0.291122,0.983638
569,1017,3.31354,-0.0134131,0.289818,0.983048
571,1015,3.31322,-0.013211,0.289821,0.983168
573,1013,3.31285,-0.0142303,0.290786,0.982236
575,1011,3.31329,-0.0141267,0.290263,0.982502
577,1009,3.3137,-0.00983235,0.289928,0.98169
579,1007,3.31316,-0.0146255,0.290262,0.982228
581,1005,3.31256,-0.0146708,0.29056,0.982203
583,1003,3.31226,-0.0154399,0.290701,0.981595
585,1001,3.31211,-0.0153672,0.290694,0.981627
587,999,3.31223,-0.0160108,0.290694,0.981278
589,997,3.31213,-0.0160774,0.290695,0.981245
591,995,3.31376,-0.0127656,0.289386,0.980995
593,993,3.31301,-0.0133491,0.289826,0.9805
595,991,3.31308,-0.013402,0.289827,0.980465
597,989,3.31351,-0.013461,0.289828,0.980446
599,987,3.31303,-0.0140375,0.289824,0.980119
601,985,3.31318,-0.0146701,0.289824,0.979794
603,983,3.31353,-0.0146935,0.289823,0.979787
605,981,3.31231,-0.0147464,0.290262,0.979545
607,979,3.31203,-0.0153792,0.290262,0.979218
609,977,3.3121,-0.0154779,0.29026,0.979154
611,975,3.31183,-0.015498,0.2907,0.978946
613,973,3.31102,-0.0161393,0.290699,0.978597
615,971,3.31362,-0.0133753,0.289392,0.978064
617,969,3.31332,-0.0134625,0.289544,0.978025
619,967,3.31253,-0.0134458,0.289392,0.978026
621,965,3.31257,-0.0141667,0.289832,0.977452
623,963,3.31324,-0.014127,0.289391,0.977675
625,961,3.31242,-0.0142266,0.289832,0.977421
627,959,3.3117,-0.014822,0.28983,0.977102
629,957,3.31204,-0.0148912,0.289831,0.977076
631,955,3.31195,-0.0148675,0.28983,0.977088
633,953,3.31177,-0.0154802,0.28983,0.976757
635,951,3.31138,-0.0155487,0.289829,0.976724
637,949,3.31121,-0.0161917,0.290271,0.97618
639,947,3.3112,-0.0162387,0.29027,0.976159
641,945,3.31242,-0.0129993,0.289401,0.975643
643,943,3.31284,-0.0135804,0.289403,0.975355
645,941,3.3125,-0.0136623,0.288959,0.975502
647,939,3.31234,-0.0142773,0.289402,0.974973
649,937,3.31228,-0.0142984,0.289401,0.974968
651,935,3.31166,-0.0149701,0.289845,0.974413
653,933,3.31142,-0.015069,0.289845,0.974364
655,931,3.3114,-0.0149286,0.289845,0.974439
657,929,3.31072,-0.0157716,0.29029,0.973804
659,927,3.31076,-0.0164539,0.29029,0.972008
661,925,3.31057,-0.0163806,0.290372,0.973492
663,923,3.31276,-0.0129497,0.288532,0.973471
665,921,3.31208,-0.0135924,0.289128,0.972941
667,919,3.31238,-0.0136832,0.288975,0.972888
669,917,3.31146,-0.014357,0.289951,0.97234
671,915,3.31152,-0.0143778,0.289421,0.972322
673,913,3.31138,-0.0149849,0.289418,0.971999
675,911,3.31119,-0.0150349,0.289418,0.971966
677,909,3.31127,-0.0151196,0.289865,0.971736
679,907,3.31061,-0.0158023,0.289865,0.971382
681,905,3.31021,-0.01644,0.290312,0.970849
683,903,3.31015,-0.0164821,0.290315,0.970842
685,901,3.3122,-0.0138316,0.288997,0.970213
687,899,3.31158,-0.0137794,0.288997,0.970241
689,897,3.31182,-0.0137611,0.288995,0.97024
691,895,3.31102,-0.0145482,0.289444,0.969636
693,893,3.31176,-0.0144295,0.288995,0.969898
695,891,3.31081,-0.0152044,0.289442,0.96929
697,889,3.31072,-0.0151585,0.28944,0.969304
699,887,3.31076,-0.0158889,0.289441,0.968933
701,885,3.31073,-0.0157963,0.289441,0.968991
703,883,3.30984,-0.0164992,0.289891,0.968425
705,881,3.31149,-0.0138554,0.289024,0.96759
707,879,3.31241,-0.013825,0.288574,0.967809
709,877,3.31161,-0.01446,0.289022,0.967264
711,875,3.31124,-0.0145756,0.289321,0.96721
713,873,3.31096,-0.0144683,0.289022,0.967273
715,871,3.31083,-0.0151783,0.289021,0.966919
717,869,3.31057,-0.0159388,0.289473,0.966316
719,867,3.3109,-0.0158442,0.289019,0.965142
721,865,3.31036,-0.0165144,0.28947,0.966009
723,863,3.31026,-0.016527,0.289769,0.966002
725,861,3.31162,-0.0138892,0.2886,0.965155
727,859,3.31127,-0.0139135,0.288599,0.96514
729,857,3.31152,-0.0137171,0.288145,0.96671
731,855,3.31074,-0.0145472,0.288595,0.964791
733,853,3.31073,-0.0144494,0.288595,0.964838
735,851,3.31095,-0.0152013,0.288893,0.964461
737,849,3.31044,-0.0152351,0.289046,0.964228
739,847,3.31007,-0.0159761,0.289048,0.963637
741,845,3.31015,-0.0159797,0.289046,0.963872
743,843,3.30898,-0.0166707,0.289499,0.963301
745,841,3.31146,-0.0139777,0.288175,0.962678
747,839,3.3114,-0.0139717,0.288175,0.962674
749,837,3.31094,-0.0146524,0.288175,0.962321
751,835,3.31009,-0.0148132,0.288625,0.962038
753,833,3.31011,-0.0153517,0.288626,0.961754
755,831,3.31018,-0.0154252,0.289161,0.961731
757,829,3.30932,-0.0155569,0.28908,0.961444
759,827,3.30931,-0.0161006,0.289082,0.961178
761,825,3.30911,-0.0168414,0.289233,0.960794
763,823,3.31107,-0.0133174,0.287755,0.960593
765,821,3.31048,-0.0139784,0.28821,0.960052
767,819,3.31086,-0.0148024,0.288211,0.959629
769,817,3.31034,-0.0147265,0.288211,0.959675
771,815,3.30952,-0.0206467,0.288209,0.958948
773,813,3.30973,-0.015516,0.288667,0.958839
775,811,3.30972,-0.021406,0.288209,0.958582
777,809,3.30853,-0.0220799,0.288665,0.958034
779,807,3.30859,-0.0169456,0.289123,0.958135
781,805,3.31069,-0.012289,0.287488,0.957442
783,803,3.31064,-0.0192748,0.287336,0.957426
785,801,3.30968,-0.0148183,0.28825,0.956982
787,799,3.31028,-0.0199764,0.287334,0.957086
789,797,3.30981,-0.0189919,0.287334,0.956335
791,795,3.30919,-0.0196923,0.287789,0.956026
793,793,3.30909,-0.021434,0.287547,0.956151
795,791,3.30908,-0.0185633,0.287332,0.955303
797,789,3.31131,-0.0134331,0.28555,0.954844
799,787,3.30997,-0.0158941,0.286459,0.954429
801,785,3.31023,-0.0175989,0.28646,0.954826
803,783,3.31003,-0.0184253,0.286914,0.954214
805,781,3.30933,-0.0184364,0.286913,0.954181
807,779,3.30854,-0.0138848,0.287832,0.953782
809,777,3.30862,-0.0179137,0.286913,0.953211
811,775,3.30895,-0.016229,0.286455,0.953
813,773,3.31038,-0.0136608,0.285586,0.952094
815,771,3.31048,-0.0123163,0.28513,0.951718
817,769,3.31061,-0.0131807,0.285137,0.951303
819,767,3.30932,-0.0201644,0.285589,0.951126
821,765,3.30956,-0.0190567,0.28513,0.950366
823,763,3.3093,-0.0137998,0.285584,0.950783
825,761,3.30891,-0.0180172,0.285132,0.949896
827,759,3.30821,-0.0145625,0.286041,0.950185
829,757,3.30859,-0.0205042,0.285584,0.949692
831,755,3.30997,-0.0159516,0.284255,0.948719
833,753,3.30946,-0.0202227,0.285166,0.948681
835,751,3.30968,-0.0166264,0.284251,0.948374
837,749,3.309,-0.0174124,0.284709,0.947785
839,747,3.30867,-0.0192608,0.285164,0.947904
841,745,3.31026,-0.0111743,0.283447,0.946985
843,743,3.30988,-0.00962193,0.282997,0.946708
845,741,3.30902,-0.0121877,0.283905,0.946274
847,739,3.30898,-0.0180455,0.283449,0.94584
849,737,3.31103,-0.0145932,0.282119,0.945564
851,735,3.31093,-0.0152713,0.282117,0.945215
853,733,3.31019,-0.0160182,0.282573,0.944643
855,731,3.31012,-0.00896757,0.282569,0.944614
857,729,3.30887,-0.018394,0.282924,0.944013
859,727,3.30829,-0.022516,0.283829,0.944061
861,725,3.30971,-0.0188823,0.2825,0.943874
863,723,3.30951,-0.0178625,0.2825,0.943122
865,721,3.30948,-0.0203112,0.282953,0.94295
867,719,3.30998,-0.0135673,0.28214,0.942171
869,717,3.3098,-0.0143156,0.282141,0.941799
871,715,3.31064,-0.010633,0.280782,0.941742
873,713,3.30954,-0.0112816,0.281236,0.941207
875,711,3.30945,-0.0121711,0.281689,0.940569
877,709,3.30881,-0.017435,0.281234,0.940434
879,707,3.30886,-0.0128713,0.28169,0.940216
881,705,3.31028,-0.00822882,0.280351,0.939256
883,703,3.30909,-0.0188693,0.280712,0.939311
885,701,3.30835,-0.0164528,0.282071,0.93888
887,699,3.30919,-0.0181352,0.280258,0.938616
889,697,3.30847,-0.0152638,0.281692,0.938623
891,695,3.30982,-0.0177771,0.279833,0.937655
893,693,3.309,-0.019824,0.28064,0.937492
895,691,3.30896,-0.0204889,0.280735,0.937166
897,689,3.30818,-0.0193139,0.280733,0.936475
899,687,3.3085,-0.0193163,0.280735,0.93647
901,685,3.30809,-0.0200401,0.280807,0.936122
903,683,3.30699,-0.0207649,0.281188,0.93555
905,681,3.30951,-0.0179214,0.279853,0.934961
907,679,3.30897,-0.0179194,0.279853,0.934968
909,677,3.30849,-0.0150594,0.279398,0.93404
911,675,3.3086,-0.0158094,0.279395,0.933466
913,673,3.30898,-0.0139643,0.278491,0.933748
915,671,3.30795,-0.0165204,0.279394,0.933323
917,669,3.30746,-0.015449,0.279393,0.932604
919,667,3.30952,-0.0119623,0.278355,0.932315
921,665,3.30904,-0.0125267,0.27806,0.932025
923,663,3.30866,-0.0126883,0.278512,0.931735
925,661,3.30848,-0.0152809,0.278967,0.931513
927,659,3.30783,-0.0158429,0.279112,0.931252
929,657,3.30749,-0.0201127,0.278513,0.93037
931,655,3.30691,-0.0209354,0.278967,0.929766
933,653,3.30984,-0.0179282,0.277182,0.929458
935,651,3.30866,-0.0181259,0.277633,0.929138
937,649,3.3086,-0.0187639,0.277631,0.928824
939,647,3.30776,-0.0176404,0.277629,0.928124
941,645,3.30733,-0.0195425,0.278155,0.928237
943,643,3.30683,-0.0219723,0.278538,0.928112
945,641,3.30663,-0.0191263,0.278082,0.927191
947,639,3.3082,-0.0145313,0.276746,0.926164
949,637,3.30863,-0.016264,0.276701,0.926581
951,635,3.30847,-0.0152225,0.27675,0.925839
953,633,3.30841,-0.0161033,0.275923,0.924807
955,631,3.30822,-0.0163453,0.275923,0.924702
957,629,3.30894,-0.0133262,0.275166,0.92406
959,627,3.30863,-0.0177492,0.275419,0.92362
961,625,3.30865,-0.0162269,0.274961,0.923291
963,623,3.30866,-0.0187846,0.275414,0.923114
965,621,3.30806,-0.0151967,0.274958,0.922519
967,619,3.30795,-0.017576,0.274957,0.922633
969,617,3.30786,-0.0165492,0.274955,0.921859
971,615,3.30635,-0.0226891,0.276312,0.922058
973,613,3.30882,-0.0136554,0.273624,0.921279
975,611,3.30827,-0.0144902,0.274072,0.920653
977,609,3.30764,-0.0153452,0.274522,0.920042
979,607,3.30694,-0.0178381,0.274975,0.919889
981,605,3.30743,-0.0214332,0.274072,0.91955
983,603,3.30677,-0.0155765,0.274525,0.918678
985,601,3.3088,-0.019298,0.273191,0.918403
987,599,3.30832,-0.0181918,0.273187,0.917657
989,597,3.30783,-0.0207644,0.273643,0.917504
991,595,3.30726,-0.0178266,0.273189,0.916591
993,593,3.30763,-0.0196613,0.273186,0.916964
995,591,3.30642,-0.0204044,0.273639,0.916409
997,589,3.30926,-0.0138082,0.271408,0.915483
999,587,3.3086,-0.0145646,0.271855,0.914913
1001,585,3.30758,-0.0191262,0.273206,0.914623
1003,583,3.3065,-0.0179381,0.273206,0.913928
1005,581,3.3069,-0.0179733,0.27275,0.91411
1007,579,3.3063,-0.0168258,0.272748,0.9134
1009,577,3.30637,-0.0175207,0.27275,0.913068
1011,575,3.30766,-0.0146561,0.271867,0.912235
1013,573,3.30742,-0.0153884,0.271865,0.91189
1015,571,3.30655,-0.016202,0.272314,0.911536
1017,569,3.30664,-0.014449,0.271862,0.911067
1019,567,3.30605,-0.0157848,0.272317,0.910238
1021,565,3.30794,-0.0176895,0.270528,0.909785
1023,563,3.30752,-0.0183493,0.270525,0.90947
1025,561,3.30762,-0.0154957,0.270075,0.908504
1027,559,3.30716,-0.0180699,0.270521,0.908326
1029,557,3.306572,-0.018012,0.27052,0.908359
1031,555,3.306809,-0.0186407,0.270519,0.908072
1033,553,3.30616,-0.0175995,0.27052,0.907294
1035,551,3.30781,-0.0184617,0.27009,0.907019
1037,549,3.30745,-0.0154476,0.269638,0.906137
1039,547,3.30701,-0.0144204,0.269635,0.905352
1041,545,3.30661,-0.015073,0.269636,0.905042
1043,543,3.30655,-0.0205955,0.269184,0.904857
1045,541,3.30739,-0.0177524,0.268297,0.904016
1047,539,3.30806,-0.0166643,0.26785,0.903486
1049,537,3.3072,-0.0190957,0.268295,0.903384
1051,535,3.30683,-0.0179746,0.268293,0.902643
1053,533,3.30617,-0.0188042,0.268292,0.902244
1055,531,3.30686,-0.0169063,0.26784,0.902087
1057,529,3.30756,-0.0159221,0.267403,0.90142
1059,527,3.30806,-0.012878,0.266506,0.900728
1061,525,3.30661,-0.0174561,0.267849,0.900479
1063,523,3.30625,-0.0181428,0.267849,0.900157
1065,521,3.3067,-0.0151471,0.266952,0.899469
1067,519,3.30714,-0.014039,0.265656,0.898302
1069,517,3.30781,-0.020359,0.266066,0.898332
1071,515,3.30685,-0.0138418,0.266967,0.897479
1073,513,3.307,-0.0191611,0.266064,0.89762
1075,511,3.3058,-0.0220111,0.266962,0.897138
1077,509,3.3064,-0.018757,0.266059,0.896527
1079,507,3.30504,-0.023494,0.267408,0.896236
1081,505,3.30689,-0.0178875,0.265617,0.895815
1083,503,3.30649,-0.0185866,0.265615,0.895477
1085,501,3.30633,-0.0156614,0.265166,0.894524
1087,499,3.30561,-0.0200422,0.266062,0.894599
1089,497,3.30541,-0.0171257,0.265612,0.893631
1091,495,3.30498,-0.0178064,0.265611,0.893313
1093,493,3.30691,-0.0168218,0.264782,0.89285
1095,491,3.30619,-0.015737,0.26472,0.892086
1097,489,3.30566,-0.021959,0.264273,0.89163
1099,487,3.30549,-0.0153125,0.264721,0.891031
1101,485,3.30509,-0.0159939,0.264718,0.89071
1103,483,3.3063,-0.0206063,0.263828,0.889867
1105,481,3.30626,-0.0130634,0.263827,0.889886
1107,479,3.30581,-0.0213158,0.26411,0.889543
1109,477,3.30515,-0.0182455,0.263376,0.888628
1111,475,3.30418,-0.0229973,0.264726,0.888349
1113,473,3.30384,-0.023741,0.264724,0.888014
1115,471,3.30608,-0.0187653,0.262931,0.887273
1117,469,3.30542,-0.0176259,0.262929,0.886519
1119,467,3.3055,-0.0183798,0.262929,0.886435
1121,465,3.30422,-0.0212049,0.26383,0.88573
1123,463,3.30408,-0.0181766,0.263378,0.884806
1125,461,3.30647,-0.0130306,0.261591,0.884153
1127,459,3.30485,-0.0159278,0.262489,0.883669
1129,457,3.30554,-0.0203426,0.261592,0.882998
1131,455,3.30581,-0.0170264,0.26117,0.882745
1133,453,3.30492,-0.0217272,0.261323,0.882369
1135,451,3.3066,-0.0200058,0.260693,0.882251
1137,449,3.30578,-0.0169111,0.260244,0.881326
1139,447,3.30523,-0.0197797,0.261139,0.880875
1141,445,3.30511,-0.0185828,0.260688,0.880345
1143,443,3.30453,-0.0192969,0.261658,0.87982
1145,441,3.30331,-0.0238533,0.262037,0.879862
1147,439,3.30609,-0.0149105,0.259344,0.878785
1149,437,3.30543,-0.0158723,0.25979,0.878129
1151,435,3.30455,-0.0186536,0.260688,0.877723
1153,433,3.30434,-0.0193866,0.260689,0.877646
1155,431,3.30365,-0.0163547,0.260241,0.87645
1157,429,3.30603,-0.013294,0.258899,0.875875
1159,427,3.30534,-0.0215879,0.258896,0.875578
1161,425,3.30467,-0.0205178,0.258898,0.874792
1163,423,3.30416,-0.0156373,0.259794,0.874391
1165,421,3.30385,-0.0220136,0.25934,0.873906
1167,419,3.305,-0.0210799,0.258892,0.873216
1169,417,3.3053,-0.0159782,0.258067,0.872325
1171,415,3.30494,-0.0166381,0.257542,0.87203
1173,413,3.30399,-0.0215045,0.258886,0.871746
1175,411,3.30401,-0.0182554,0.258267,0.87109
1177,409,3.30494,-0.0153075,0.25709,0.870238
1179,407,3.30492,-0.021741,0.256643,0.869744
1181,405,3.30518,-0.0204142,0.256197,0.86929
1183,403,3.30415,-0.0156111,0.257087,0.868836
1185,401,3.30332,-0.0195186,0.257984,0.869204
1187,399,3.30546,-0.0126847,0.256187,0.868215
1189,397,3.30523,-0.0171495,0.255295,0.867304
1191,395,3.3048,-0.0198665,0.255738,0.867149
1193,393,3.30412,-0.0186991,0.255736,0.86657
1195,391,3.30277,-0.0214547,0.256631,0.866021
1197,389,3.3054,-0.017313,0.254837,0.864848
1199,387,3.30477,-0.0161975,0.254835,0.864075
1201,385,3.30384,-0.0199789,0.255731,0.864516
1203,383,3.3036,-0.0169898,0.25528,0.86351
1205,381,3.30322,-0.0176011,0.25528,0.863241
1207,379,3.30495,-0.0146456,0.25443,0.862366
1209,377,3.30453,-0.0154502,0.254379,0.862012
1211,375,3.30473,-0.0142814,0.253929,0.861475
1213,373,3.30381,-0.0151286,0.254378,0.860914
1215,371,3.30353,-0.0195115,0.253484,0.860277
1217,369,3.30506,-0.0166056,0.252633,0.859397
1219,367,3.30491,-0.0153914,0.252138,0.858879
1221,365,3.30411,-0.0181961,0.253026,0.858487
1223,363,3.30299,-0.0228846,0.253919,0.858528
1225,361,3.30302,-0.0178116,0.253023,0.857381
1227,359,3.30468,-0.0155195,0.252121,0.856473
1229,357,3.30426,-0.0155318,0.252121,0.856214
1231,355,3.30367,-0.0219887,0.251675,0.855536
1233,353,3.30307,-0.0170971,0.252695,0.855319
1235,351,3.30293,-0.0216712,0.251671,0.854626
1237,349,3.30508,-0.018583,0.250325,0.854026
1239,347,3.30387,-0.0214202,0.251213,0.853634
1241,345,3.30369,-0.0188629,0.250766,0.85242
1243,343,3.30313,-0.021027,0.251211,0.852532
1245,341,3.30315,-0.0198042,0.250767,0.852018
1247,339,3.30509,-0.0148,0.249419,0.850991
1249,337,3.30377,-0.0183911,0.250308,0.850268
1251,335,3.30408,-0.0151387,0.249546,0.849572
1253,333,3.30315,-0.0236607,0.249417,0.84928
1255,331,3.30311,-0.0204041,0.248974,0.848359
1257,329,3.30405,-0.0215112,0.248955,0.847846
1259,327,3.3038,-0.0222459,0.248952,0.847531
1261,325,3.3032,-0.0232076,0.249397,0.846908
1263,323,3.30283,-0.0218444,0.24895,0.846431
1265,321,3.30225,-0.0248613,0.249841,0.845974
1267,319,3.30339,-0.0215682,0.248488,0.845455
1269,317,3.30394,-0.020295,0.248041,0.844953
1271,315,3.3031,-0.021335,0.248485,0.844284
1273,313,3.3022,-0.0180841,0.248039,0.843355
1275,311,3.30515,-0.0148527,0.246247,0.843022
1277,309,3.30402,-0.0155926,0.246688,0.842491
1279,307,3.30375,-0.0223082,0.246244,0.841948
1281,305,3.30313,-0.0212072,0.246242,0.841153
1283,303,3.3026,-0.0219027,0.246241,0.840852
1285,301,3.30432,-0.0188181,0.245333,0.838526
1287,299,3.30436,-0.0195823,0.245331,0.839693
1289,297,3.30349,-0.0205593,0.245774,0.839065
1291,295,3.30288,-0.0212432,0.245773,0.838775
1293,293,3.30202,-0.0221457,0.246217,0.83819
1295,291,3.30436,-0.0169341,0.244421,0.83741
1297,289,3.30413,-0.0156128,0.243978,0.836909
1299,287,3.30322,-0.0165733,0.244418,0.836288
1301,285,3.30261,-0.0161152,0.244416,0.835465
1303,283,3.30148,-0.0250124,0.244859,0.834614
1305,281,3.30408,-0.0137578,0.243508,0.834052
1307,279,3.3031,-0.0146896,0.24446,0.833436
1309,277,3.30267,-0.0193227,0.243061,0.832745
1311,275,3.30252,-0.0222077,0.2435,0.832582
1313,273,3.30122,-0.0230341,0.243941,0.832021
1315,271,3.30367,-0.0198142,0.242589,0.83145
1317,269,3.30284,-0.018699,0.242587,0.830642
1319,267,3.30199,-0.0214924,0.243027,0.830526
1321,265,3.30241,-0.0181293,0.242145,0.82984
1323,263,3.30116,-0.0211363,0.24302,0.829399
1325,261,3.30333,-0.0160405,0.241672,0.828349
1327,259,3.30221,-0.0166496,0.24167,0.828081
1329,257,3.3025,-0.0156068,0.24167,0.82726
1331,255,3.30173,-0.0183971,0.242111,0.827149
1333,253,3.30129,-0.0191679,0.242378,0.826827
1335,251,3.30281,-0.0160381,0.241001,0.825989
1337,249,3.30275,-0.0207447,0.240314,0.825292
1339,247,3.30204,-0.0236865,0.241196,0.824913
1341,245,3.30175,-0.0223245,0.240753,0.824428
1343,243,3.30247,-0.0222855,0.240725,0.823146
1345,241,3.302675,-0.0188642,0.239839,0.822461
1347,239,3.30253,-0.0175843,0.239398,0.821936
1349,237,3.30202,-0.0164397,0.239395,0.821132
1351,235,3.3011,-0.0171096,0.239391,0.820835
1353,233,3.30346,-0.0139332,0.238038,0.820243
1355,231,3.30258,-0.0148217,0.238594,0.819651
1357,229,3.30199,-0.0236509,0.238474,0.819366
1359,227,3.301,-0.0164484,0.238911,0.818766
1361,225,3.30305,-0.0213505,0.237554,0.818171
1363,223,3.30183,-0.0222749,0.237994,0.817576
1365,221,3.30167,-0.022963,0.237993,0.817295
1367,219,3.3009,-0.0158016,0.238434,0.816598
1369,217,3.30076,-0.0226422,0.237992,0.81617
1371,215,3.30268,-0.0181992,0.236637,0.8148
1373,213,3.30219,-0.0189121,0.236634,0.814509
1375,211,3.302,-0.0157525,0.236193,0.813476
1377,209,3.30151,-0.0164331,0.23631,0.8132
1379,207,3.30284,-0.0215319,0.235275,0.812329
1381,205,3.30251,-0.0162093,0.235711,0.812199
1383,203,3.30103,-0.0231326,0.23571,0.811458
1385,201,3.30162,-0.0218813,0.23527,0.810912
1387,199,3.3002,-0.0248853,0.236146,0.810533
1389,197,3.30164,-0.0225553,0.235226,0.809341
1391,195,3.30186,-0.0190552,0.234348,0.808644
1393,193,3.30168,-0.0198651,0.234346,0.808323
1395,191,3.30026,-0.0228698,0.235224,0.807955
1397,189,3.30043,-0.0194857,0.234346,0.807217
1399,187,3.30157,-0.018373,0.23386,0.806556
1401,185,3.30213,-0.0150095,0.232986,0.805837
1403,183,3.30119,-0.0159889,0.233422,0.805226
1405,181,3.29962,-0.0258745,0.233862,0.804363
1407,179,3.30236,-0.0139567,0.232501,0.804168
1409,177,3.30178,-0.0192575,0.232064,0.802787
1411,175,3.30087,-0.022181,0.2325,0.802664
1413,173,3.30051,-0.0188057,0.232059,0.801688
1415,171,3.3028,-0.0155171,0.230701,0.801095
1417,169,3.30281,-0.0141969,0.230269,0.800573
1419,167,3.30087,-0.0193116,0.231569,0.800409
1421,165,3.30168,-0.0159824,0.230729,0.799651
1423,163,3.29976,-0.0210341,0.232007,0.799513
1425,161,3.30197,-0.0144442,0.230234,0.7979
1427,159,3.30131,-0.0234627,0.230204,0.797633
1429,157,3.30139,-0.0220728,0.229771,0.797138
1431,155,3.30117,-0.0186666,0.229679,0.796606
1433,153,3.30094,-0.0160459,0.229242,0.79532
1435,151,3.30043,-0.0168737,0.229242,0.794995
1437,149,3.30314,-0.0113349,0.227446,0.794231
1439,147,3.30175,-0.0166288,0.228744,0.79426
1441,145,3.30123,-0.0111012,0.227877,0.792823
1443,143,3.30128,-0.0118375,0.227874,0.792536
1445,141,3.303052,-0.0105938,0.226941,0.792154
1447,139,3.30243,-0.0102869,0.226943,0.791006
1449,137,3.30117,-0.0196069,0.227631,0.79044
1451,135,3.30105,-0.018131,0.226939,0.789953
1453,133,3.30051,-0.0211385,0.227368,0.789825
1455,131,3.30237,-0.0158355,0.226005,0.788727
1457,129,3.30135,-0.0145047,0.226004,0.787976
1459,127,3.3019,-0.0132535,0.225572,0.787419
1461,125,3.30027,-0.0162763,0.226434,0.787057
1463,123,3.30243,-0.0128978,0.225067,0.786476
1465,121,3.30258,-0.0178149,0.224208,0.78576
1467,119,3.30144,-0.0125563,0.225323,0.785347
1469,117,3.30155,-0.0111497,0.224632,0.784842
1471,115,3.3008,-0.012064,0.225068,0.784262
1473,113,3.30276,-0.0149855,0.223269,0.783464
1475,111,3.30191,-0.0187491,0.224131,0.782849
1477,109,3.30193,-0.0175616,0.223697,0.782247
1479,107,3.30029,-0.0184925,0.224124,0.781661
1481,105,3.30119,-0.0127765,0.222835,0.780721
1483,103,3.3021,-0.0138264,0.222777,0.780284
1485,101,3.30161,-0.0167895,0.223187,0.780201
1487,99,3.30086,-0.019665,0.222325,0.779002
1489,97,3.30078,-0.0120936,0.222326,0.778644
1491,95,3.3029,-0.00859263,0.220958,0.778335
1493,93,3.302,-0.00960083,0.221383,0.777466
1495,91,3.30034,-0.0197595,0.221814,0.776622
1497,89,3.30122,-0.0162745,0.220864,0.77586
1499,87,3.30004,-0.013088,0.222245,0.775685
1501,85,3.30185,-0.0160203,0.220446,0.7749
1503,83,3.30206,-0.0104673,0.219593,0.773656
1505,81,3.30102,-0.0205052,0.219592,0.773089
1507,79,3.30065,-0.0129761,0.220016,0.77247
1509,77,3.30247,-0.0181567,0.218651,0.771879
1511,75,3.3019,-0.0166704,0.218225,0.771395
1513,73,3.30195,-0.0154787,0.218223,0.77057
1515,71,3.30085,-0.0207631,0.219072,0.770666
1517,69,3.30223,-0.0173301,0.218129,0.769856
1519,67,3.30209,-0.0160369,0.217701,0.770628
1521,65,3.30137,-0.014779,0.217702,0.768492
1523,63,3.30109,-0.0186462,0.218125,0.768083
1525,61,3.30005,-0.0172964,0.218122,0.767308
1527,59,3.3018,-0.0117925,0.216756,0.766229
1529,57,3.30176,-0.0147515,0.21718,0.766162
1531,55,3.30073,-0.0158103,0.217607,0.765539
1533,53,3.30014,-0.0144259,0.217178,0.765014
1535,51,3.30292,-0.0151657,0.215458,0.764012
1537,49,3.30215,-0.0149689,0.214965,0.762821
1539,47,3.30269,-0.0112288,0.214124,0.762117
1541,45,3.30063,-0.0166096,0.215383,0.761969
1543,43,3.29947,-0.017424,0.215621,0.761403
1545,41,3.30168,-0.0140095,0.214428,0.76081
1547,39,3.30102,-0.0166383,0.214848,0.760861
1549,37,3.30002,-0.0157674,0.214848,0.759925
1551,35,3.30006,-0.0144619,0.214421,0.759351
1553,33,3.30156,-0.0136295,0.2139,0.758603
1555,31,3.30093,-0.0106347,0.213477,0.757389
1557,29,3.29958,-0.0175754,0.214486,0.757494
1559,27,3.30057,-0.0162743,0.213963,0.756909
1561,25,3.30022,-0.0172446,0.213964,0.756555
1563,23,3.30035,-0.0158288,0.213539,0.756036
1565,21,3.29973,-0.014555,0.213796,0.755686
1567,19,3.30044,-0.0180391,0.212523,0.754514
1569,17,3.29873,-0.0212308,0.213368,0.754161
1571,15,3.30148,-0.0141931,0.211574,0.752548
1573,13,3.29951,-0.0174413,0.212421,0.75218
1575,11,3.30083,-0.0136013,0.21115,0.751728
1577,9,3.29853,-0.0211447,0.212866,0.751864
1579,7,3.29848,-0.0156187,0.211989,0.750514
1581,5,3.30069,-0.00936604,0.210193,0.749879
1583,3,3.29947,-0.0170805,0.211225,0.74973