File: hust_correlation_analysis/matrices/HUST_2-3_cycle_feature_matrix.csv
cycle_number,rul,voltage,current,capacity,charge_capacity
1,1753,3.30908,0.0315151,0.335093,1.04698
3,1751,3.29346,-0.0120459,0.356078,1.01198
5,1749,3.29568,-0.0131371,0.354771,1.01432
7,1747,3.29706,-0.0130373,0.353486,1.01732
9,1745,3.29807,-0.0135184,0.352223,1.02019
11,1743,3.30011,-0.0110858,0.350319,1.02214
13,1741,3.30078,-0.011498,0.349575,1.0246
15,1739,3.30095,-0.0127586,0.349308,1.0264
17,1737,3.30227,-0.0109028,0.347919,1.02808
19,1735,3.30235,-0.0125994,0.347666,1.02958
21,1733,3.30314,-0.0114399,0.346754,1.03066
23,1731,3.30434,-0.0112724,0.345841,1.03112
25,1729,3.3042,-0.0102444,0.345393,1.03195
27,1727,3.3059,-0.00954152,0.344032,1.03291
29,1725,3.30476,-0.011755,0.344697,1.03368
31,1723,3.30486,-0.0118621,0.343548,1.03377
33,1721,3.30529,-0.0113039,0.343794,1.03429
35,1719,3.30574,-0.0112995,0.343342,1.03446
37,1717,3.30637,-0.0107123,0.342895,1.035
39,1715,3.30678,-0.0106978,0.34245,1.03517
41,1713,3.30655,-0.0107471,0.34245,1.03515
43,1711,3.30683,-0.0101739,0.342717,1.03567
45,1709,3.30773,-0.0101452,0.341562,1.03588
47,1707,3.30724,-0.0101726,0.341562,1.03586
49,1705,3.30773,-0.0100192,0.341478,1.03611
51,1703,3.30787,-0.0100962,0.340677,1.03623
53,1701,3.30799,-0.0101043,0.34068,1.03624
55,1699,3.30797,-0.0106308,0.340675,1.03588
57,1697,3.30787,-0.0106667,0.340667,1.03584
59,1695,3.30812,-0.0106251,0.340225,1.03603
61,1693,3.30834,-0.0106358,0.340221,1.03602
63,1691,3.30856,-0.0105723,0.339869,1.03623
65,1689,3.30785,-0.0106625,0.340222,1.03602
67,1687,3.30831,-0.0106807,0.339783,1.03617
69,1685,3.30862,-0.0110988,0.339783,1.03589
71,1683,3.30809,-0.0111715,0.340493,1.03586
73,1681,3.30795,-0.0117782,0.339789,1.03548
75,1679,3.30834,-0.0117473,0.339792,1.03552
77,1677,3.30987,-0.00943691,0.33868,1.03498
79,1675,3.30965,-0.00951385,0.338772,1.03491
81,1673,3.30961,-0.00952253,0.338672,1.03492
83,1671,3.30965,-0.00951308,0.338668,1.03492
85,1669,3.30959,-0.0100547,0.338663,1.03456
87,1667,3.30938,-0.0101006,0.338666,1.03453
89,1665,3.30946,-0.010099,0.338668,1.03454
91,1663,3.30947,-0.0106583,0.338669,1.03419
93,1661,3.30917,-0.0106429,0.338672,1.0342
95,1659,3.30904,-0.0106464,0.338681,1.03423
97,1657,3.30942,-0.0111242,0.338676,1.03391
99,1655,3.30901,-0.0111267,0.33867,1.0339
101,1653,3.30839,-0.0112973,0.339107,1.03362
103,1651,3.30923,-0.0117213,0.338669,1.03352
105,1649,3.30893,-0.0116967,0.338666,1.03351
107,1647,3.30869,-0.011737,0.338667,1.03349
109,1645,3.31037,-0.00892061,0.337655,1.03328
111,1643,3.3103,-0.00950996,0.337989,1.03274
113,1641,3.30994,-0.00956338,0.337994,1.03273
115,1639,3.30944,-0.0101454,0.338435,1.03219
117,1637,3.30998,-0.0100833,0.337998,1.0324
119,1635,3.30987,-0.0100953,0.337999,1.0324
121,1633,3.30942,-0.0106766,0.338431,1.03185
123,1631,3.3092,-0.010696,0.338428,1.03183
125,1629,3.30984,-0.0106082,0.337989,1.03203
127,1627,3.30927,-0.0111485,0.338424,1.03153
129,1625,3.30856,-0.0113043,0.338862,1.03126
131,1623,3.30918,-0.0112559,0.338428,1.03147
133,1621,3.30915,-0.0117381,0.338427,1.03115
135,1619,3.30846,-0.0118649,0.338967,1.03092
137,1617,3.31065,-0.00893248,0.337323,1.03095
139,1615,3.3105,-0.00949875,0.337769,1.03045
141,1613,3.31014,-0.00953494,0.337769,1.03043
143,1611,3.31011,-0.00955598,0.337768,1.03041
145,1609,3.31031,-0.0100897,0.337769,1.03007
147,1607,3.3101,-0.0100868,0.337769,1.03007
149,1605,3.30993,-0.0100946,0.337767,1.03032
151,1603,3.30946,-0.0106792,0.338207,1.02951
153,1601,3.30966,-0.0106823,0.338208,1.02954
155,1599,3.30949,-0.0106578,0.338207,1.02956
157,1597,3.30892,-0.0112773,0.33865,1.02899
159,1595,3.30954,-0.0112437,0.33892,1.02919
161,1593,3.30922,-0.0112321,0.338649,1.02904
163,1591,3.30912,-0.0118005,0.338649,1.02866
165,1589,3.30848,-0.0118834,0.339091,1.02845
167,1587,3.30899,-0.0117862,0.33865,1.02869
169,1585,3.31007,-0.0095443,0.337978,1.02792
171,1583,3.30962,-0.00964953,0.338416,1.02768
173,1581,3.30992,-0.00955276,0.337976,1.02792
175,1579,3.30995,-0.00955089,0.337979,1.02792
177,1577,3.30989,-0.0100568,0.338075,1.02759
179,1575,3.30931,-0.0101672,0.338416,1.02601
181,1573,3.30986,-0.0100907,0.337979,1.02757
183,1571,3.30941,-0.0107134,0.338419,1.027
185,1569,3.30921,-0.0107271,0.338412,1.02697
187,1567,3.3091,-0.01082,0.337712,1.02691
189,1565,3.30933,-0.0107094,0.338412,1.02699
191,1563,3.30878,-0.0113121,0.338854,1.02646
193,1561,3.30853,-0.0114038,0.338954,1.02638
195,1559,3.30914,-0.0112573,0.338412,1.02665
197,1557,3.3087,-0.0118531,0.338854,1.0261
199,1555,3.30848,-0.0118966,0.338852,1.02606
201,1553,3.30832,-0.0119093,0.338495,1.02606
203,1551,3.31014,-0.00897212,0.33774,1.02591
205,1549,3.30975,-0.00967965,0.338181,1.0253
207,1547,3.30951,-0.00965416,0.338182,1.02531
209,1545,3.30966,-0.00958896,0.338183,1.02537
211,1543,3.3097,-0.0101424,0.338179,1.02499
213,1541,3.30942,-0.0101658,0.338177,1.02498
215,1539,3.30887,-0.0102483,0.33863,1.02475
217,1537,3.30942,-0.0101372,0.338165,1.02493
219,1535,3.30896,-0.0107994,0.338603,1.02435
221,1533,3.30857,-0.0102638,0.338954,1.02464
223,1531,3.30882,-0.0107942,0.338595,1.02432
225,1529,3.30866,-0.0107427,0.33859,1.02433
227,1527,3.30879,-0.0107648,0.338579,1.0243
229,1525,3.30779,-0.0108944,0.339463,1.02386
231,1523,3.30856,-0.0112228,0.339019,1.02384
233,1521,3.308,-0.0114197,0.339108,1.0237
235,1519,3.30792,-0.0114022,0.339026,1.02373
237,1517,3.3075,-0.0120396,0.339468,1.02316
239,1515,3.30793,-0.0119118,0.339104,1.02339
241,1513,3.30773,-0.0119152,0.339019,1.02338
243,1511,3.30709,-0.0120461,0.339465,1.02314
245,1509,3.309,-0.00977901,0.338431,1.02254
247,1507,3.30904,-0.00968104,0.338349,1.02261
249,1505,3.30884,-0.0102886,0.338353,1.02224
251,1503,3.30821,-0.0103967,0.338806,1.02203
253,1501,3.308935,-0.0102616,0.338365,1.0223
255,1499,3.3089,-0.0107827,0.338358,1.02173
257,1497,3.30816,-0.0108979,0.3388,1.0217
259,1495,3.30861,-0.0108467,0.338351,1.02188
261,1493,3.30867,-0.0108194,0.338348,1.02189
263,1491,3.30814,-0.0114445,0.338791,1.02133
265,1489,3.30758,-0.0115281,0.339599,1.02111
267,1487,3.30796,-0.0114428,0.338791,1.02133
269,1485,3.30745,-0.0115338,0.33924,1.02112
271,1483,3.30785,-0.011958,0.338796,1.02102
273,1481,3.30757,-0.012016,0.338805,1.021
275,1479,3.30924,-0.00977545,0.338495,1.02024
277,1477,3.30918,-0.00972409,0.338135,1.02025
279,1475,3.30888,-0.00972111,0.338134,1.02026
281,1473,3.3087,-0.00976745,0.338128,1.02022
283,1471,3.309,-0.00970696,0.338128,1.02024
285,1469,3.30889,-0.0102285,0.33812,1.0199
287,1467,3.30824,-0.0103982,0.338567,1.01962
289,1465,3.30828,-0.0103359,0.338565,1.01966
291,1463,3.30878,-0.0102608,0.33812,1.01988
293,1461,3.30817,-0.0109272,0.338574,1.01932
295,1459,3.30809,-0.0108934,0.338576,1.01933
297,1457,3.30834,-0.0114925,0.338682,1.01899
299,1455,3.30771,-0.0115237,0.339029,1.01879
301,1453,3.30755,-0.0115216,0.339109,1.01879
303,1451,3.30737,-0.0116009,0.339026,1.01874
305,1449,3.30793,-0.0114497,0.338575,1.01899
307,1447,3.30756,-0.0120041,0.339021,1.01846
309,1445,3.30726,-0.0120767,0.339019,1.01841
311,1443,3.30711,-0.0120848,0.339019,1.0184
313,1441,3.30738,-0.0120417,0.339015,1.01843
315,1439,3.30869,-0.00983594,0.338353,1.01629
317,1437,3.30834,-0.00987749,0.338363,1.01789
319,1435,3.30878,-0.0103442,0.338364,1.01736
321,1433,3.30863,-0.010174,0.338366,1.01748
323,1431,3.30842,-0.0103454,0.338268,1.01736
325,1429,3.30822,-0.0103514,0.338361,1.01734
327,1427,3.30843,-0.01087,0.33836,1.01702
329,1425,3.30791,-0.0109753,0.338804,1.0167
331,1423,3.30779,-0.0109306,0.338803,1.01679
333,1421,3.30759,-0.0109548,0.338799,1.01677
335,1419,3.30772,-0.010964,0.338806,1.01678
337,1417,3.30736,-0.0116365,0.339973,1.01618
339,1415,3.30716,-0.0116467,0.339262,1.0162
341,1413,3.30752,-0.0115624,0.339179,1.01643
343,1411,3.30746,-0.012163,0.339274,1.01591
345,1409,3.30754,-0.0120552,0.33882,1.01613
347,1407,3.30649,-0.0122512,0.339721,1.01567
349,1405,3.30859,-0.009816,0.338599,1.01517
351,1403,3.30885,-0.00974125,0.338149,1.01537
353,1401,3.30853,-0.00976105,0.338145,1.01535
355,1399,3.3081,-0.00986163,0.338592,1.01512
357,1397,3.30855,-0.00978476,0.338142,1.01534
359,1395,3.30825,-0.0103943,0.338591,1.01477
361,1393,3.30809,-0.0104063,0.338602,1.0148
363,1391,3.3079,-0.0104174,0.338606,1.01479
365,1389,3.30784,-0.01104,0.339062,1.01426
367,1387,3.30775,-0.0110328,0.339064,1.01427
369,1385,3.30743,-0.0110362,0.338716,1.01426
371,1383,3.30733,-0.0110573,0.339062,1.01425
373,1381,3.30777,-0.0115553,0.339059,1.01392
375,1379,3.3075,-0.0115141,0.339046,1.01375
377,1377,3.30677,-0.0116471,0.339503,1.01368
379,1375,3.30713,-0.0116048,0.339048,1.01387
381,1373,3.30727,-0.0115617,0.339045,1.01388
383,1371,3.30676,-0.0121906,0.339505,1.01334
385,1369,3.30668,-0.0122766,0.339516,1.01332
387,1367,3.30861,-0.00983539,0.338399,1.01282
389,1365,3.30824,-0.00988576,0.338853,1.01264
391,1363,3.30838,-0.00982781,0.338399,1.01284
393,1361,3.30787,-0.00989086,0.338855,1.01263
395,1359,3.30803,-0.0104049,0.338854,1.01231
397,1357,3.30814,-0.0104921,0.338854,1.01225
399,1355,3.30788,-0.0104012,0.338852,1.01231
401,1353,3.30729,-0.0105348,0.339307,1.01206
403,1351,3.30763,-0.0104664,0.338849,1.01226
405,1349,3.30738,-0.0110037,0.339303,1.01175
407,1347,3.30765,-0.0110041,0.338851,1.01167
409,1345,3.30713,-0.0111294,0.339411,1.0117
411,1343,3.30731,-0.0111121,0.339316,1.01172
413,1341,3.30737,-0.0115819,0.339322,1.01144
415,1339,3.30715,-0.0115789,0.33936,1.01144
417,1337,3.30643,-0.0117044,0.339764,1.01117
419,1335,3.30688,-0.0116126,0.339303,1.01137
421,1333,3.30694,-0.0116412,0.339302,1.01136
423,1331,3.30681,-0.0121719,0.339299,1.01101
425,1329,3.30619,-0.0122484,0.339836,1.01078
427,1327,3.30672,-0.0123098,0.339302,1.01092
429,1325,3.30624,-0.0122401,0.339753,1.01078
431,1323,3.30807,-0.00994064,0.338638,1.01021
433,1321,3.30736,-0.0100279,0.339094,1.00999
435,1319,3.30799,-0.0099186,0.338636,1.01023
437,1317,3.30785,-0.00988201,0.338636,1.01023
439,1315,3.30737,-0.0105317,0.339088,1.00965
441,1313,3.30725,-0.0105679,0.339085,1.00962
443,1311,3.30737,-0.0105027,0.339083,1.00966
445,1309,3.30724,-0.0105583,0.339083,1.00961
447,1307,3.30707,-0.0105407,0.339085,1.00963
449,1305,3.30667,-0.0111826,0.339535,1.00905
451,1303,3.30716,-0.0111297,0.339076,1.00925
453,1301,3.30658,-0.0111621,0.33964,1.00907
455,1299,3.30654,-0.0117532,0.339546,1.00874
457,1297,3.30636,-0.0117815,0.33955,1.00872
459,1295,3.30662,-0.0117409,0.33955,1.00876
461,1293,3.30646,-0.0116983,0.33955,1.00879
463,1291,3.30639,-0.0122764,0.339626,1.0084
465,1289,3.30574,-0.012366,0.340002,1.00817
467,1287,3.30629,-0.0122868,0.339543,1.0084
469,1285,3.30604,-0.012259,0.339536,1.00839
471,1283,3.30779,-0.00932397,0.338413,1.00817
473,1281,3.3073,-0.00999787,0.338873,1.00758
475,1279,3.30747,-0.0100522,0.338874,1.00756
477,1277,3.30746,-0.00995932,0.338882,1.00764
479,1275,3.30743,-0.0105093,0.338883,1.00731
481,1273,3.30677,-0.0106404,0.339346,1.00707
483,1271,3.3074,-0.010503,0.338888,1.00733
485,1269,3.30708,-0.0111523,0.339973,1.00677
487,1267,3.30666,-0.0111032,0.339706,1.00678
489,1265,3.30652,-0.0111746,0.339338,1.0067
491,1263,3.30697,-0.0110405,0.338876,1.00695
493,1261,3.30652,-0.0112153,0.339697,1.00668
495,1259,3.30636,-0.0111746,0.339328,1.0067
497,1257,3.30592,-0.011848,0.339784,1.00609
499,1255,3.30636,-0.0117931,0.339325,1.00629
501,1253,3.3064,-0.0117695,0.339336,1.00633
503,1251,3.30593,-0.0123642,0.339801,1.00584
505,1249,3.30559,-0.0124393,0.339804,1.00578
507,1247,3.30594,-0.0123896,0.339808,1.00583
509,1245,3.30768,-0.00938682,0.339402,1.00565
511,1243,3.30752,-0.00994054,0.338675,1.00528
513,1241,3.30691,-0.0100074,0.339132,1.00505
515,1239,3.30731,-0.00996812,0.338671,1.0055
517,1237,3.3069,-0.0100806,0.339132,1.00501
519,1235,3.30691,-0.0105989,0.339131,1.00468
521,1233,3.30665,-0.0106123,0.339131,1.00467
523,1231,3.30671,-0.0106791,0.339137,1.00465
525,1229,3.30692,-0.0106017,0.339148,1.00472
527,1227,3.30634,-0.0111626,0.339613,1.00425
529,1225,3.30615,-0.011226,0.339719,1.0042
531,1223,3.30623,-0.0111725,0.339617,1.00425
533,1221,3.30596,-0.0117867,0.340082,1.00371
535,1219,3.3061,-0.011744,0.339617,1.0039
537,1217,3.30567,-0.0118032,0.340807,1.00369
539,1215,3.30541,-0.011798,0.340081,1.00371
541,1213,3.30632,-0.0117209,0.339617,1.00391
543,1211,3.30565,-0.012403,0.340083,1.00332
545,1209,3.3053,-0.0123799,0.340083,1.00334
547,1207,3.30543,-0.0124072,0.340085,1.00334
549,1205,3.30742,-0.00994102,0.339061,1.00282
551,1203,3.30674,-0.0100251,0.339425,1.0026
553,1201,3.3072,-0.00990847,0.338967,1.00285
555,1199,3.30671,-0.0105853,0.33943,1.00226
557,1197,3.30673,-0.0105531,0.339435,1.0023
559,1195,3.3068,-0.0105215,0.339435,1.00259
561,1193,3.30704,-0.0104567,0.338971,1.00254
563,1191,3.30587,-0.0112555,0.339901,1.00169
565,1189,3.30651,-0.0111583,0.339434,1.00192
567,1187,3.30631,-0.0111546,0.339436,1.00193
569,1185,3.30614,-0.0111614,0.33943,1.00192
571,1183,3.3053,-0.0118984,0.34037,1.00115
573,1181,3.30581,-0.0118201,0.339902,1.00137
575,1179,3.3057,-0.0117895,0.3399,1.00138
577,1177,3.30562,-0.0118187,0.340624,1.00135
579,1175,3.30519,-0.0124456,0.340364,1.00079
581,1173,3.30525,-0.0124524,0.339898,1.00096
583,1171,3.3055,-0.0123577,0.339893,1.00101
585,1169,3.30669,-0.00948925,0.339232,1.00056
587,1167,3.3066,-0.0100389,0.339229,1.00021
589,1165,3.30645,-0.010064,0.339227,1.00019
591,1163,3.30645,-0.0100303,0.339227,1.00021
593,1161,3.3065,-0.010073,0.339224,1.00018
595,1159,3.30639,-0.0106087,0.339226,0.999854
597,1157,3.30569,-0.0107079,0.339692,0.999626
599,1155,3.30637,-0.0106273,0.339231,0.999861
601,1153,3.30604,-0.0112707,0.340059,0.999292
603,1151,3.30574,-0.0113003,0.339697,0.999251
605,1149,3.30554,-0.0112582,0.339692,0.999277
607,1147,3.30551,-0.011279,0.339689,0.999271
609,1145,3.30572,-0.0118394,0.339624,0.999055
611,1143,3.30548,-0.0118351,0.339687,0.998921
613,1141,3.30488,-0.0119379,0.340155,0.998699
615,1139,3.30523,-0.0118625,0.339684,0.998896
617,1137,3.305088,-0.0125378,0.340254,0.998322
619,1135,3.30485,-0.0124979,0.340155,0.998346
621,1133,3.30459,-0.0125469,0.340154,0.998321
623,1131,3.30648,-0.0100657,0.339027,0.997786
625,1129,3.30675,-0.0100586,0.339031,0.997803
627,1127,3.30648,-0.0100672,0.33903,0.99779
629,1125,3.30642,-0.0105699,0.339029,0.997491
631,1123,3.30575,-0.0107465,0.339496,0.997195
633,1121,3.30596,-0.0106517,0.339496,0.997267
635,1119,3.30585,-0.0106719,0.339596,0.997252
637,1117,3.30564,-0.0113339,0.339496,0.996844
639,1115,3.30499,-0.011406,0.339965,0.996638
641,1113,3.30511,-0.0113922,0.340065,0.996648
643,1111,3.3055,-0.011371,0.339967,0.996666
645,1109,3.30529,-0.0119486,0.339975,0.996342
647,1107,3.30501,-0.0119432,0.339974,0.996341
649,1105,3.3046,-0.0125685,0.340447,0.995797
651,1103,3.30518,-0.0124589,0.339977,0.99603
653,1101,3.30468,-0.0125642,0.340449,0.99581
655,1099,3.30638,-0.0101303,0.339317,0.99523
657,1097,3.30558,-0.0101486,0.339784,0.993608
659,1095,3.30604,-0.0101768,0.339316,0.995189
661,1093,3.30617,-0.0101006,0.339315,0.995241
663,1091,3.3059,-0.010711,0.339313,0.994857
665,1089,3.30519,-0.010801,0.339781,0.994622
667,1087,3.30547,-0.0107237,0.3393,0.994813
669,1085,3.30562,-0.0107688,0.339303,0.994799
671,1083,3.30524,-0.0114006,0.33977,0.994237
673,1081,3.305,-0.0113743,0.339769,0.994249
675,1079,3.30485,-0.0114476,0.339776,0.992717
677,1077,3.30502,-0.011956,0.339778,0.993926
679,1075,3.3046,-0.0120674,0.340251,0.993689
681,1073,3.30472,-0.0119566,0.339773,0.99391
683,1071,3.30413,-0.0125886,0.340246,0.993349
685,1069,3.30422,-0.0126459,0.34061,0.993319
687,1067,3.3047,-0.0125209,0.339771,0.993561
689,1065,3.30578,-0.00960406,0.339115,0.993108
691,1063,3.30547,-0.0102691,0.339583,0.992535
693,1061,3.30529,-0.0103199,0.339592,0.992523
695,1059,3.30576,-0.0102403,0.339114,0.992727
697,1057,3.30544,-0.010814,0.339591,0.992216
699,1055,3.30513,-0.0108793,0.339597,0.99365
701,1053,3.30507,-0.0107643,0.339597,0.99226
703,1051,3.30499,-0.0113038,0.33969,0.991918
705,1049,3.30521,-0.0114079,0.339591,0.990431
707,1047,3.30507,-0.0113759,0.339585,0.991862
709,1045,3.30436,-0.0120717,0.34006,0.991273
711,1043,3.30425,-0.0120623,0.340058,0.991276
713,1041,3.30516,-0.0119259,0.339584,0.991532
715,1039,3.30415,-0.0120696,0.340054,0.991259
717,1037,3.30409,-0.0126333,0.340054,0.990915
719,1035,3.30333,-0.0127304,0.340532,0.990694
721,1033,3.30566,-0.00964574,0.339292,0.990681
723,1031,3.30543,-0.0103138,0.3394,0.988816
725,1029,3.30521,-0.0102899,0.339399,0.990126
727,1027,3.30514,-0.0102585,0.339395,0.990136
729,1025,3.30493,-0.0108357,0.33939,0.989751
731,1023,3.30497,-0.0109337,0.339387,0.989669
733,1021,3.30503,-0.0109116,0.339387,0.989684
735,1019,3.30444,-0.0115147,0.339856,0.989138
737,1017,3.30431,-0.0116,0.339858,0.989087
739,1015,3.30424,-0.0115846,0.339867,0.989134
741,1013,3.30442,-0.0120714,0.339871,0.988869
743,1011,3.3043,-0.0121517,0.339877,0.988827
745,1009,3.30369,-0.0127115,0.340358,0.988339
747,1007,3.30352,-0.0127325,0.341082,0.987898
749,1005,3.30379,-0.0126594,0.339868,0.988502
751,1003,3.30529,-0.00972387,0.33921,0.988033
753,1001,3.30529,-0.0102759,0.339204,0.987739
755,999,3.30499,-0.0103396,0.339204,0.987632
757,997,3.30478,-0.010372,0.339193,0.987579
759,995,3.30466,-0.0110381,0.339673,0.987023
761,993,3.30452,-0.0110421,0.339676,0.987016
763,991,3.30484,-0.0109066,0.3392,0.987274
765,989,3.3043,-0.0115273,0.339688,0.98678
767,987,3.30415,-0.0115704,0.33969,0.986771
769,985,3.3045,-0.012088,0.339696,0.986468
771,983,3.30416,-0.0120429,0.339688,0.986468
773,981,3.30377,-0.0127727,0.340168,0.985881
775,979,3.30345,-0.0127603,0.340168,0.985873
777,977,3.30336,-0.0127756,0.340167,0.985859
779,975,3.30353,-0.0127067,0.340165,0.985897
781,973,3.30486,-0.0103801,0.339508,0.985044
783,971,3.30454,-0.0104056,0.339506,0.98504
785,969,3.30455,-0.0103658,0.339505,0.985049
787,967,3.30454,-0.0109819,0.339511,0.984693
789,965,3.30455,-0.0109333,0.339589,0.984732
791,963,3.30406,-0.011567,0.339993,0.984199
793,961,3.30373,-0.0115935,0.339995,0.984177
795,959,3.30368,-0.0115643,0.339995,0.984207
797,957,3.30385,-0.0121776,0.339995,0.983839
799,955,3.30372,-0.0121871,0.339993,0.983821
801,953,3.30318,-0.0128405,0.340475,0.98352
803,951,3.30284,-0.0128567,0.340472,0.983236
805,949,3.30286,-0.0128468,0.340473,0.98325
807,947,3.30517,-0.00966041,0.338854,0.983259
809,945,3.30467,-0.0103254,0.33934,0.982694
811,943,3.30449,-0.0103455,0.339336,0.98268
813,941,3.30384,-0.0104103,0.339819,0.982477
815,939,3.30385,-0.0110836,0.339818,0.98207
817,937,3.30451,-0.010927,0.340077,0.98235
819,935,3.30359,-0.0109978,0.339824,0.982124
821,933,3.30357,-0.0115453,0.33982,0.9818
823,931,3.30298,-0.0116668,0.340307,0.981568
825,929,3.30297,-0.0123134,0.340305,0.981173
827,927,3.30352,-0.0122297,0.339819,0.981385
829,925,3.30278,-0.0122563,0.340301,0.981192
831,923,3.30282,-0.0129055,0.340299,0.980808
833,921,3.30249,-0.0128841,0.3403,0.98081
835,919,3.30183,-0.0130786,0.340803,0.980514
837,917,3.304386,-0.00987286,0.339159,0.9805
839,915,3.3038,-0.0105215,0.339644,0.979975
841,913,3.30411,-0.0104243,0.339162,0.980213
843,911,3.30308,-0.0111548,0.340131,0.979429
845,909,3.30337,-0.0111474,0.339648,0.978298
847,907,3.30327,-0.0116748,0.340134,0.979147
849,905,3.30309,-0.0117009,0.340133,0.979126
851,903,3.30281,-0.0117703,0.34087,0.978859
853,901,3.30233,-0.0124665,0.340617,0.97848
855,899,3.30204,-0.0124514,0.340615,0.978478
857,897,3.30269,-0.0123414,0.340127,0.978706
859,895,3.30211,-0.0130575,0.340615,0.978109
861,893,3.3038,-0.00999172,0.339478,0.977858
863,891,3.30334,-0.0105739,0.339973,0.977375
865,889,3.30309,-0.0111334,0.339978,0.97706
867,887,3.30375,-0.0110602,0.339867,0.977303
869,885,3.30321,-0.0111172,0.339937,0.977081
871,883,3.30303,-0.0117346,0.339973,0.976693
873,881,3.30235,-0.0117809,0.34046,0.976496
875,879,3.30208,-0.0118482,0.340459,0.976458
877,877,3.30223,-0.01244,0.340456,0.976099
879,875,3.3023,-0.0124195,0.340455,0.976112
881,873,3.30201,-0.0124872,0.340454,0.976046
883,871,3.30191,-0.013045,0.340453,0.975721
885,869,3.3011,-0.013064,0.341035,0.975418
887,867,3.30303,-0.0100864,0.339804,0.975225
889,865,3.30378,-0.0103964,0.339317,0.975229
891,863,3.3031,-0.0105919,0.339811,0.974955
893,861,3.30301,-0.0111651,0.339808,0.974618
895,859,3.30231,-0.0112823,0.3403,0.974377
897,857,3.30226,-0.0118312,0.340294,0.974021
899,855,3.30232,-0.0118763,0.340295,0.974012
901,853,3.30217,-0.0118353,0.340294,0.97403
903,851,3.30208,-0.0124088,0.340292,0.973679
905,849,3.3017,-0.0124553,0.340291,0.973635
907,847,3.30129,-0.0132059,0.34078,0.973026
909,845,3.3012,-0.0132201,0.340782,0.973268
911,843,3.30114,-0.0131346,0.340776,0.973052
913,841,3.30303,-0.0105908,0.339635,0.972718
915,839,3.30274,-0.0105433,0.339643,0.972532
917,837,3.30204,-0.0107303,0.340131,0.972219
919,835,3.3021,-0.0113459,0.340134,0.97186
921,833,3.30226,-0.0118081,0.340137,0.971878
923,831,3.30212,-0.0118439,0.340136,0.971604
925,829,3.30167,-0.0125117,0.340612,0.971055
927,827,3.30124,-0.0125282,0.340632,0.971038
929,825,3.30108,-0.0125316,0.340633,0.97103
931,823,3.30103,-0.0131566,0.340634,0.970665
933,821,3.30118,-0.0131455,0.340735,0.970672
935,819,3.30257,-0.0106921,0.339994,0.969762
937,817,3.30233,-0.0106559,0.339997,0.969928
939,815,3.30183,-0.0113015,0.340496,0.969371
941,813,3.3016,-0.0112781,0.340496,0.969399
943,811,3.30179,-0.011928,0.34057,0.969019
945,809,3.30172,-0.0119495,0.340494,0.968993
947,807,3.30157,-0.0125684,0.34049,0.968607
949,805,3.30138,-0.0125234,0.340483,0.968626
951,803,3.30053,-0.0126155,0.341731,0.967067
953,801,3.30053,-0.013266,0.340976,0.968006
955,799,3.30093,-0.0131993,0.340482,0.968224
957,797,3.30226,-0.010085,0.339832,0.967787
959,795,3.30211,-0.0105617,0.339834,0.967502
961,793,3.30167,-0.0113629,0.340342,0.966886
963,791,3.30146,-0.0113411,0.340347,0.966917
965,789,3.30145,-0.0119466,0.340345,0.966562
967,787,3.30149,-0.012005,0.340346,0.966533
969,785,3.30107,-0.0126276,0.340844,0.966007
971,783,3.3007,-0.0126357,0.340841,0.965986
973,781,3.30093,-0.0125582,0.340336,0.96618
975,779,3.29985,-0.0133464,0.341331,0.965619
977,777,3.3001,-0.0133392,0.3409,0.965531
979,775,3.30208,-0.0100884,0.33968,0.965345
981,773,3.30147,-0.0107474,0.34018,0.964774
983,771,3.30139,-0.0107758,0.340176,0.964745
985,769,3.30069,-0.0115298,0.340678,0.964133
987,767,3.3009,-0.0114366,0.340177,0.96435
989,765,3.3005,-0.0121349,0.34068,0.963798
991,763,3.30052,-0.0121703,0.340681,0.963782
993,761,3.3006,-0.0126919,0.34068,0.963461
995,759,3.29978,-0.012811,0.341181,0.963215
997,757,3.29965,-0.0135243,0.341177,0.962794
999,755,3.29933,-0.0134481,0.341177,0.962825
1001,753,3.30124,-0.0108639,0.340024,0.962216
1003,751,3.30115,-0.0108773,0.340774,0.962211
1005,749,3.30107,-0.0108918,0.34002,0.962184
1007,747,3.30056,-0.0115624,0.340524,0.96164
1009,745,3.30029,-0.0115767,0.340519,0.96162
1011,743,3.30021,-0.0121978,0.340522,0.961231
1013,741,3.29954,-0.0129235,0.34103,0.960668
1015,739,3.29952,-0.0129058,0.34104,0.960721
1017,737,3.29968,-0.0134362,0.341043,0.960427
1019,735,3.30147,-0.0101655,0.339893,0.96021
1021,733,3.30089,-0.0109251,0.340773,0.958151
1023,731,3.30042,-0.0109209,0.340394,0.959593
1025,729,3.29992,-0.0116072,0.340893,0.958995
1027,727,3.30006,-0.0115588,0.340387,0.959189
1029,725,3.29973,-0.0123529,0.340892,0.958565
1031,723,3.3002,-0.0122111,0.340385,0.958814
1033,721,3.2992,-0.0129887,0.341403,0.958033
1035,719,3.29936,-0.0129056,0.340894,0.958248
1037,717,3.29861,-0.0136118,0.341407,0.956332
1039,715,3.29991,-0.0104189,0.340771,0.957261
1041,713,3.29984,-0.0110112,0.340774,0.956936
1043,711,3.29999,-0.0116432,0.340773,0.956579
1045,709,3.29992,-0.0115848,0.341528,0.956615
1047,707,3.29983,-0.0122496,0.340773,0.956216
1049,705,3.29948,-0.0122296,0.340773,0.95623
1051,703,3.29871,-0.0129822,0.341281,0.955611
1053,701,3.29858,-0.0129613,0.342035,0.955402
1055,699,3.29795,-0.0136862,0.341793,0.955038
1057,697,3.30033,-0.0103042,0.340129,0.955044
1059,695,3.29996,-0.0110094,0.340641,0.954474
1061,693,3.29983,-0.0110321,0.340643,0.954472
1063,691,3.29951,-0.0116149,0.340643,0.954128
1065,689,3.29894,-0.0123864,0.341156,0.953545
1067,687,3.29864,-0.0123702,0.341157,0.953531
1069,685,3.29797,-0.0130944,0.341672,0.952958
1071,683,3.29834,-0.0129842,0.341158,0.953184
1073,681,3.29776,-0.0136647,0.341672,0.952627
1075,679,3.29981,-0.0103728,0.340522,0.95242
1077,677,3.2996,-0.0109637,0.340521,0.952068
1079,675,3.29908,-0.0117371,0.341038,0.951473
1081,673,3.29867,-0.0117285,0.341039,0.951482
1083,671,3.29809,-0.0123829,0.341556,0.950927
1085,669,3.29784,-0.0124413,0.341657,0.950897
1087,667,3.29776,-0.0131253,0.341554,0.950498
1089,665,3.29793,-0.0136862,0.341553,0.950182
1091,663,3.2972,-0.0138205,0.342075,0.949939
1093,661,3.29922,-0.0111078,0.340926,0.949375
1095,659,3.29885,-0.0110789,0.341295,0.949392
1097,657,3.29871,-0.0116917,0.340923,0.949038
1099,655,3.29762,-0.0125123,0.341957,0.948224
1101,653,3.29777,-0.0124226,0.341442,0.948456
1103,651,3.29717,-0.0131848,0.341963,0.947858
1105,649,3.29768,-0.0131124,0.34144,0.94805
1107,647,3.29711,-0.0137988,0.341962,0.947491
1109,645,3.29858,-0.0112214,0.341326,0.946678
1111,643,3.29875,-0.0110957,0.340802,0.94716
1113,641,3.2979,-0.0119133,0.341324,0.94628
1115,639,3.29735,-0.0125839,0.342611,0.945533
1117,637,3.29705,-0.0126246,0.341851,0.945706
1119,635,3.29683,-0.0132019,0.341855,0.945397
1121,633,3.29639,-0.0139763,0.342384,0.944804
1123,631,3.29883,-0.0104638,0.340702,0.944844
1125,629,3.29828,-0.0112317,0.341226,0.94423
1127,627,3.29814,-0.0118279,0.341223,0.943881
1129,625,3.29715,-0.0119866,0.341746,0.943623
1131,623,3.29712,-0.0125544,0.341708,0.943293
1133,621,3.29629,-0.0133353,0.342271,0.942687
1135,619,3.29608,-0.0132962,0.342271,0.942707
1137,617,3.29572,-0.0139748,0.342273,0.942315
1139,615,3.29744,-0.0113356,0.341643,0.941519
1141,613,3.29777,-0.0112113,0.341111,0.941751
1143,611,3.29723,-0.0119535,0.341644,0.94118
1145,609,3.29674,-0.0126893,0.342172,0.940592
1147,607,3.29635,-0.01328,0.342173,0.940258
1149,605,3.2961,-0.0133265,0.342174,0.940239
1151,603,3.29584,-0.01395,0.342133,0.939872
1153,601,3.29721,-0.0113205,0.341542,0.939059
1155,599,3.29696,-0.0112866,0.341543,0.939078
1157,597,3.29613,-0.0120582,0.342074,0.938464
1159,595,3.29616,-0.0127507,0.342075,0.938087
1161,593,3.29549,-0.0134637,0.342608,0.937519
1163,591,3.29583,-0.0133859,0.342072,0.937723
1165,589,3.29528,-0.0141632,0.342707,0.937118
1167,587,3.29715,-0.0113374,0.341447,0.936572
1169,585,3.29655,-0.0120989,0.341982,0.935982
1171,583,3.29612,-0.0121091,0.342037,0.93595
1173,581,3.2957,-0.012756,0.341967,0.935574
1175,579,3.29504,-0.0135328,0.342507,0.934987
1177,577,3.29438,-0.0142585,0.343043,0.934405
1179,575,3.29661,-0.0107327,0.341346,0.93466
1181,573,3.29574,-0.0114475,0.341875,0.933819
1183,571,3.29516,-0.0122715,0.342414,0.933197
1185,569,3.29499,-0.0129001,0.34241,0.932832
1187,567,3.29483,-0.0129241,0.34241,0.93283
1189,565,3.29462,-0.0135462,0.342408,0.932468
1191,563,3.2942,-0.0143395,0.342945,0.931856
1193,561,3.29587,-0.0108486,0.341785,0.931662
1195,559,3.29579,-0.011517,0.341708,0.931296
1197,557,3.295,-0.0122597,0.342432,0.930712
1199,555,3.2949,-0.0129199,0.342328,0.930341
1201,553,3.29405,-0.0136537,0.342875,0.929776
1203,551,3.29382,-0.0142962,0.342873,0.929423
1205,549,3.29513,-0.0116102,0.342243,0.92859
1207,547,3.29446,-0.0123105,0.342789,0.928017
1209,545,3.29396,-0.0123354,0.342785,0.92798
1211,543,3.29366,-0.0130809,0.342781,0.92755
1213,541,3.29294,-0.013874,0.343329,0.926934
1215,539,3.29279,-0.014519,0.343319,0.926565
1217,537,3.2946,-0.0117337,0.342147,0.925936
1219,535,3.29445,-0.0117097,0.342146,0.925948
1221,533,3.29377,-0.0124788,0.342691,0.92536
1223,531,3.29362,-0.0131578,0.342693,0.923691
1225,529,3.29289,-0.0139663,0.343244,0.924373
1227,527,3.29295,-0.0128124,0.342761,0.923923
1229,525,3.29431,-0.0100925,0.342079,0.923113
1231,523,3.2937,-0.0177755,0.342088,0.922793
1233,521,3.29296,-0.0186046,0.343392,0.922157
1235,519,3.29288,-0.0174425,0.342071,0.921691
1237,517,3.29174,-0.0200479,0.343172,0.921177
1239,515,3.29406,-0.013617,0.340902,0.920395
1241,513,3.29374,-0.01428,0.341002,0.920014
1243,511,3.29286,-0.0150619,0.341447,0.919421
1245,509,3.2926,-0.0156651,0.341443,0.919065
1247,507,3.29201,-0.0146463,0.341443,0.918369
1249,505,3.29367,-0.0112013,0.340279,0.918112
1251,503,3.29288,-0.0119756,0.340827,0.917513
1253,501,3.29295,-0.0108017,0.34028,0.917085
1255,499,3.29263,-0.0115357,0.340281,0.916687
1257,497,3.29181,-0.019974,0.340831,0.915805
1259,495,3.29371,-0.00941547,0.339667,0.915533
1261,493,3.29326,-0.0171673,0.339664,0.915189
1263,491,3.29251,-0.0180019,0.340213,0.914573
1265,489,3.29243,-0.0168347,0.339659,0.914103
1267,487,3.29247,-0.0157137,0.339492,0.913638
1269,485,3.29355,-0.0147431,0.339045,0.912926
1271,483,3.29385,-0.0118262,0.337947,0.912348
1273,481,3.29278,-0.0132599,0.339044,0.911226
1275,479,3.2927,-0.0121811,0.338492,0.910717
1277,477,3.29188,-0.0130327,0.339042,0.910097
1279,475,3.29354,-0.0172635,0.33788,0.909557
1281,473,3.29314,-0.0179463,0.337882,0.907985
1283,471,3.29255,-0.0169085,0.337883,0.908503
1285,469,3.29227,-0.0176373,0.337891,0.908129
1287,467,3.2934,-0.0136914,0.337283,0.906725
1289,465,3.29304,-0.0144051,0.337271,0.906299
1291,463,3.29217,-0.0152149,0.337818,0.905686
1293,461,3.29202,-0.0140238,0.337269,0.905252
1295,459,3.29085,-0.0166881,0.338371,0.904724
1297,457,3.29323,-0.0101975,0.336111,0.903923
1299,455,3.29265,-0.0126896,0.336758,0.903649
1301,453,3.29198,-0.0116113,0.336659,0.902991
1303,451,3.29176,-0.0123243,0.336657,0.902603
1305,449,3.2927,-0.0166841,0.336048,0.901834
1307,447,3.29252,-0.0173852,0.33605,0.901456
1309,445,3.29163,-0.0181534,0.336603,0.901146
1311,443,3.2915,-0.0169315,0.33605,0.900455
1313,441,3.29032,-0.0185826,0.337158,0.899248
1315,439,3.29248,-0.0138732,0.335449,0.898567
1317,437,3.292,-0.0144743,0.33544,0.898201
1319,435,3.29117,-0.0152472,0.335992,0.89764
1321,433,3.29113,-0.0141298,0.335437,0.897137
1323,431,3.29239,-0.0113177,0.334829,0.896337
1325,429,3.29238,-0.0101569,0.334378,0.895874
1327,427,3.29199,-0.0108902,0.334275,0.895472
1329,425,3.29081,-0.0189101,0.334827,0.894923
1331,423,3.29013,-0.0204051,0.335378,0.893957
1333,421,3.29192,-0.0174762,0.334218,0.893374
1335,419,3.29133,-0.0164352,0.334217,0.892437
1337,417,3.29101,-0.0171406,0.334217,0.892307
1339,415,3.29084,-0.0159875,0.334042,0.891831
1341,413,3.29176,-0.0140752,0.333624,0.890403
1343,411,3.29139,-0.0146513,0.333615,0.89007
1345,409,3.29139,-0.0134644,0.333055,0.889609
1347,407,3.29043,-0.0142958,0.333612,0.889007
1349,405,3.2925,-0.0094301,0.331897,0.888348
1351,403,3.29143,-0.0121644,0.332999,0.887804
1353,401,3.29072,-0.0190478,0.333717,0.886811
1355,399,3.29036,-0.0198268,0.332999,0.886395
1357,397,3.28945,-0.0206077,0.333555,0.885815
1359,395,3.29158,-0.0157746,0.331838,0.885132
1361,393,3.29127,-0.016546,0.331837,0.884726
1363,391,3.29034,-0.0172838,0.332393,0.884182
1365,389,3.29031,-0.0161672,0.331841,0.883685
1367,387,3.29188,-0.0121159,0.330689,0.88243
1369,385,3.29105,-0.0185157,0.330808,0.881758
1371,383,3.29045,-0.0124567,0.331239,0.880831
1373,381,3.29041,-0.0124086,0.330668,0.880989
1375,379,3.29147,-0.0170023,0.330063,0.880142
1377,377,3.29108,-0.0177073,0.330059,0.879754
1379,375,3.29047,-0.0166383,0.330059,0.879073
1381,373,3.28972,-0.0181732,0.330615,0.878095
1383,371,3.28872,-0.0190108,0.33117,0.877486
1385,369,3.29084,-0.0141105,0.32945,0.876809
1387,367,3.29054,-0.0148693,0.329447,0.876398
1389,365,3.2896,-0.0156429,0.329998,0.875823
1391,363,3.28921,-0.0163586,0.330005,0.875467
1393,361,3.29078,-0.0116901,0.328846,0.874491
1395,359,3.29031,-0.0111397,0.328846,0.873544
1397,357,3.29003,-0.0119006,0.328849,0.873149
1399,355,3.28871,-0.0201844,0.329406,0.872572
1401,353,3.29085,-0.0151796,0.327689,0.871924
1403,351,3.29029,-0.0178545,0.328301,0.871608
1405,349,3.28949,-0.0157023,0.32824,0.870213
1407,347,3.28911,-0.0163969,0.328233,0.869833
1409,345,3.28813,-0.017315,0.32879,0.869184
1411,343,3.29026,-0.0123828,0.327077,0.867165
1413,341,3.29001,-0.0129816,0.327068,0.868189
1415,339,3.28936,-0.0120415,0.327069,0.867416
1417,337,3.28892,-0.0126887,0.32707,0.867094
1419,335,3.29008,-0.0173214,0.326509,0.866255
1421,333,3.28921,-0.0188995,0.327028,0.865293
1423,331,3.28929,-0.0176709,0.326466,0.864828
1425,329,3.28889,-0.0183465,0.326477,0.864513
1427,327,3.29039,-0.0134843,0.325323,0.863625
1429,325,3.29,-0.0130967,0.325698,0.862588
1431,323,3.28978,-0.0138426,0.325323,0.862203
1433,321,3.28875,-0.0146125,0.325876,0.860332
1435,319,3.29089,-0.00969151,0.324164,0.860922
1437,317,3.29061,-0.0104383,0.324161,0.860529
1439,315,3.28973,-0.0112567,0.324716,0.859927
1441,313,3.28854,-0.01962,0.326043,0.85938
1443,311,3.28786,-0.0211926,0.325833,0.858411
1445,309,3.28992,-0.0162463,0.32412,0.857705
1447,307,3.28976,-0.0150264,0.323561,0.857233
1449,305,3.28929,-0.0139347,0.323562,0.856539
1451,303,3.28883,-0.0146305,0.323222,0.856178
1453,301,3.29051,-0.0105192,0.322408,0.854881
1455,299,3.2898,-0.0113227,0.322968,0.854318
1457,297,3.28932,-0.0120486,0.322961,0.853925
1459,295,3.2885,-0.012855,0.323522,0.853354
1461,293,3.28788,-0.0211386,0.32352,0.85303
1463,291,3.28931,-0.0106193,0.323692,0.852181
1465,289,3.28894,-0.0170458,0.322364,0.851702
1467,287,3.28878,-0.0158415,0.321805,0.851221
1469,285,3.28788,-0.0166884,0.32236,0.85063
1471,283,3.288884,-0.0163866,0.322325,0.849563
1473,281,3.28884,-0.0151412,0.321765,0.849103
1475,279,3.28797,-0.0159608,0.322322,0.848524
1477,277,3.28751,-0.0167317,0.322321,0.848128
1479,275,3.2868,-0.0156069,0.322317,0.84743
1481,273,3.28902,-0.0105585,0.320606,0.846726
1483,271,3.28767,-0.0134552,0.321722,0.8462
1485,269,3.28756,-0.0121733,0.321156,0.845741
1487,267,3.28671,-0.0187451,0.321154,0.845043
1489,265,3.28836,-0.017622,0.320567,0.844584
1491,263,3.28779,-0.0165562,0.320565,0.843851
1493,261,3.28697,-0.0180386,0.32113,0.842969
1495,259,3.28729,-0.0148734,0.320007,0.842358
1497,257,3.28908,-0.0118195,0.318859,0.841758
1499,255,3.28844,-0.0107094,0.318858,0.841048
1501,253,3.28822,-0.0114067,0.31886,0.840718
1503,251,3.28716,-0.0207105,0.319416,0.839757
1505,249,3.2863,-0.0215732,0.319978,0.839173
1507,247,3.28844,-0.0165192,0.318268,0.838456
1509,245,3.28848,-0.0152367,0.317705,0.837997
1511,243,3.28756,-0.0161071,0.318263,0.837402
1513,241,3.28752,-0.014938,0.317707,0.836886
1515,239,3.28884,-0.0119057,0.317121,0.836112
1517,237,3.2884,-0.0114673,0.317152,0.835064
1519,235,3.28797,-0.0122425,0.317119,0.834687
1521,233,3.28701,-0.0131386,0.317676,0.834073
1523,231,3.28627,-0.0215855,0.317674,0.833736
1525,229,3.28757,-0.0186005,0.317088,0.832935
1527,227,3.28728,-0.0193528,0.317076,0.832539
1529,225,3.28626,-0.0201841,0.317636,0.83197
1531,223,3.2863,-0.0189734,0.31708,0.831464
1533,221,3.28542,-0.0197891,0.317637,0.830903
1535,219,3.28747,-0.0146435,0.31593,0.830229
1537,217,3.28702,-0.0136097,0.315931,0.829476
1539,215,3.28639,-0.014306,0.315929,0.829128
1541,213,3.28602,-0.0132003,0.315905,0.828411
1543,211,3.28802,-0.0100893,0.314784,0.827814
1545,209,3.28765,-0.0108658,0.314783,0.827438
1547,207,3.28654,-0.0201929,0.315345,0.82655
1549,205,3.28595,-0.0190778,0.315342,0.825833
1551,203,3.28568,-0.0198016,0.315435,0.825472
1553,201,3.28744,-0.0148261,0.314193,0.824356
1555,199,3.28713,-0.0155959,0.314197,0.824152
1557,197,3.28692,-0.0143352,0.313638,0.823671
1559,195,3.28647,-0.0131653,0.313633,0.822988
1561,193,3.28838,-0.00998615,0.312519,0.822408
1563,191,3.28729,-0.0128558,0.313605,0.821943
1565,189,3.28719,-0.0115743,0.313044,0.82147
1567,187,3.28621,-0.0124308,0.313603,0.820889
1569,185,3.28558,-0.0210366,0.313605,0.820792
1571,183,3.28742,-0.0179169,0.312464,0.819944
1573,181,3.28652,-0.0188139,0.313022,0.819345
1575,179,3.28561,-0.0196678,0.313581,0.818766
1577,177,3.28551,-0.0184223,0.31302,0.818266
1579,175,3.28472,-0.0191086,0.313013,0.817914
1581,173,3.28656,-0.012125,0.312058,0.816785
1583,171,3.28635,-0.0129218,0.311296,0.816399
1585,169,3.28551,-0.0137654,0.311858,0.815834
1587,167,3.28544,-0.0124729,0.311293,0.815356
1589,165,3.28481,-0.0211037,0.311296,0.815015
1591,163,3.2865,-0.0160681,0.310154,0.814079
1593,161,3.28629,-0.0168221,0.310156,0.813712
1595,159,3.28546,-0.0177695,0.310712,0.813096
1597,157,3.28486,-0.0173185,0.310706,0.81203
1599,155,3.28449,-0.0180786,0.310702,0.811654
1601,153,3.28667,-0.0129026,0.309759,0.81093
1603,151,3.28622,-0.0116107,0.308987,0.81026
1605,149,3.28563,-0.0117492,0.30899,0.810186
1607,147,3.28491,-0.0134339,0.309545,0.809214
1609,145,3.28421,-0.0221327,0.309913,0.808874
1611,143,3.28543,-0.019037,0.308968,0.808091
1613,141,3.28539,-0.0177695,0.308414,0.80761
1615,139,3.28512,-0.018414,0.308416,0.80591
1617,137,3.28431,-0.0172876,0.308413,0.806838
1619,135,3.28624,-0.014101,0.307275,0.805996
1621,133,3.28504,-0.0170507,0.308387,0.805522
1623,131,3.28489,-0.0158321,0.307824,0.804984
1625,129,3.285,-0.0124932,0.30671,0.804372
1627,127,3.28399,-0.0133428,0.307256,0.803779
1629,125,3.28515,-0.0182273,0.306674,0.802993
1631,123,3.28493,-0.0190088,0.306672,0.802623
1633,121,3.28485,-0.0177099,0.306208,0.802132
1635,119,3.28403,-0.0186599,0.306668,0.801517
1637,117,3.28395,-0.0174387,0.306122,0.801009
1639,115,3.28596,-0.0142424,0.304988,0.800426
1641,113,3.28507,-0.0150658,0.305535,0.799867
1643,111,3.28454,-0.014709,0.305534,0.799007
1645,109,3.2845,-0.0133953,0.304982,0.798288
1647,107,3.28326,-0.0222517,0.305533,0.797735
1649,105,3.285478,-0.0169765,0.303846,0.797031
1651,103,3.28533,-0.0177611,0.303849,0.796664
1653,101,3.28429,-0.0186758,0.304396,0.796064
1655,99,3.28416,-0.0174063,0.303844,0.795546
1657,97,3.28372,-0.0181701,0.303839,0.795182
1659,95,3.28501,-0.0151336,0.30326,0.794368
1661,93,3.28457,-0.0159112,0.303259,0.793988
1663,91,3.28378,-0.0147274,0.303256,0.793279
1665,89,3.28326,-0.0153745,0.303214,0.792977
1667,87,3.28231,-0.0163787,0.303815,0.792356
1669,85,3.28458,-0.0111296,0.30213,0.791615
1671,83,3.28336,-0.0199729,0.302685,0.791106
1673,81,3.28334,-0.0187301,0.302154,0.790597
1675,79,3.28272,-0.0175263,0.302131,0.789877
1677,77,3.28494,-0.0122425,0.300448,0.789153
1679,75,3.28434,-0.0150648,0.300996,0.788927
1681,73,3.28371,-0.0139164,0.301352,0.788198
1683,71,3.28362,-0.0126616,0.300444,0.787686
1685,69,3.28317,-0.0134048,0.300436,0.78732
1687,67,3.28428,-0.0184029,0.299857,0.786514
1689,65,3.28391,-0.0191293,0.29985,0.78616
1691,63,3.28357,-0.0199653,0.299845,0.785765
1693,61,3.28376,-0.0166006,0.298752,0.785123
1695,59,3.28272,-0.0175264,0.299297,0.784511
1697,57,3.28489,-0.0122753,0.297626,0.783778
1699,55,3.28405,-0.013133,0.298173,0.783221
1701,53,3.28363,-0.0139336,0.298171,0.782851
1703,51,3.28344,-0.0126315,0.297629,0.782356
1705,49,3.28243,-0.013538,0.298176,0.78178
1707,47,3.28426,-0.0103258,0.297051,0.781195
1709,45,3.28337,-0.0111905,0.297598,0.780396
1711,43,3.2826,-0.0200876,0.297597,0.780273
1713,41,3.28218,-0.0208022,0.297592,0.779933
1715,39,3.28105,-0.0216995,0.298229,0.779358
1717,37,3.28308,-0.0164283,0.296465,0.778597
1719,35,3.28302,-0.0150964,0.295918,0.77811
1721,33,3.28232,-0.0139432,0.296005,0.777356
1723,31,3.28212,-0.0126498,0.29537,0.776844
1725,29,3.28116,-0.0135079,0.295913,0.776287
1727,27,3.28281,-0.0184324,0.29479,0.77568
1729,25,3.28241,-0.0191519,0.294788,0.775353
1731,23,3.28206,-0.0159899,0.294242,0.774423
1733,21,3.28156,-0.0167185,0.294236,0.774069
1735,19,3.28123,-0.0174636,0.294236,0.77373
1737,17,3.28287,-0.012361,0.293117,0.772738
1739,15,3.28241,-0.0131483,0.293117,0.772378
1741,13,3.28229,-0.0118242,0.292573,0.771864
1743,11,3.28101,-0.0208753,0.293111,0.771277
1745,9,3.28051,-0.021713,0.293111,0.770898
1747,7,3.28006,-0.0224088,0.293111,0.770587
1749,5,3.28176,-0.0173141,0.291991,0.769571
1751,3,3.2814,-0.0180647,0.291988,0.769227