File: hust_correlation_analysis/matrices/HUST_4-7_cycle_feature_matrix.csv
cycle_number,rul,voltage,current,capacity,charge_capacity
1,2218,3.31546,-0.00458523,0.348213,1.07447
4,2215,3.30467,-0.0061768,0.353863,1.06881
7,2212,3.30437,-0.00716386,0.35385,1.06811
10,2209,3.30463,-0.00815204,0.353843,1.06742
13,2206,3.30554,-0.00620059,0.353198,1.06657
16,2203,3.30548,-0.00665391,0.3532,1.06626
19,2200,3.30515,-0.00725087,0.353443,1.06585
22,2197,3.30532,-0.00820775,0.353203,1.06523
25,2194,3.30476,-0.00825858,0.353174,1.06512
28,2191,3.30641,-0.00622583,0.352085,1.06423
31,2188,3.30612,-0.00809399,0.352501,1.06428
34,2185,3.3063,-0.00808664,0.352499,1.06427
37,2182,3.3054,-0.00872541,0.352906,1.06363
40,2179,3.30595,-0.0086867,0.352468,1.06379
43,2176,3.30542,-0.00930748,0.352983,1.06321
46,2173,3.30579,-0.0098779,0.352461,1.06295
49,2170,3.30678,-0.00765212,0.351824,1.06231
52,2167,3.30714,-0.0075802,0.351383,1.06249
55,2164,3.3071,-0.00812022,0.351381,1.06211
58,2161,3.30658,-0.00886156,0.352402,1.06142
61,2158,3.30676,-0.00869531,0.351372,1.06168
64,2155,3.30631,-0.00917138,0.351768,1.06117
67,2152,3.30631,-0.00975429,0.351825,1.06091
70,2149,3.30704,-0.00766315,0.351182,1.05869
73,2146,3.30767,-0.00762788,0.350832,1.06032
76,2143,3.30731,-0.0076127,0.35074,1.06029
79,2140,3.30704,-0.00821945,0.351164,1.05971
82,2137,3.30663,-0.00828981,0.351158,1.05967
85,2134,3.30699,-0.00876299,0.351178,1.05938
88,2131,3.30685,-0.00918882,0.35119,1.05913
91,2128,3.30674,-0.00925302,0.351182,1.05908
94,2125,3.30681,-0.00977595,0.351179,1.0587
97,2122,3.30657,-0.00980271,0.351173,1.05867
100,2119,3.30677,-0.00969298,0.350735,1.05887
103,2116,3.3079,-0.00773969,0.350108,1.05805
106,2113,3.30812,-0.00766295,0.350113,1.05841
109,2110,3.3078,-0.0081379,0.350125,1.05784
112,2107,3.30792,-0.00812738,0.350126,1.05785
115,2104,3.30721,-0.00880895,0.350537,1.05716
118,2101,3.30775,-0.00865125,0.350194,1.05743
121,2098,3.30711,-0.0087967,0.350536,1.05719
124,2095,3.30711,-0.00925511,0.350539,1.05688
127,2092,3.30694,-0.00933601,0.350559,1.0569
130,2089,3.30709,-0.00974574,0.350572,1.05665
133,2086,3.30618,-0.00980543,0.351,1.05645
136,2083,3.30811,-0.00771145,0.349929,1.05584
139,2080,3.30796,-0.00765923,0.349924,1.05587
142,2077,3.30811,-0.00818074,0.349933,1.05553
145,2074,3.30793,-0.00816015,0.349932,1.05554
148,2071,3.30793,-0.00818305,0.349948,1.05559
151,2068,3.30784,-0.00863318,0.349949,1.05528
154,2065,3.30798,-0.00731692,0.349529,1.05504
157,2062,3.30755,-0.00924846,0.350378,1.05471
160,2059,3.30725,-0.00927203,0.350377,1.0547
163,2056,3.30773,-0.00781688,0.349534,1.05471
166,2053,3.30695,-0.00931943,0.350466,1.05464
169,2050,3.30711,-0.00983465,0.350377,1.05432
172,2047,3.30689,-0.00981077,0.350373,1.05432
175,2044,3.30679,-0.00989117,0.350365,1.05305
178,2041,3.30829,-0.0077317,0.349297,1.05367
181,2038,3.30845,-0.00765644,0.349297,1.05374
184,2035,3.30816,-0.00773353,0.349304,1.0537
187,2032,3.30836,-0.00824982,0.349299,1.05332
190,2029,3.30809,-0.00827185,0.349309,1.05333
193,2026,3.30837,-0.0082451,0.349309,1.05337
196,2023,3.30759,-0.00879824,0.349719,1.0528
199,2020,3.30814,-0.00876441,0.349891,1.05295
202,2017,3.30783,-0.00876644,0.349272,1.05288
205,2014,3.30792,-0.00868172,0.349238,1.05287
208,2011,3.30723,-0.00898362,0.349662,1.05247
211,2008,3.30784,-0.00896325,0.349222,1.05262
214,2005,3.30706,-0.00903362,0.349598,1.05225
217,2002,3.30764,-0.009166,0.349201,1.05241
220,1999,3.30744,-0.00944835,0.349201,1.05222
223,1996,3.30742,-0.00942264,0.349191,1.05222
226,1993,3.30713,-0.00947347,0.349189,1.05219
229,1990,3.30757,-0.00994864,0.349279,1.05183
232,1987,3.307,-0.0100394,0.349217,1.05185
235,1984,3.30875,-0.00785182,0.348172,1.05139
238,1981,3.30864,-0.0077837,0.348169,1.05125
241,1978,3.30902,-0.00772352,0.347733,1.0516
244,1975,3.30844,-0.00782062,0.348153,1.05137
247,1972,3.30868,-0.00848639,0.348146,1.05089
250,1969,3.30872,-0.00826381,0.347721,1.05119
253,1966,3.30843,-0.00888661,0.348163,1.05067
256,1963,3.30829,-0.00884107,0.348193,1.05078
259,1960,3.3086,-0.00876653,0.347766,1.05097
262,1957,3.3078,-0.00939966,0.348594,1.05044
265,1954,3.30824,-0.00939379,0.348158,1.05031
268,1951,3.30804,-0.00937338,0.348144,1.05028
271,1948,3.30794,-0.0095339,0.348152,1.05019
274,1945,3.30783,-0.00998264,0.348178,1.04994
277,1942,3.30822,-0.00984755,0.347757,1.05023
280,1939,3.30756,-0.0099156,0.348182,1.05004
283,1936,3.30944,-0.00775747,0.347115,1.04946
286,1933,3.30919,-0.00778006,0.347116,1.04944
289,1930,3.30953,-0.00757397,0.346682,1.04972
292,1927,3.30898,-0.00785482,0.347106,1.04937
295,1924,3.30966,-0.00834972,0.346711,1.04926
298,1921,3.30883,-0.0083533,0.347739,1.04913
301,1918,3.30921,-0.00878897,0.347061,1.04885
304,1915,3.30883,-0.0088614,0.347141,1.04877
307,1912,3.30883,-0.00886423,0.347126,1.04874
310,1909,3.309,-0.008786,0.346695,1.04894
313,1906,3.30927,-0.00925285,0.346688,1.04859
316,1903,3.3085,-0.00943298,0.347133,1.04839
319,1900,3.30886,-0.00988735,0.347151,1.04812
322,1897,3.30855,-0.00982834,0.347144,1.04815
325,1894,3.30892,-0.00982248,0.346733,1.04834
328,1891,3.31016,-0.00719293,0.346094,1.04795
331,1888,3.31003,-0.00764753,0.346084,1.0476
334,1885,3.31004,-0.00778058,0.346081,1.04751
337,1882,3.30987,-0.00769403,0.346104,1.04761
340,1879,3.30965,-0.00829771,0.346534,1.04707
343,1876,3.30939,-0.00825513,0.346532,1.04711
346,1873,3.30988,-0.0082197,0.346108,1.04728
349,1870,3.30916,-0.00882039,0.346521,1.04648
352,1867,3.30984,-0.00878025,0.346087,1.04684
355,1864,3.30936,-0.0088185,0.346074,1.04678
358,1861,3.30974,-0.00934833,0.346711,1.04651
361,1858,3.30954,-0.00929272,0.34612,1.04658
364,1855,3.30953,-0.00785415,0.345704,1.04643
367,1852,3.30976,-0.00835823,0.345713,1.04611
370,1849,3.30906,-0.00843423,0.346132,1.0459
373,1846,3.30887,-0.0100398,0.346549,1.04593
376,1843,3.30855,-0.00986995,0.346536,1.04602
379,1840,3.31053,-0.00775623,0.345493,1.04547
382,1837,3.31029,-0.00636178,0.34508,1.04532
385,1834,3.31071,-0.00672951,0.345088,1.04508
388,1831,3.31022,-0.00822147,0.34556,1.04512
391,1828,3.31059,-0.00814895,0.344976,1.0453
394,1825,3.31048,-0.0082022,0.345041,1.04523
397,1822,3.30971,-0.00839141,0.345459,1.04493
400,1819,3.31043,-0.00839596,0.345036,1.04537
403,1816,3.30971,-0.00882252,0.345454,1.04465
406,1813,3.31026,-0.00877406,0.345125,1.04486
409,1810,3.31008,-0.008878,0.345037,1.04476
412,1807,3.31006,-0.00933517,0.345024,1.04441
415,1804,3.31011,-0.00937951,0.345028,1.04437
418,1801,3.30973,-0.0093406,0.345015,1.04438
421,1798,3.30986,-0.00946449,0.345272,1.04434
424,1795,3.30925,-0.00999067,0.345463,1.04386
427,1792,3.31143,-0.00712674,0.343998,1.04399
430,1789,3.3114,-0.00768358,0.344233,1.04356
433,1786,3.31075,-0.00773576,0.344394,1.04335
436,1783,3.31109,-0.00777093,0.343976,1.04346
439,1780,3.31093,-0.00779409,0.343966,1.04343
442,1777,3.31082,-0.00834533,0.344406,1.04271
445,1774,3.31115,-0.00689669,0.343571,1.04299
448,1771,3.31082,-0.00736962,0.344007,1.04255
451,1768,3.3106,-0.00877767,0.344412,1.04269
454,1765,3.31025,-0.0089152,0.344407,1.04255
457,1762,3.31075,-0.008798,0.343962,1.04274
460,1759,3.31094,-0.00878099,0.343531,1.04288
463,1756,3.31015,-0.00940989,0.344386,1.04209
466,1753,3.31054,-0.00940749,0.343992,1.04241
469,1750,3.31024,-0.00856004,0.344011,1.04174
472,1747,3.31051,-0.00974766,0.343988,1.04217
475,1744,3.3103,-0.00990214,0.34398,1.04203
478,1741,3.31145,-0.00771571,0.343333,1.0413
481,1738,3.31188,-0.00768917,0.342918,1.04149
484,1735,3.31172,-0.00781815,0.342936,1.04145
487,1732,3.31162,-0.00686139,0.343561,1.04088
490,1729,3.31168,-0.00683155,0.342965,1.04093
493,1726,3.31092,-0.00745141,0.343387,1.04033
496,1723,3.3116,-0.00729259,0.342974,1.04061
499,1720,3.31134,-0.00734538,0.342965,1.04058
502,1717,3.31078,-0.00797094,0.343407,1.04002
505,1714,3.31121,-0.00788717,0.342936,1.04024
508,1711,3.31099,-0.00788692,0.342983,1.04026
511,1708,3.31033,-0.00845168,0.343836,1.03957
514,1705,3.31092,-0.0084593,0.342994,1.03989
517,1702,3.31217,-0.0063447,0.34236,1.03914
520,1699,3.31188,-0.00627662,0.342361,1.03917
523,1696,3.31251,-0.00622362,0.342541,1.03938
526,1693,3.31188,-0.0068845,0.342354,1.03875
529,1690,3.31187,-0.00689607,0.342366,1.03877
532,1687,3.31187,-0.00686568,0.342358,1.03878
535,1684,3.31157,-0.00689858,0.34235,1.03874
538,1681,3.31173,-0.00738303,0.342349,1.03867
541,1678,3.31157,-0.00742457,0.342345,1.03836
544,1675,3.31175,-0.00743322,0.341923,1.03849
547,1672,3.31148,-0.00795685,0.342344,1.03797
550,1669,3.31147,-0.00798566,0.342339,1.03797
553,1666,3.31119,-0.00801695,0.342343,1.03795
556,1663,3.3112,-0.00848935,0.34177,1.03762
559,1660,3.31157,-0.00845998,0.342165,1.03778
562,1657,3.31138,-0.00854712,0.34191,1.0377
565,1654,3.31248,-0.00587874,0.341277,1.03732
568,1651,3.31306,-0.0062956,0.340842,1.03714
571,1648,3.31325,-0.00630167,0.340844,1.03716
574,1645,3.31201,-0.00703673,0.341788,1.03639
577,1642,3.31239,-0.00685979,0.341284,1.03668
580,1639,3.31243,-0.00690425,0.341289,1.03667
583,1636,3.31201,-0.00746491,0.3417,1.03585
586,1633,3.3122,-0.00733158,0.34128,1.03633
589,1630,3.31266,-0.00738379,0.340859,1.03645
592,1627,3.31221,-0.00800342,0.34154,1.0359
595,1624,3.31161,-0.00801439,0.341727,1.03579
598,1621,3.31212,-0.00839749,0.341292,1.03563
601,1618,3.31172,-0.00851662,0.341728,1.03546
604,1615,3.31172,-0.00850707,0.340754,1.0356
607,1612,3.31305,-0.00637913,0.340662,1.03485
610,1609,3.31342,-0.00627864,0.340841,1.03506
613,1606,3.31311,-0.0064147,0.340207,1.03486
616,1603,3.31284,-0.00638115,0.340209,1.03488
619,1600,3.31291,-0.00686633,0.340203,1.03454
622,1597,3.31305,-0.00689518,0.340236,1.03461
625,1594,3.31285,-0.00698256,0.34023,1.03453
628,1591,3.3124,-0.00752134,0.340647,1.03399
631,1588,3.31272,-0.00745776,0.34022,1.03417
634,1585,3.31308,-0.00732417,0.339786,1.03439
637,1582,3.31272,-0.00801833,0.340228,1.0338
640,1579,3.31245,-0.00806263,0.340835,1.03379
643,1576,3.31219,-0.00854009,0.340662,1.03334
646,1573,3.3126,-0.00846155,0.34023,1.03351
649,1570,3.31247,-0.00851357,0.34023,1.03347
652,1567,3.31362,-0.0064071,0.340191,1.0327
655,1564,3.31292,-0.00642704,0.3401,1.0323
658,1561,3.31391,-0.00633458,0.339157,1.03286
661,1558,3.31383,-0.0064348,0.339159,1.03281
664,1555,3.31383,-0.0068436,0.339165,1.03253
667,1552,3.31329,-0.00702616,0.339583,1.03227
670,1549,3.31308,-0.00690245,0.339559,1.03227
673,1546,3.31349,-0.00880398,0.339554,1.03225
676,1543,3.31336,-0.00884974,0.34015,1.03221
679,1540,3.31316,-0.00803541,0.339587,1.03157
682,1537,3.31301,-0.00805489,0.339598,1.0316
685,1534,3.31253,-0.00855342,0.340003,1.03104
688,1531,3.31284,-0.00852285,0.339571,1.03117
691,1528,3.31281,-0.00855667,0.33956,1.03113
694,1525,3.31407,-0.00733871,0.338926,1.03106
697,1522,3.31415,-0.00782476,0.338931,1.03072
700,1519,3.31421,-0.00648989,0.338538,1.03057
703,1516,3.31368,-0.0070388,0.338972,1.03007
706,1513,3.31363,-0.00715512,0.338972,1.02999
709,1510,3.31373,-0.00740167,0.339043,1.02982
712,1507,3.31412,-0.0074018,0.338775,1.02994
715,1504,3.31381,-0.00737773,0.338529,1.02993
718,1501,3.31357,-0.00799668,0.338949,1.02936
721,1498,3.3133,-0.00803605,0.338968,1.02938
724,1495,3.31341,-0.00859079,0.339219,1.02901
727,1492,3.31257,-0.00861318,0.339401,1.02885
730,1489,3.31437,-0.00631085,0.338341,1.02836
733,1486,3.31418,-0.00630196,0.338334,1.02835
736,1483,3.31458,-0.0062472,0.337915,1.02854
739,1480,3.31428,-0.0069288,0.338338,1.02793
742,1477,3.31443,-0.00686077,0.337908,1.02808
745,1474,3.31418,-0.00694753,0.338323,1.02789
748,1471,3.31366,-0.0074904,0.338325,1.0275
751,1468,3.31371,-0.00750973,0.338336,1.02752
754,1465,3.31368,-0.00805566,0.337816,1.02712
757,1462,3.31349,-0.00808273,0.338319,1.02706
760,1459,3.31337,-0.00812225,0.33831,1.02702
763,1456,3.3129,-0.00952038,0.338695,1.02711
766,1453,3.31271,-0.0086837,0.338723,1.02645
769,1450,3.31391,-0.00660084,0.338101,1.02568
772,1447,3.31424,-0.00643371,0.337699,1.026
775,1444,3.31387,-0.00699672,0.338099,1.02543
778,1441,3.31373,-0.00690956,0.338091,1.02545
781,1438,3.31397,-0.00695182,0.337674,1.02557
784,1435,3.31347,-0.00756601,0.338097,1.02501
787,1432,3.31377,-0.0080643,0.338134,1.02477
790,1429,3.31352,-0.00793447,0.33814,1.02489
793,1426,3.31379,-0.00798701,0.337698,1.02492
796,1423,3.31337,-0.00852116,0.338116,1.0244
799,1420,3.31323,-0.00862156,0.338118,1.02435
802,1417,3.31513,-0.00579657,0.336639,1.02433
805,1414,3.31482,-0.00638016,0.337087,1.02373
808,1411,3.31461,-0.00651831,0.337064,1.02368
811,1408,3.3147,-0.00696039,0.337075,1.02342
814,1405,3.31456,-0.00698348,0.337073,1.02341
817,1402,3.3141,-0.00750732,0.337481,1.02286
820,1399,3.31437,-0.00748062,0.337062,1.02303
823,1396,3.31377,-0.00813004,0.337474,1.02238
826,1393,3.3137,-0.00806421,0.337476,1.02246
829,1390,3.31399,-0.00804483,0.337039,1.02257
832,1387,3.31362,-0.00865,0.337472,1.02202
835,1384,3.31507,-0.00588983,0.336428,1.02186
838,1381,3.31507,-0.00634812,0.336442,1.02158
841,1378,3.31448,-0.00650584,0.336871,1.01993
844,1375,3.31432,-0.00695755,0.336863,1.02103
847,1372,3.31448,-0.00752113,0.336873,1.02066
850,1369,3.31425,-0.00750221,0.336871,1.02067
853,1366,3.31392,-0.00803634,0.337388,1.02021
856,1363,3.31411,-0.00796546,0.336885,1.0204
859,1360,3.31317,-0.0085922,0.33773,1.01966
862,1357,3.31339,-0.00853289,0.337296,1.01982
865,1354,3.31315,-0.00863559,0.337287,1.01971
868,1351,3.3144,-0.00642846,0.336655,1.01899
871,1348,3.31441,-0.00650034,0.336669,1.01898
874,1345,3.31434,-0.00696547,0.336691,1.01872
877,1342,3.3139,-0.00758251,0.337111,1.01814
880,1339,3.31416,-0.00755848,0.337267,1.01826
883,1336,3.31398,-0.00755907,0.336653,1.0182
886,1333,3.31394,-0.00822754,0.336647,1.01772
889,1330,3.31378,-0.00816846,0.33664,1.01775
892,1327,3.31361,-0.00825218,0.336628,1.01765
895,1324,3.31361,-0.00876802,0.336638,1.01731
898,1321,3.31515,-0.00586386,0.335589,1.01724
901,1318,3.31518,-0.00643814,0.33558,1.01681
904,1315,3.31505,-0.00652912,0.335574,1.01672
907,1312,3.31466,-0.00793419,0.336232,1.01688
910,1309,3.31475,-0.00841043,0.335998,1.01658
913,1306,3.31405,-0.00845332,0.3364,1.01636
916,1303,3.31374,-0.00771651,0.336431,1.01564
919,1300,3.31341,-0.00823443,0.336873,1.01519
922,1297,3.31365,-0.0082017,0.336386,1.01535
925,1294,3.31364,-0.00880918,0.337032,1.01489
928,1291,3.31341,-0.00889887,0.33643,1.01482
931,1288,3.31485,-0.00601594,0.335469,1.01468
934,1285,3.31485,-0.00652748,0.335364,1.01431
937,1282,3.31556,-0.00646307,0.334954,1.01455
940,1279,3.31476,-0.00702535,0.335393,1.01407
943,1276,3.31387,-0.00759169,0.336254,1.01339
946,1273,3.31403,-0.00762479,0.335823,1.01349
949,1270,3.31377,-0.00830211,0.336307,1.01286
952,1267,3.31384,-0.00826459,0.335804,1.01301
955,1264,3.31372,-0.00815176,0.335798,1.01306
958,1261,3.3137,-0.00873434,0.335807,1.01266
961,1258,3.31496,-0.00650343,0.335188,1.012
964,1255,3.31458,-0.00647802,0.335187,1.01202
967,1252,3.31446,-0.00658642,0.335187,1.01194
970,1249,3.31457,-0.00713151,0.335183,1.01156
973,1246,3.31436,-0.00714736,0.335187,1.01155
976,1243,3.3143,-0.00761672,0.335188,1.01125
979,1240,3.31435,-0.00817413,0.335193,1.01087
982,1237,3.31345,-0.00816636,0.335635,1.01077
985,1234,3.3132,-0.00871977,0.336063,1.01024
988,1231,3.3134,-0.0088499,0.335631,1.01029
991,1228,3.31457,-0.00661595,0.335012,1.00958
994,1225,3.31493,-0.00649936,0.334576,1.00954
997,1222,3.31427,-0.00713042,0.335001,1.0092
1000,1219,3.3141,-0.0072053,0.335006,1.00916
1003,1216,3.31389,-0.00766632,0.335009,1.00885
1006,1213,3.31362,-0.0083334,0.335453,1.0083
1009,1210,3.31401,-0.00815513,0.335027,1.00856
1012,1207,3.31329,-0.00872866,0.335448,1.008
1015,1204,3.31331,-0.00887519,0.335693,1.0079
1018,1201,3.3148,-0.00664407,0.334396,1.00731
1021,1198,3.31515,-0.00644926,0.334212,1.00759
1024,1195,3.31428,-0.00703642,0.334818,1.00688
1027,1192,3.31457,-0.0071335,0.334472,1.007
1030,1189,3.3141,-0.0077487,0.334833,1.00644
1033,1186,3.31441,-0.00764744,0.334397,1.00665
1036,1183,3.31336,-0.00822592,0.33526,1.00596
1039,1180,3.31344,-0.00896419,0.335263,1.00573
1042,1177,3.31353,-0.00887149,0.334825,1.00565
1045,1174,3.3148,-0.00660711,0.334201,1.00494
1048,1171,3.31398,-0.00661592,0.334622,1.00477
1051,1168,3.31405,-0.00729503,0.334617,1.00428
1054,1165,3.31439,-0.00714562,0.334186,1.00454
1057,1162,3.31376,-0.00767271,0.334615,1.00402
1060,1159,3.31362,-0.00783278,0.334396,1.00389
1063,1156,3.31394,-0.00828368,0.334169,1.0037
1066,1153,3.31335,-0.00831713,0.334594,1.00351
1069,1150,3.31337,-0.00895471,0.334603,1.00158
1072,1147,3.31462,-0.00665831,0.333995,1.00245
1075,1144,3.31446,-0.00655994,0.333993,1.00253
1078,1141,3.31435,-0.0072276,0.333994,1.00205
1081,1138,3.31414,-0.0072738,0.33397,1.00195
1084,1135,3.31355,-0.0077497,0.334395,1.00145
1087,1132,3.31379,-0.00787106,0.333946,1.00148
1090,1129,3.31349,-0.00933815,0.334386,1.00165
1093,1126,3.31314,-0.00839296,0.334453,1.00099
1096,1123,3.31311,-0.00904656,0.334397,1.00057
1099,1120,3.31483,-0.00660885,0.33353,1.0001
1102,1117,3.31423,-0.00678632,0.333764,0.999835
1105,1114,3.31384,-0.00876786,0.334183,0.999632
1108,1111,3.31354,-0.00873098,0.33418,0.999595
1111,1108,3.31347,-0.00941513,0.334183,0.999133
1114,1105,3.31341,-0.00989955,0.33418,0.998803
1117,1102,3.31292,-0.0105002,0.334625,0.998268
1120,1099,3.31452,-0.00618576,0.333149,0.997963
1123,1096,3.31401,-0.00673837,0.333582,0.99744
1126,1093,3.31405,-0.0082477,0.333569,0.997676
1129,1090,3.31402,-0.00871187,0.333568,0.997366
1132,1087,3.31346,-0.00937979,0.334001,0.996763
1135,1084,3.3133,-0.00940227,0.33401,0.996757
1138,1081,3.31302,-0.00844798,0.334019,0.994674
1141,1078,3.31248,-0.00917415,0.334467,0.995538
1144,1075,3.31424,-0.00668295,0.333416,0.995108
1147,1072,3.314,-0.00684008,0.33341,0.99499
1150,1069,3.31393,-0.0073619,0.333411,0.994651
1153,1066,3.31371,-0.00737191,0.333416,0.994633
1156,1063,3.31361,-0.00792891,0.333415,0.994259
1159,1060,3.31283,-0.0071295,0.333855,0.993384
1162,1057,3.31307,-0.00703672,0.333425,0.993614
1165,1054,3.31422,-0.00467704,0.332829,0.992986
1168,1051,3.31409,-0.00524126,0.332799,0.992535
1171,1048,3.3134,-0.011589,0.333246,0.992019
1174,1045,3.3138,-0.00582769,0.332808,0.992139
1177,1042,3.31309,-0.0106926,0.332807,0.991453
1180,1039,3.31242,-0.0128949,0.333688,0.991014
1183,1036,3.31303,-0.00982269,0.332383,0.990932
1186,1033,3.31415,-0.00961737,0.332222,0.990027
1189,1030,3.31418,-0.00808194,0.331781,0.989881
1192,1027,3.31393,-0.00818201,0.331779,0.990068
1195,1024,3.31356,-0.00721896,0.332377,0.989124
1198,1021,3.31326,-0.00930837,0.332191,0.988833
1201,1018,3.31316,-0.00777006,0.331758,0.988724
1204,1015,3.31282,-0.00999476,0.332205,0.988413
1207,1012,3.31426,-0.00468548,0.330754,0.987517
1210,1009,3.31379,-0.00576733,0.331166,0.986582
1213,1006,3.31333,-0.0115448,0.331127,0.986468
1216,1003,3.31312,-0.0116765,0.331126,0.986385
1219,1000,3.31279,-0.0107622,0.331114,0.98568
1222,997,3.31275,-0.0122743,0.331108,0.985916
1225,994,3.31259,-0.00988416,0.330677,0.985076
1228,991,3.31254,-0.0104443,0.330693,0.984779
1231,988,3.31379,-0.00826125,0.330089,0.983997
1234,985,3.31406,-0.00664559,0.329205,0.984028
1237,982,3.31309,-0.010267,0.3305,0.983741
1240,979,3.31282,-0.0078785,0.330055,0.982847
1243,976,3.31245,-0.00948639,0.330493,0.982937
1246,973,3.31217,-0.00700803,0.330051,0.982128
1249,970,3.3124,-0.00754645,0.329616,0.981904
1252,967,3.3138,-0.00542064,0.329028,0.981137
1255,964,3.31341,-0.0115847,0.329047,0.980968
1258,961,3.31254,-0.00649918,0.329902,0.980154
1261,958,3.31188,-0.0128608,0.33033,0.979641
1264,955,3.31197,-0.0128864,0.329896,0.979764
1267,952,3.31137,-0.0135934,0.330339,0.979171
1270,949,3.31306,-0.00964706,0.32886,0.978538
1273,946,3.3126,-0.011681,0.329286,0.978305
1276,943,3.31195,-0.0107909,0.329722,0.977473
1279,940,3.31229,-0.00931391,0.328846,0.977434
1282,937,3.31185,-0.0115238,0.329289,0.97712
1285,934,3.31154,-0.00902159,0.328844,0.976301
1288,931,3.31277,-0.00689602,0.328223,0.975442
1291,928,3.31282,-0.00583304,0.327776,0.974965
1294,925,3.31269,-0.00738743,0.327783,0.975259
1297,922,3.31195,-0.00793841,0.328209,0.974694
1300,919,3.31136,-0.0129472,0.328206,0.973962
1303,916,3.31309,-0.00921289,0.326656,0.973191
1306,913,3.3123,-0.0113166,0.327606,0.972832
1309,910,3.31213,-0.00885279,0.327174,0.972006
1312,907,3.3124,-0.00937903,0.326737,0.97179
1315,904,3.31138,-0.0130225,0.32805,0.971564
1318,901,3.311194,-0.0106727,0.327612,0.969254
1321,898,3.31333,-0.00612129,0.325701,0.970581
1324,895,3.31217,-0.00895968,0.327018,0.96958
1327,892,3.312,-0.0065277,0.326574,0.968728
1330,889,3.3124,-0.00636104,0.325941,0.969092
1333,886,3.31111,-0.0086412,0.327003,0.968457
1336,883,3.31044,-0.01355,0.327003,0.967809
1339,880,3.31271,-0.00530317,0.325519,0.967384
1342,877,3.3122,-0.00593407,0.325961,0.966836
1345,874,3.31129,-0.0123932,0.326404,0.966345
1348,871,3.31114,-0.0129394,0.326406,0.965993
1351,868,3.31061,-0.0136133,0.326844,0.965419
1354,865,3.3117,-0.011288,0.326238,0.964715
1357,862,3.31129,-0.0103766,0.326237,0.963995
1360,859,3.31153,-0.0109111,0.325799,0.963791
1363,856,3.3107,-0.013085,0.326771,0.963383
1366,853,3.31057,-0.00913533,0.325799,0.962359
1369,850,3.31185,-0.00664865,0.324729,0.961791
1372,847,3.31171,-0.00554249,0.324245,0.961317
1375,844,3.3112,-0.00660794,0.324721,0.960503
1378,841,3.31062,-0.0116471,0.324715,0.959772
1381,838,3.31062,-0.013702,0.324713,0.959719
1384,835,3.31191,-0.00987371,0.323661,0.958778
1387,832,3.31157,-0.00890757,0.323626,0.958031
1390,829,3.31112,-0.00899195,0.323636,0.957977
1393,826,3.31123,-0.0081004,0.323223,0.957479
1396,823,3.31043,-0.0103416,0.324107,0.956809
1399,820,3.31188,-0.00691145,0.323059,0.955895
1402,817,3.31134,-0.00602184,0.323051,0.955137
1405,814,3.31141,-0.00596129,0.322606,0.955289
1408,811,3.31073,-0.00666584,0.323037,0.954665
1411,808,3.31063,-0.00732441,0.323055,0.954265
1414,805,3.31125,-0.0114033,0.322881,0.953136
1417,802,3.31137,-0.0119638,0.322455,0.953177
1420,799,3.31087,-0.0110075,0.322453,0.95223
1423,796,3.31031,-0.0116829,0.322888,0.951662
1426,793,3.30977,-0.0107884,0.322884,0.951185
1429,790,3.31103,-0.00986767,0.322275,0.950557
1432,787,3.31106,-0.00901902,0.321838,0.949954
1435,784,3.30998,-0.0102764,0.322721,0.948883
1438,781,3.31,-0.0093245,0.322292,0.94837
1441,778,3.31129,-0.00539282,0.321262,0.947525
1444,775,3.31104,-0.00599117,0.321254,0.947127
1447,772,3.31075,-0.00655329,0.32185,0.946738
1450,769,3.30977,-0.0131935,0.321677,0.946158
1453,766,3.3093,-0.0123269,0.321671,0.945408
1456,763,3.3107,-0.00988153,0.320624,0.944855
1459,760,3.31071,-0.00897433,0.320195,0.944557
1462,757,3.30952,-0.0117955,0.321512,0.943377
1465,754,3.30946,-0.0108262,0.321073,0.942843
1468,751,3.31073,-0.00691161,0.320035,0.941947
1471,748,3.31042,-0.00750295,0.320028,0.941545
1474,745,3.31031,-0.00656095,0.319587,0.940985
1477,742,3.30946,-0.00883429,0.320461,0.940541
1480,739,3.31111,-0.00483467,0.318982,0.939834
1483,736,3.31028,-0.0114762,0.31942,0.939317
1486,733,3.30973,-0.011064,0.319416,0.938268
1489,730,3.30947,-0.0118035,0.319415,0.937794
1492,727,3.30871,-0.0124818,0.319837,0.937167
1495,724,3.31028,-0.0100649,0.318796,0.936612
1498,721,3.30992,-0.00759819,0.318356,0.935698
1501,718,3.30948,-0.00969349,0.318789,0.935505
1504,715,3.30956,-0.0072983,0.317883,0.934723
1507,712,3.31033,-0.00551669,0.317758,0.933501
1510,709,3.30982,-0.00765658,0.318197,0.933295
1513,706,3.30931,-0.00674064,0.318254,0.93259
1516,703,3.30886,-0.0132751,0.318194,0.932284
1519,700,3.31013,-0.0100026,0.317081,0.930937
1522,697,3.3099,-0.0106469,0.31715,0.930541
1525,694,3.309,-0.0129005,0.318031,0.930127
1528,691,3.30842,-0.0119281,0.31803,0.929465
1531,688,3.31016,-0.00790291,0.316569,0.928777
1534,685,3.30962,-0.00910829,0.317008,0.927868
1537,682,3.30945,-0.00818892,0.316568,0.927291
1540,679,3.3087,-0.00882404,0.317005,0.926742
1543,676,3.30971,-0.00652577,0.316404,0.92594
1546,673,3.30975,-0.00551004,0.315956,0.925406
1549,670,3.30885,-0.0128547,0.3164,0.924496
1552,667,3.30848,-0.0133831,0.316394,0.924158
1555,664,3.30833,-0.0124477,0.315959,0.923588
1558,661,3.30954,-0.0101032,0.315364,0.922841
1561,658,3.30886,-0.0113561,0.315806,0.921916
1564,655,3.30852,-0.00890717,0.315365,0.920989
1567,652,3.30799,-0.0109838,0.315805,0.920843
1570,649,3.30964,-0.007023,0.314416,0.92005
1573,646,3.30902,-0.00824925,0.314763,0.919138
1576,643,3.30855,-0.00742927,0.314739,0.918346
1579,640,3.31007,-0.00483643,0.313748,0.91793
1582,637,3.30929,-0.0116459,0.314193,0.917411
1585,634,3.30861,-0.0128798,0.31463,0.916486
1588,631,3.30849,-0.0119152,0.314175,0.915893
1591,628,3.30765,-0.012662,0.314566,0.915263
1594,625,3.30902,-0.0117644,0.314008,0.914871
1597,622,3.30912,-0.00918809,0.313128,0.914149
1600,619,3.30804,-0.0104528,0.313974,0.913068
1603,616,3.30753,-0.0110898,0.314007,0.912683
1606,613,3.30945,-0.00701896,0.31254,0.911971
1609,610,3.30838,-0.00929141,0.313417,0.911571
1612,607,3.30808,-0.00745955,0.312974,0.910251
1615,604,3.30737,-0.00799019,0.313419,0.909792
1618,601,3.3089,-0.00551493,0.31238,0.909203
1621,598,3.30831,-0.0123391,0.312383,0.909116
1624,595,3.30759,-0.0136258,0.312821,0.907904
1627,592,3.30706,-0.0126983,0.312819,0.907175
1630,589,3.30881,-0.00868348,0.311353,0.906406
1633,586,3.3081,-0.00994571,0.311794,0.905497
1636,583,3.30741,-0.0106003,0.312242,0.904968
1639,580,3.30885,-0.00809433,0.311197,0.904383
1642,577,3.30854,-0.00558079,0.310748,0.903442
1645,574,3.30786,-0.00682917,0.311184,0.902514
1648,571,3.30733,-0.0137553,0.311187,0.902131
1651,568,3.30857,-0.0113161,0.310621,0.901451
1654,565,3.30854,-0.010855,0.31018,0.90058
1657,562,3.30781,-0.0115108,0.310625,0.900039
1660,559,3.30739,-0.0121425,0.31061,0.899618
1663,556,3.30899,-0.00651138,0.308689,0.898604
1666,553,3.30852,-0.00621223,0.308679,0.897451
1669,550,3.30775,-0.00682288,0.30911,0.896921
1672,547,3.3074,-0.00745047,0.309106,0.896525
1675,544,3.30858,-0.00563457,0.308545,0.895475
1678,541,3.30774,-0.0125192,0.308995,0.895029
1681,538,3.30707,-0.0137668,0.309441,0.894131
1684,535,3.30673,-0.0144042,0.309434,0.893724
1687,532,3.30794,-0.0104051,0.3084,0.892752
1690,529,3.30777,-0.00936827,0.307946,0.892179
1693,526,3.3074,-0.0100049,0.307945,0.89177
1696,523,3.30693,-0.00968223,0.307947,0.890673
1699,520,3.30802,-0.00878479,0.307815,0.888772
1702,517,3.30792,-0.0077678,0.30738,0.889663
1705,514,3.30711,-0.00844647,0.307819,0.889113
1708,511,3.30639,-0.00968673,0.30826,0.888219
1711,508,3.30803,-0.00716979,0.307319,0.887643
1714,505,3.30728,-0.00781447,0.307677,0.88713
1717,502,3.30676,-0.00692215,0.307669,0.88633
1720,499,3.30637,-0.00752385,0.307664,0.885946
1723,496,3.30715,-0.0120651,0.307034,0.884822
1726,493,3.30685,-0.0111221,0.306626,0.884213
1729,490,3.30675,-0.00998747,0.306177,0.883716
1732,487,3.30592,-0.00985374,0.30664,0.882394
1735,484,3.30796,-0.00559276,0.304754,0.881788
1738,481,3.30727,-0.00636368,0.305149,0.881186
1741,478,3.3063,-0.0139614,0.305587,0.880312
1744,475,3.30596,-0.0145878,0.305581,0.879914
1747,472,3.3073,-0.0105241,0.304556,0.878962
1750,469,3.30719,-0.0094486,0.304106,0.87841
1753,466,3.30637,-0.012407,0.305001,0.877705
1756,463,3.30569,-0.0114965,0.305001,0.876949
1759,460,3.30745,-0.00726894,0.303529,0.876199
1762,457,3.30718,-0.00788913,0.303526,0.875822
1765,454,3.30642,-0.00860203,0.303966,0.875251
1768,451,3.30596,-0.00827639,0.303962,0.874132
1771,448,3.30725,-0.0121063,0.30294,0.873597
1774,445,3.30649,-0.0127388,0.303421,0.871631
1777,442,3.30625,-0.0134327,0.303397,0.872717
1780,439,3.30572,-0.0130647,0.303396,0.871616
1783,436,3.30727,-0.0104845,0.302371,0.871046
1786,433,3.30647,-0.0112341,0.302803,0.870462
1789,430,3.30637,-0.0101634,0.302359,0.869929
1792,427,3.30574,-0.00922775,0.302357,0.869166
1795,424,3.30691,-0.00732897,0.301774,0.86806
1798,421,3.30649,-0.00795359,0.301774,0.867681
1801,418,3.30637,-0.00697917,0.301327,0.867071
1804,415,3.30565,-0.00769947,0.301778,0.866544
1807,412,3.3066,-0.0121653,0.3012,0.865515
1810,409,3.30664,-0.00631149,0.301202,0.865139
1813,406,3.30562,-0.0135165,0.302239,0.864581
1816,403,3.30544,-0.0124981,0.301199,0.863999
1819,400,3.3066,-0.0106289,0.300624,0.862885
1822,397,3.30603,-0.00968555,0.300624,0.862135
1825,394,3.30592,-0.00866402,0.300262,0.861564
1828,391,3.30551,-0.00925885,0.30018,0.861218
1831,388,3.30695,-0.0057257,0.299162,0.859896
1834,385,3.30664,-0.0063459,0.299156,0.859283
1837,382,3.30562,-0.0136047,0.299602,0.85896
1840,379,3.30502,-0.0132872,0.299595,0.857822
1843,376,3.30662,-0.0106011,0.298804,0.857306
1846,373,3.30647,-0.00960818,0.298126,0.85669
1849,370,3.30568,-0.0103431,0.298568,0.856142
1852,367,3.30501,-0.0116441,0.299022,0.855273
1855,364,3.30684,-0.00735944,0.297564,0.854513
1858,361,3.30633,-0.00649095,0.297564,0.85372
1861,358,3.30595,-0.00708755,0.297555,0.853349
1864,355,3.30556,-0.00766519,0.297546,0.853
1867,352,3.30648,-0.0123172,0.297197,0.851857
1870,349,3.30596,-0.0113381,0.296955,0.851099
1873,346,3.30557,-0.0119813,0.296952,0.850711
1876,343,3.30514,-0.0110841,0.296949,0.84992
1879,340,3.3068,-0.00840496,0.29595,0.849447
1882,337,3.30612,-0.00972207,0.296629,0.848568
1885,334,3.30595,-0.00865444,0.295949,0.847994
1888,331,3.30581,-0.00764038,0.295501,0.847373
1891,328,3.30652,-0.00583921,0.295309,0.846064
1894,325,3.30616,-0.00648835,0.295364,0.845941
1897,322,3.30548,-0.0136536,0.295362,0.845332
1900,319,3.30532,-0.0126237,0.294923,0.844768
1903,316,3.3063,-0.0108022,0.294817,0.843535
1906,313,3.30616,-0.00970926,0.294373,0.842993
1909,310,3.30432,-0.0138042,0.297487,0.843728
1912,307,3.30418,-0.0128283,0.297036,0.8431
1915,304,3.30614,-0.00679052,0.295117,0.842114
1918,301,3.30557,-0.006465,0.295114,0.840982
1921,298,3.30491,-0.0137998,0.29511,0.840589
1924,295,3.30475,-0.0126947,0.294656,0.840024
1927,292,3.30605,-0.0101582,0.294107,0.839322
1930,289,3.30548,-0.00978425,0.294115,0.838245
1933,286,3.30521,-0.0104153,0.294107,0.837892
1936,283,3.30455,-0.00945016,0.29411,0.837137
1939,280,3.3063,-0.00510589,0.292656,0.836356
1942,277,3.30557,-0.00645744,0.293097,0.835449
1945,274,3.30493,-0.0137474,0.293679,0.835063
1948,271,3.30393,-0.0144998,0.293519,0.834476
1951,268,3.30588,-0.0101904,0.292068,0.833693
1954,265,3.30545,-0.00983558,0.292102,0.832668
1957,262,3.30511,-0.0103766,0.292112,0.83239
1960,259,3.30439,-0.0112135,0.292557,0.831789
1963,256,3.30605,-0.00675922,0.291095,0.831049
1966,253,3.30565,-0.00650851,0.291098,0.829881
1969,250,3.30501,-0.0137685,0.291104,0.82952
1972,247,3.30418,-0.0145027,0.291516,0.828953
1975,244,3.30398,-0.01347,0.29107,0.828338
1978,241,3.30564,-0.0107882,0.290069,0.827816
1981,238,3.30476,-0.0105399,0.290533,0.826572
1984,235,3.3044,-0.0111599,0.290534,0.826234
1987,232,3.30622,-0.00680343,0.289092,0.825456
1990,229,3.30534,-0.00745882,0.289517,0.824913
1993,226,3.30503,-0.00812327,0.289506,0.824505
1996,223,3.30429,-0.0094056,0.289953,0.822153
1999,220,3.30334,-0.0118125,0.290841,0.823335
2002,217,3.30484,-0.00762204,0.289837,0.822311
2005,214,3.30457,-0.00820668,0.289809,0.82198
2008,211,3.30419,-0.00881057,0.289839,0.821655
2011,208,3.30357,-0.00788864,0.289841,0.820867
2014,205,3.3046,-0.0126218,0.28928,0.81982
2017,202,3.30422,-0.013248,0.289278,0.819454
2020,199,3.3039,-0.0139088,0.289275,0.819074
2023,196,3.3037,-0.0128852,0.288827,0.818457
2026,193,3.30478,-0.010275,0.288854,0.817715
2029,190,3.30419,-0.00997185,0.288262,0.816565
2032,187,3.30399,-0.00889873,0.287831,0.816016
2035,184,3.30332,-0.00962367,0.288285,0.815508
2038,181,3.30511,-0.0051729,0.286846,0.814782
2041,178,3.30432,-0.01161,0.286407,0.813803
2044,175,3.30425,-0.00881351,0.285515,0.813238
2047,172,3.30363,-0.00847057,0.285507,0.811823
2050,169,3.30494,-0.00585771,0.28494,0.811076
2053,166,3.30452,-0.00648874,0.284939,0.810714
2056,163,3.30387,-0.0139437,0.284929,0.810305
2059,160,3.30318,-0.0147144,0.285392,0.809814
2062,157,3.30471,-0.0108978,0.284408,0.808621
2065,154,3.30435,-0.0115623,0.284412,0.808259
2068,151,3.30393,-0.0122054,0.28442,0.807914
2071,148,3.3032,-0.0112413,0.28439,0.807054
2074,145,3.30497,-0.00683962,0.282942,0.806211
2077,142,3.30457,-0.00749653,0.282933,0.805835
2080,139,3.30372,-0.00821382,0.283367,0.805281
2083,136,3.30314,-0.00791082,0.283446,0.804134
2086,133,3.3025,-0.0153887,0.283367,0.803764
2089,130,3.30419,-0.0109386,0.282536,0.803056
2092,127,3.30358,-0.0105262,0.281959,0.801976
2095,124,3.30343,-0.00952039,0.281513,0.801316
2098,121,3.30262,-0.0102517,0.281933,0.800748
2101,118,3.30433,-0.00583289,0.2805,0.799931
2104,115,3.30379,-0.00644687,0.28049,0.799552
2107,112,3.30269,-0.0140855,0.280917,0.798958
2110,109,3.30206,-0.0137361,0.280915,0.797824
2113,106,3.30363,-0.0110222,0.279927,0.797537
2116,103,3.30346,-0.00990718,0.279494,0.796709
2119,100,3.30263,-0.0106476,0.27993,0.796174
2122,97,3.30234,-0.00961113,0.279564,0.795274
2125,94,3.30346,-0.00695163,0.278939,0.794833
2128,91,3.30304,-0.00830573,0.279373,0.793953
2131,88,3.30252,-0.00897502,0.279369,0.793556
2134,85,3.30173,-0.00973371,0.279805,0.793023
2137,82,3.30155,-0.00862849,0.279373,0.792447
2140,79,3.30258,-0.00600589,0.278896,0.791704
2143,76,3.30211,-0.00662953,0.278818,0.791357
2146,73,3.3012,-0.0131111,0.278342,0.789106
2149,70,3.30071,-0.0138336,0.279406,0.789873
2152,67,3.30247,-0.00931213,0.277407,0.789116
2155,64,3.30155,-0.0100631,0.27765,0.788564
2158,61,3.30141,-0.00962094,0.277402,0.787615
2161,58,3.3004,-0.0103716,0.27784,0.787086
2164,55,3.30224,-0.00587779,0.276419,0.786294
2167,52,3.30161,-0.0133983,0.276428,0.785978
2170,49,3.30096,-0.0130298,0.27643,0.784863
2173,46,3.29999,-0.0138226,0.276938,0.784294
2176,43,3.30157,-0.0110369,0.27587,0.783744
2179,40,3.30134,-0.00996458,0.276012,0.783133
2182,37,3.30061,-0.00900216,0.275218,0.782349
2185,34,3.30019,-0.00970576,0.275434,0.781943
2188,31,3.30189,-0.00518638,0.27402,0.781164
2191,28,3.30077,-0.0134773,0.274457,0.780266
2194,25,3.30032,-0.0124242,0.27402,0.779648
2197,22,3.30007,-0.011373,0.273589,0.779025
2200,19,3.30124,-0.00695204,0.272603,0.778047
2203,16,3.30097,-0.00653903,0.272167,0.777042
2206,13,3.29961,-0.0142057,0.272589,0.776486
2209,10,3.29926,-0.0131564,0.272159,0.775845
2212,7,3.3009,-0.00865031,0.270757,0.775069
2215,4,3.30006,-0.0100254,0.271178,0.774175
2216,3,3.30001,-0.00831923,0.270754,0.773898