File: hust_correlation_analysis/matrices/HUST_5-7_cycle_feature_matrix.csv
cycle_number,rul,voltage,current,capacity,charge_capacity
1,1450,3.32395,-0.0194511,0.278931,1.00051
3,1448,3.31149,-0.0198657,0.283652,0.994937
5,1446,3.31065,-0.0213958,0.284549,0.993737
7,1444,3.3113,-0.0220453,0.2841,0.993707
9,1442,3.31131,-0.022823,0.284098,0.993368
11,1440,3.3133,-0.0199593,0.282655,0.993054
13,1438,3.31307,-0.0207563,0.282656,0.992456
15,1436,3.3131,-0.0206746,0.282207,0.992753
17,1434,3.31305,-0.0213984,0.282204,0.992423
19,1432,3.31302,-0.0219916,0.282203,0.992155
21,1430,3.31294,-0.022096,0.282205,0.992119
23,1428,3.3152,-0.0193129,0.280761,0.991514
25,1426,3.31473,-0.0200013,0.280763,0.991219
27,1424,3.31452,-0.0199931,0.280764,0.991232
29,1422,3.31423,-0.0206888,0.280762,0.990911
31,1420,3.3145,-0.0207211,0.28076,0.990898
33,1418,3.31442,-0.0213151,0.280752,0.99061
35,1416,3.31469,-0.0212296,0.280305,0.990887
37,1414,3.31439,-0.0220127,0.280746,0.990271
39,1412,3.31382,-0.0219975,0.280746,0.990284
41,1410,3.31366,-0.0220722,0.280745,0.990236
43,1408,3.31359,-0.0227724,0.280742,0.98991
45,1406,3.31291,-0.0226012,0.280739,0.990223
47,1404,3.31526,-0.0200012,0.279745,0.989049
49,1402,3.31547,-0.0199964,0.279303,0.989302
51,1400,3.31573,-0.0199489,0.279302,0.98932
53,1398,3.3156,-0.0206192,0.279303,0.989026
55,1396,3.31532,-0.0206146,0.279303,0.989029
57,1394,3.31454,-0.0214101,0.279746,0.988425
59,1392,3.3139,-0.0212783,0.280191,0.988221
61,1390,3.31476,-0.0214086,0.279749,0.988442
63,1388,3.31497,-0.0221065,0.279746,0.98813
65,1386,3.3152,-0.0220002,0.279306,0.988432
67,1384,3.31514,-0.0227912,0.279752,0.987843
69,1382,3.31505,-0.0226565,0.279303,0.988138
71,1380,3.31617,-0.0192982,0.27831,0.987556
73,1378,3.31621,-0.0199358,0.278308,0.987513
75,1376,3.31621,-0.0199311,0.278308,0.987269
77,1374,3.31629,-0.0200004,0.278309,0.987232
79,1372,3.31568,-0.0208081,0.278749,0.986603
81,1370,3.31541,-0.0208663,0.278753,0.986594
83,1368,3.31652,-0.0206134,0.277866,0.987214
85,1366,3.31552,-0.021515,0.27831,0.986572
87,1364,3.31551,-0.0214351,0.278313,0.986631
89,1362,3.31585,-0.0221085,0.278316,0.986317
91,1360,3.31559,-0.0221525,0.278312,0.98629
93,1358,3.31544,-0.022113,0.278314,0.986321
95,1356,3.3153,-0.0229181,0.278756,0.985963
97,1354,3.31527,-0.0228277,0.27831,0.985997
99,1352,3.31447,-0.0228476,0.278756,0.985749
101,1350,3.31682,-0.0193864,0.277314,0.985455
103,1348,3.31679,-0.0200329,0.277318,0.985164
105,1346,3.31683,-0.0200769,0.277316,0.985134
107,1344,3.31637,-0.0200507,0.277319,0.985406
109,1342,3.31673,-0.020761,0.277317,0.984825
111,1340,3.31632,-0.020794,0.277314,0.984824
113,1338,3.31656,-0.0208155,0.277316,0.984816
115,1336,3.31567,-0.0216415,0.277761,0.984192
117,1334,3.3162,-0.021458,0.277318,0.984523
119,1332,3.31632,-0.0215151,0.277316,0.984496
121,1330,3.31634,-0.0223196,0.278029,0.983889
123,1328,3.3163,-0.022157,0.277313,0.984206
125,1326,3.31602,-0.022129,0.277286,0.984209
127,1324,3.31607,-0.0222031,0.277313,0.984184
129,1322,3.31557,-0.0229773,0.277758,0.983586
131,1320,3.3158,-0.0229576,0.277757,0.983601
133,1318,3.31593,-0.0228626,0.277313,0.983886
135,1316,3.3183,-0.01941,0.275875,0.983587
137,1314,3.31761,-0.02021,0.276316,0.982981
139,1312,3.31727,-0.0202431,0.276415,0.982974
141,1310,3.31722,-0.0202323,0.276318,0.982983
143,1308,3.31701,-0.0208365,0.276318,0.982705
145,1306,3.31698,-0.0208416,0.276317,0.982691
147,1304,3.31724,-0.0209502,0.276316,0.982651
149,1302,3.31711,-0.0208994,0.276314,0.98267
151,1300,3.3173,-0.0208997,0.276314,0.982673
153,1298,3.31681,-0.0215396,0.276314,0.982379
155,1296,3.31673,-0.0215622,0.276315,0.982371
157,1294,3.31655,-0.021504,0.276315,0.982401
159,1292,3.31692,-0.021577,0.276316,0.98262
161,1290,3.31653,-0.0223602,0.276758,0.98177
163,1288,3.31649,-0.022345,0.276705,0.981773
165,1286,3.31652,-0.0222995,0.276581,0.98204
167,1284,3.31619,-0.0231426,0.276758,0.981421
169,1282,3.31571,-0.0230243,0.276757,0.981473
171,1280,3.31557,-0.023028,0.27676,0.981474
173,1278,3.31541,-0.0230303,0.276757,0.98147
175,1276,3.31776,-0.0196062,0.275313,0.981143
177,1274,3.31834,-0.0202832,0.275314,0.980833
179,1272,3.31768,-0.020289,0.275312,0.980836
181,1270,3.31744,-0.0202792,0.275313,0.980841
183,1268,3.3173,-0.0202916,0.275313,0.980831
185,1266,3.31734,-0.0210361,0.276257,0.98025
187,1264,3.31693,-0.0209939,0.275756,0.980265
189,1262,3.3176,-0.0209317,0.275312,0.98054
191,1260,3.31757,-0.0209289,0.275311,0.980538
193,1258,3.31732,-0.0217713,0.275755,0.979914
195,1256,3.31656,-0.0217273,0.27602,0.979934
197,1254,3.31744,-0.0216271,0.275307,0.980215
199,1252,3.31604,-0.0217028,0.275753,0.979937
201,1250,3.31727,-0.0223938,0.275751,0.979627
203,1248,3.31664,-0.0224357,0.275752,0.979609
205,1246,3.31708,-0.0223711,0.275308,0.979886
207,1244,3.31656,-0.0223691,0.275751,0.979894
209,1242,3.31618,-0.022403,0.275751,0.979625
211,1240,3.31694,-0.0223587,0.275305,0.979879
213,1238,3.31626,-0.0231562,0.275746,0.979273
215,1236,3.31636,-0.0230943,0.275748,0.97931
217,1234,3.31697,-0.0228617,0.275305,0.979653
219,1232,3.31614,-0.023114,0.275746,0.979293
221,1230,3.31839,-0.0202539,0.274301,0.978715
223,1228,3.31832,-0.0202801,0.274301,0.978707
225,1226,3.31799,-0.0202686,0.274297,0.978696
227,1224,3.31815,-0.0201632,0.274292,0.978725
229,1222,3.31778,-0.0202178,0.274294,0.978702
231,1220,3.31846,-0.0202899,0.274294,0.978674
233,1218,3.31833,-0.0209892,0.274295,0.97836
235,1216,3.318,-0.020935,0.274386,0.978383
237,1214,3.31764,-0.0209809,0.274294,0.97836
239,1212,3.31701,-0.0210708,0.274739,0.978086
241,1210,3.31719,-0.021024,0.274738,0.978107
243,1208,3.31824,-0.02167,0.274561,0.978062
245,1206,3.31735,-0.0217793,0.274739,0.977773
247,1204,3.31739,-0.0217488,0.27474,0.97778
249,1202,3.31777,-0.0217215,0.274297,0.978037
251,1200,3.31721,-0.0224937,0.27474,0.977448
253,1198,3.31692,-0.0225195,0.274742,0.977447
255,1196,3.31658,-0.0223939,0.274742,0.9775
257,1194,3.31703,-0.0224852,0.274742,0.977463
259,1192,3.31698,-0.0225333,0.27474,0.977432
261,1190,3.3169,-0.0230953,0.274737,0.977162
263,1188,3.31659,-0.0230563,0.274735,0.977181
265,1186,3.31662,-0.023135,0.274739,0.977157
267,1184,3.31645,-0.023091,0.274736,0.977162
269,1182,3.31646,-0.023076,0.274739,0.977171
271,1180,3.31666,-0.0230914,0.274727,0.977123
273,1178,3.316,-0.0232296,0.275438,0.976817
275,1176,3.31684,-0.0231782,0.27517,0.976837
277,1174,3.31806,-0.0197644,0.273723,0.976498
279,1172,3.31559,-0.0238452,0.275614,0.976283
281,1170,3.31729,-0.0203071,0.274167,0.975983
283,1168,3.31807,-0.0204455,0.274166,0.97593
285,1166,3.31708,-0.020635,0.274166,0.975846
287,1164,3.31799,-0.0204475,0.273722,0.976174
289,1162,3.31769,-0.0210371,0.273722,0.975905
291,1160,3.3178,-0.0210956,0.273985,0.975892
293,1158,3.31761,-0.0212629,0.273722,0.975813
295,1156,3.31706,-0.0210347,0.27372,0.975903
297,1154,3.31763,-0.0210394,0.273721,0.976149
299,1152,3.31717,-0.0218608,0.274163,0.97529
301,1150,3.31788,-0.021753,0.273723,0.975594
303,1148,3.31727,-0.0218122,0.274166,0.975315
305,1146,3.31685,-0.0226903,0.274168,0.974943
307,1144,3.31687,-0.0225326,0.273725,0.975267
309,1142,3.31689,-0.0225473,0.273725,0.975267
311,1140,3.31717,-0.023177,0.273728,0.974996
313,1138,3.31694,-0.0232538,0.273729,0.974789
315,1136,3.31687,-0.0231655,0.273726,0.974994
317,1134,3.31702,-0.0232007,0.273725,0.974991
319,1132,3.31892,-0.0200988,0.272277,0.974505
321,1130,3.31916,-0.0204508,0.272278,0.974342
323,1128,3.31877,-0.0203603,0.272277,0.974374
325,1126,3.31853,-0.0203154,0.272275,0.974387
327,1124,3.31898,-0.02036,0.272547,0.97437
329,1122,3.31865,-0.0211087,0.272721,0.973795
331,1120,3.31829,-0.021225,0.272724,0.973764
333,1118,3.31824,-0.0211309,0.272286,0.974064
335,1116,3.31789,-0.0218917,0.27273,0.973492
337,1114,3.31776,-0.0218989,0.273001,0.973479
339,1112,3.31793,-0.0218567,0.272287,0.97374
341,1110,3.31772,-0.0225818,0.272728,0.97317
343,1108,3.31801,-0.0225778,0.272728,0.973182
345,1106,3.31736,-0.0225144,0.272723,0.973182
347,1104,3.31755,-0.0226334,0.273223,0.973142
349,1102,3.31729,-0.0232646,0.272718,0.972834
351,1100,3.31659,-0.0232645,0.273164,0.97259
353,1098,3.31758,-0.0233297,0.272716,0.972789
355,1096,3.31739,-0.0232916,0.272982,0.972815
357,1094,3.3195,-0.0197753,0.271271,0.972516
359,1092,3.31846,-0.0205596,0.271985,0.971957
361,1090,3.31928,-0.02043,0.271281,0.972258
363,1088,3.31846,-0.0206008,0.27172,0.971933
365,1086,3.31853,-0.0212747,0.271718,0.971623
367,1084,3.31902,-0.0211911,0.271277,0.971907
369,1082,3.3192,-0.0212094,0.271279,0.971814
371,1080,3.31921,-0.0212614,0.271778,0.971884
373,1078,3.31853,-0.0219734,0.271724,0.971342
375,1076,3.31901,-0.0218699,0.271282,0.971626
377,1074,3.3179,-0.0219044,0.271723,0.971364
379,1072,3.31844,-0.0219411,0.27172,0.971343
381,1070,3.31832,-0.02202,0.271717,0.971295
383,1068,3.31821,-0.0227,0.271719,0.970977
385,1066,3.31773,-0.0226805,0.271719,0.970999
387,1064,3.31777,-0.0227278,0.271718,0.970982
389,1062,3.31753,-0.0234271,0.271715,0.97065
391,1060,3.31744,-0.0233724,0.271718,0.970682
393,1058,3.31973,-0.0199049,0.270268,0.970607
395,1056,3.31914,-0.0206663,0.27071,0.969774
397,1054,3.31981,-0.0205709,0.270268,0.970047
399,1052,3.31952,-0.0206105,0.270268,0.970043
401,1050,3.31935,-0.0205345,0.270265,0.970073
403,1048,3.31905,-0.0205184,0.270263,0.970064
405,1046,3.31974,-0.0212159,0.27026,0.96975
407,1044,3.31895,-0.0213461,0.271203,0.969451
409,1042,3.31965,-0.0212112,0.270267,0.969771
411,1040,3.31928,-0.0213003,0.270266,0.969725
413,1038,3.31854,-0.0220831,0.270705,0.969131
415,1036,3.31924,-0.0220231,0.270263,0.969146
417,1034,3.31882,-0.0219184,0.270265,0.969444
419,1032,3.31889,-0.0228004,0.270707,0.968808
421,1030,3.31848,-0.0228208,0.270706,0.968798
423,1028,3.319075,-0.0226449,0.270264,0.96912
425,1026,3.31905,-0.0227252,0.270264,0.969086
427,1024,3.31831,-0.0234979,0.270707,0.9685
429,1022,3.31802,-0.023429,0.270706,0.968523
431,1020,3.31789,-0.023481,0.270706,0.968502
433,1018,3.32039,-0.020016,0.269253,0.968169
435,1016,3.32017,-0.020624,0.269253,0.968141
437,1014,3.31988,-0.0206422,0.269251,0.967877
439,1012,3.31938,-0.0206314,0.269252,0.967884
441,1010,3.31956,-0.0206403,0.269253,0.967878
443,1008,3.31929,-0.0214486,0.269695,0.967103
445,1006,3.31985,-0.0214049,0.269515,0.967549
447,1004,3.31992,-0.0213044,0.269254,0.967602
449,1002,3.3197,-0.0221343,0.269698,0.966997
451,1000,3.31971,-0.0220016,0.269256,0.967295
453,998,3.31937,-0.0220061,0.269255,0.967291
455,996,3.31864,-0.0221415,0.269695,0.966981
457,994,3.31904,-0.0228231,0.269695,0.966677
459,992,3.31904,-0.0228933,0.269696,0.966646
461,990,3.31893,-0.0229085,0.269695,0.965229
463,988,3.31931,-0.0227451,0.269252,0.966937
465,986,3.31849,-0.0229173,0.269692,0.966621
467,984,3.31833,-0.0235579,0.26969,0.966329
469,982,3.31837,-0.0234886,0.269688,0.966345
471,980,3.31833,-0.0236412,0.269691,0.966283
473,978,3.32041,-0.0208847,0.268681,0.965391
475,976,3.32032,-0.0207354,0.268239,0.965709
477,974,3.32026,-0.0207119,0.268241,0.965727
479,972,3.31962,-0.0214952,0.268681,0.965132
481,970,3.31968,-0.0214436,0.268679,0.965152
483,968,3.32005,-0.0213226,0.268241,0.965454
485,966,3.32027,-0.0214078,0.268238,0.965415
487,964,3.32012,-0.0222134,0.268678,0.964802
489,962,3.32017,-0.0221726,0.268735,0.964875
491,960,3.32001,-0.022187,0.268236,0.965051
493,958,3.31905,-0.0222464,0.268676,0.964783
495,956,3.31951,-0.0228815,0.268677,0.964491
497,954,3.31908,-0.023011,0.268676,0.964431
499,952,3.31955,-0.0229543,0.268678,0.964463
501,950,3.31967,-0.0229098,0.268236,0.964715
503,948,3.31858,-0.0236543,0.268677,0.96415
505,946,3.31836,-0.0236134,0.268677,0.964163
507,944,3.32025,-0.0208218,0.267665,0.963281
509,942,3.32082,-0.0208899,0.267754,0.963251
511,940,3.32086,-0.0208026,0.267222,0.963529
513,938,3.32081,-0.0207677,0.26722,0.963535
515,936,3.32049,-0.0207591,0.267717,0.963539
517,934,3.32051,-0.0214927,0.267007,0.963198
519,932,3.3201,-0.0215094,0.267656,0.962946
521,930,3.32024,-0.0215133,0.267215,0.963186
523,928,3.3203,-0.0214997,0.267216,0.963189
525,926,3.32015,-0.0223015,0.267654,0.962583
527,924,3.31991,-0.0223102,0.267655,0.962582
529,922,3.31933,-0.0223262,0.267655,0.962579
531,920,3.31989,-0.022212,0.267212,0.962861
533,918,3.3196,-0.0229572,0.267653,0.962293
535,916,3.31946,-0.0230366,0.267652,0.962246
537,914,3.31982,-0.0230395,0.267651,0.962248
539,912,3.31917,-0.0237314,0.26765,0.961935
541,910,3.31896,-0.0236966,0.267649,0.961941
543,908,3.31843,-0.0237061,0.267648,0.961938
545,906,3.3187,-0.0236792,0.267915,0.961946
547,904,3.32069,-0.0208764,0.266632,0.961056
549,902,3.32145,-0.0209096,0.266193,0.961291
551,900,3.32124,-0.0208843,0.266192,0.961307
553,898,3.32142,-0.0207922,0.265751,0.961579
555,896,3.32073,-0.0215114,0.266191,0.961014
557,894,3.32007,-0.0216295,0.266634,0.960721
559,892,3.32031,-0.0217235,0.266635,0.960693
561,890,3.32023,-0.0223105,0.266636,0.960432
563,888,3.32018,-0.0223834,0.266639,0.960398
565,886,3.31984,-0.0231606,0.266639,0.96006
567,884,3.31968,-0.0231191,0.266626,0.960078
569,882,3.3195,-0.0230961,0.266637,0.96008
571,880,3.32006,-0.022964,0.266195,0.96038
573,878,3.32002,-0.023784,0.266636,0.959763
575,876,3.3197,-0.0238496,0.266637,0.959741
577,874,3.31926,-0.0238372,0.266893,0.959743
579,872,3.321,-0.0210733,0.265619,0.958837
581,870,3.32069,-0.0209982,0.265621,0.958872
583,868,3.32145,-0.0209528,0.265178,0.95914
585,866,3.321,-0.0217974,0.26562,0.958508
587,864,3.32093,-0.0216409,0.26562,0.958592
589,862,3.3207,-0.0224939,0.265622,0.958213
591,860,3.32008,-0.0224416,0.265622,0.958242
593,858,3.32038,-0.0223238,0.265621,0.958294
595,856,3.32077,-0.0231769,0.265887,0.957908
597,854,3.32028,-0.0231039,0.265619,0.958179
599,852,3.32001,-0.0232163,0.265618,0.957881
601,850,3.31952,-0.0239442,0.266059,0.95731
603,848,3.31983,-0.023877,0.266115,0.957574
605,846,3.31915,-0.0239368,0.266058,0.957308
607,844,3.32203,-0.0202367,0.264154,0.957289
609,842,3.32222,-0.0209534,0.264155,0.956959
611,840,3.32158,-0.0210366,0.264596,0.956695
613,838,3.32173,-0.0210444,0.264155,0.956927
615,836,3.32119,-0.0217964,0.264595,0.956341
617,834,3.32099,-0.0218208,0.264597,0.956339
619,832,3.32087,-0.0224956,0.26485,0.956035
621,830,3.32079,-0.0224294,0.264598,0.956074
623,828,3.32084,-0.0231643,0.264597,0.955744
625,826,3.32099,-0.0231441,0.265095,0.955754
627,824,3.32,-0.0232513,0.264595,0.955692
629,822,3.31995,-0.0239276,0.265035,0.955144
631,820,3.32012,-0.0240587,0.265035,0.955092
633,818,3.32068,-0.023931,0.264592,0.955374
635,816,3.32219,-0.0211678,0.263573,0.954469
637,814,3.32159,-0.021148,0.263659,0.95447
639,812,3.3213,-0.0210573,0.263572,0.954506
641,810,3.32078,-0.0219276,0.26401,0.953875
643,808,3.32152,-0.0219847,0.264014,0.953855
645,806,3.32098,-0.0226264,0.264014,0.953571
647,804,3.321,-0.0227161,0.264016,0.953548
649,802,3.32067,-0.0225511,0.263571,0.95385
651,800,3.31983,-0.0234275,0.264457,0.952983
653,798,3.32053,-0.0234458,0.264014,0.9532
655,796,3.32036,-0.0242116,0.264455,0.952624
657,794,3.3203,-0.0241588,0.264012,0.952893
659,792,3.32213,-0.0211091,0.262634,0.952328
661,790,3.32212,-0.0211758,0.262546,0.951037
663,788,3.32131,-0.0212417,0.262988,0.952271
665,786,3.32206,-0.0219807,0.262987,0.951693
667,784,3.32152,-0.0220264,0.262985,0.951664
669,782,3.32146,-0.0226515,0.262985,0.951373
671,780,3.32051,-0.0228292,0.263428,0.951063
673,778,3.32019,-0.0227271,0.263426,0.951116
675,776,3.32036,-0.0235279,0.263426,0.950752
677,774,3.32105,-0.0234809,0.262985,0.951011
679,772,3.32045,-0.0243377,0.263677,0.950381
681,770,3.3198,-0.0242121,0.263425,0.950442
683,768,3.32259,-0.0204673,0.261513,0.950415
685,766,3.32213,-0.0212975,0.261954,0.949807
687,764,3.32221,-0.0213444,0.261953,0.949783
689,762,3.3219,-0.022008,0.261951,0.949474
691,760,3.32191,-0.0219878,0.261952,0.949487
693,758,3.32084,-0.0228707,0.262391,0.948843
695,756,3.32065,-0.022761,0.262394,0.948897
697,754,3.32043,-0.0228996,0.262392,0.948842
699,752,3.32094,-0.0235422,0.26239,0.948545
701,750,3.32112,-0.0234998,0.26195,0.948797
703,748,3.32026,-0.0243214,0.262387,0.94818
705,746,3.32054,-0.024246,0.262384,0.948211
707,744,3.32237,-0.0213045,0.260916,0.947594
709,742,3.32196,-0.0214535,0.261359,0.947287
711,740,3.32227,-0.0212666,0.260914,0.947606
713,738,3.32175,-0.0222417,0.261358,0.946935
715,736,3.32107,-0.0221117,0.261359,0.946997
717,734,3.32069,-0.0229259,0.261799,0.946381
719,732,3.32137,-0.0229027,0.261353,0.946436
721,730,3.32103,-0.0236324,0.261796,0.946056
723,728,3.32094,-0.0236277,0.261351,0.946284
725,726,3.32013,-0.0237177,0.261795,0.946014
727,724,3.31978,-0.024444,0.261796,0.945678
729,722,3.32223,-0.0207642,0.26082,0.945387
731,720,3.32243,-0.0214431,0.260324,0.945327
733,718,3.32225,-0.0215483,0.260325,0.94505
735,716,3.3222,-0.0222116,0.260324,0.944742
737,714,3.32109,-0.0222128,0.260767,0.944512
739,712,3.32131,-0.0230667,0.260767,0.944127
741,710,3.32132,-0.0237077,0.260766,0.94365
743,708,3.32123,-0.0237929,0.260765,0.943804
745,706,3.32013,-0.0246133,0.26121,0.943193
747,704,3.31979,-0.0245306,0.261211,0.943231
749,702,3.32251,-0.0208407,0.259289,0.943165
751,700,3.32211,-0.0215388,0.259734,0.942621
753,698,3.32255,-0.0216375,0.259289,0.942809
755,696,3.32164,-0.0223136,0.259734,0.942272
757,694,3.32084,-0.0224153,0.260176,0.941982
759,692,3.32123,-0.0231692,0.260175,0.941642
761,690,3.32191,-0.023017,0.259731,0.941958
763,688,3.3209,-0.0239505,0.26018,0.94132
765,686,3.32068,-0.0246254,0.260179,0.941022
767,684,3.31944,-0.0246955,0.260625,0.940755
769,682,3.32257,-0.0217092,0.259645,0.940128
771,680,3.32216,-0.021644,0.259148,0.940169
773,678,3.32221,-0.0225605,0.259147,0.93976
775,676,3.32141,-0.0224595,0.259145,0.939795
777,674,3.32057,-0.0232897,0.259592,0.939201
779,672,3.32136,-0.0232444,0.259147,0.939455
781,670,3.32078,-0.0239628,0.25959,0.93889
783,668,3.32056,-0.0248397,0.259589,0.938496
785,666,3.32011,-0.0247278,0.259588,0.938543
787,664,3.32236,-0.0217685,0.258107,0.937897
789,662,3.32281,-0.0217866,0.258109,0.937849
791,660,3.32248,-0.0225478,0.258111,0.937571
793,658,3.32198,-0.022541,0.258111,0.937578
795,656,3.32083,-0.0233398,0.259006,0.936751
797,654,3.32086,-0.02423,0.259005,0.936355
799,652,3.32052,-0.0241123,0.259001,0.936404
801,650,3.32055,-0.0248696,0.259003,0.936073
803,648,3.32264,-0.0211316,0.257073,0.935999
805,646,3.32194,-0.0218059,0.257521,0.935474
807,644,3.32241,-0.0226374,0.257519,0.935098
809,642,3.32204,-0.0226142,0.257517,0.935106
811,640,3.32125,-0.0234766,0.257963,0.934484
813,638,3.3209,-0.0233481,0.258224,0.934531
815,636,3.32115,-0.0241955,0.257962,0.934153
817,634,3.32051,-0.0250478,0.258409,0.933544
819,632,3.32043,-0.0249075,0.257955,0.934029
821,630,3.32224,-0.0220389,0.256916,0.932883
823,628,3.32221,-0.0220333,0.256916,0.932866
825,626,3.32222,-0.0228283,0.256915,0.932519
827,624,3.32239,-0.0227495,0.256912,0.932551
829,622,3.32072,-0.0236283,0.257362,0.931927
831,620,3.32003,-0.0244173,0.257814,0.931364
833,618,3.32056,-0.0252043,0.258077,0.931009
835,616,3.32052,-0.0250938,0.25736,0.931285
837,614,3.32193,-0.0221622,0.256321,0.930386
839,612,3.32152,-0.0221416,0.25632,0.930391
841,610,3.32158,-0.022852,0.256318,0.930071
843,608,3.32207,-0.029405,0.255869,0.929593
845,606,3.32122,-0.0237585,0.256399,0.929674
847,604,3.32095,-0.0225485,0.256317,0.928984
849,602,3.32058,-0.0302596,0.256316,0.928972
851,600,3.32058,-0.023259,0.256315,0.928662
853,598,3.32243,-0.0280722,0.255277,0.927779
855,596,3.32199,-0.0222862,0.255275,0.928119
857,594,3.32119,-0.0286634,0.255276,0.927522
859,592,3.3217,-0.0295038,0.255537,0.92715
861,590,3.32111,-0.028459,0.255278,0.926389
863,588,3.32141,-0.0263791,0.254382,0.92655
865,586,3.3196,-0.0272602,0.255278,0.925704
867,584,3.32234,-0.0242315,0.253784,0.925053
869,582,3.32205,-0.0242376,0.253782,0.925056
871,580,3.32198,-0.0247644,0.253596,0.925056
873,578,3.32142,-0.0257615,0.25378,0.924385
875,576,3.3214,-0.0257463,0.25378,0.924398
877,574,3.32101,-0.0245833,0.25378,0.923682
879,572,3.32119,-0.0234206,0.25313,0.923207
881,570,3.32295,-0.0224332,0.252525,0.922651
883,568,3.32259,-0.0202024,0.251838,0.922629
885,566,3.32249,-0.0269387,0.251839,0.921874
887,564,3.32166,-0.0296276,0.252283,0.921682
889,562,3.32175,-0.0225655,0.252281,0.921353
891,560,3.32051,-0.0305069,0.252728,0.920833
893,558,3.32098,-0.0292607,0.252282,0.920612
895,556,3.32385,-0.0233899,0.249905,0.920462
897,554,3.32236,-0.0261668,0.250788,0.92001
899,552,3.32164,-0.0249494,0.250789,0.919303
901,550,3.32187,-0.0257883,0.250787,0.918931
903,548,3.32195,-0.0258657,0.250783,0.918905
905,546,3.32096,-0.0286379,0.251231,0.918683
907,544,3.32031,-0.0272989,0.251229,0.91805
909,542,3.32407,-0.0194911,0.248669,0.917743
911,540,3.32382,-0.0201273,0.248411,0.917476
913,538,3.32313,-0.0212536,0.248858,0.916753
915,536,3.32199,-0.0219741,0.249295,0.916206
917,534,3.32196,-0.0227565,0.2493,0.915876
919,532,3.32121,-0.0313676,0.249741,0.9153
921,530,3.32364,-0.0275175,0.247566,0.915247
923,528,3.32297,-0.0263009,0.247805,0.914538
925,526,3.32278,-0.0270492,0.247803,0.914212
927,524,3.32252,-0.0259071,0.247804,0.913488
929,522,3.32206,-0.0259169,0.247801,0.913676
931,520,3.32107,-0.0286502,0.248244,0.91329
933,518,3.32144,-0.0274582,0.247802,0.912814
935,516,3.32338,-0.0244264,0.246748,0.911929
937,514,3.32356,-0.0223237,0.24587,0.912084
939,512,3.32301,-0.0231409,0.246307,0.911502
941,510,3.32312,-0.0218815,0.245868,0.911051
943,508,3.3225,-0.0228299,0.246309,0.910409
945,506,3.32198,-0.0314395,0.246308,0.910093
947,504,3.32289,-0.0224947,0.245922,0.909353
949,502,3.32319,-0.0283971,0.245252,0.909228
951,500,3.32323,-0.0291005,0.24525,0.908911
953,498,3.32288,-0.0279145,0.244814,0.908429
955,496,3.32184,-0.0307761,0.245689,0.907969
957,494,3.32113,-0.029532,0.245687,0.907274
959,492,3.32376,-0.0244269,0.243755,0.90651
961,490,3.3238,-0.0243698,0.243317,0.906767
963,488,3.32288,-0.0272286,0.244188,0.906281
965,486,3.32259,-0.028101,0.244188,0.905907
967,484,3.32264,-0.0248235,0.243822,0.905091
969,482,3.32243,-0.0248609,0.24375,0.905094
971,480,3.32352,-0.0238453,0.242704,0.904322
973,478,3.32373,-0.0225885,0.24269,0.903865
975,476,3.32359,-0.0233245,0.242692,0.903556
977,474,3.32247,-0.0242546,0.243124,0.902922
979,472,3.32171,-0.0309585,0.243195,0.902232
981,470,3.32144,-0.0317616,0.243123,0.901876
983,468,3.32407,-0.0286586,0.241628,0.901244
985,466,3.32302,-0.0215722,0.242062,0.900644
987,464,3.32204,-0.0293687,0.242058,0.900709
989,462,3.32271,-0.028296,0.241621,0.900166
991,460,3.32249,-0.0289715,0.241622,0.899868
993,458,3.32129,-0.029958,0.242057,0.899218
995,456,3.32396,-0.0227306,0.239688,0.898341
997,454,3.32298,-0.023472,0.240121,0.897791
999,452,3.32356,-0.0223803,0.239687,0.897257
1001,450,3.32302,-0.0242705,0.239686,0.897683
1003,448,3.32159,-0.0251173,0.240551,0.896862
1005,446,3.32487,-0.0199024,0.238188,0.896356
1007,444,3.32382,-0.0287406,0.238867,0.895743
1009,442,3.32287,-0.0216107,0.239048,0.895149
1011,440,3.32284,-0.0282829,0.238615,0.894704
1013,438,3.32157,-0.0312479,0.239481,0.894227
1015,436,3.32154,-0.0299002,0.239044,0.893792
1017,434,3.32409,-0.025858,0.237115,0.894028
1019,432,3.32406,-0.0247664,0.237112,0.893008
1021,430,3.32308,-0.0255951,0.23754,0.892412
1023,428,3.32287,-0.0244045,0.237111,0.891926
1025,426,3.32175,-0.0252119,0.237537,0.891345
1027,424,3.32256,-0.0259578,0.237106,0.891264
1029,422,3.32472,-0.0207937,0.23561,0.890263
1031,420,3.32373,-0.0235967,0.236037,0.890063
1033,418,3.32317,-0.0224377,0.23645,0.889315
1035,416,3.322968,-0.0224751,0.23603,0.889287
1037,414,3.32211,-0.0311231,0.236033,0.889044
1039,412,3.32449,-0.0280619,0.234531,0.888376
1041,410,3.32356,-0.0287495,0.234962,0.887866
1043,408,3.32323,-0.0277576,0.234962,0.88706
1045,406,3.32266,-0.0285245,0.234533,0.886722
1047,404,3.32159,-0.0314679,0.235822,0.886269
1049,402,3.32448,-0.0241484,0.23346,0.885385
1051,400,3.32461,-0.0229277,0.23303,0.884896
1053,398,3.32309,-0.025773,0.23388,0.884461
1055,396,3.3224,-0.0245581,0.233879,0.883732
1057,394,3.32297,-0.0314709,0.233452,0.883229
1059,392,3.32235,-0.0241979,0.233453,0.88289
1061,390,3.32332,-0.0231438,0.2328,0.882126
1063,388,3.32368,-0.0277792,0.231951,0.881591
1065,386,3.32303,-0.0287212,0.232376,0.880962
1067,384,3.32225,-0.0234651,0.232803,0.88078
1069,382,3.32383,-0.0264653,0.231302,0.87974
1071,380,3.32381,-0.0271995,0.231302,0.879441
1073,378,3.32359,-0.027968,0.2313,0.879116
1075,376,3.32259,-0.0288841,0.231724,0.8785
1077,374,3.32273,-0.0254337,0.230871,0.877924
1079,372,3.32462,-0.0224154,0.229792,0.876993
1081,370,3.32428,-0.0231997,0.229791,0.876666
1083,368,3.32303,-0.0240845,0.230211,0.876059
1085,366,3.32415,-0.0227146,0.229362,0.875865
1087,364,3.32283,-0.0316387,0.229782,0.875301
1089,362,3.32426,-0.0223325,0.228701,0.874819
1091,360,3.32372,-0.0293,0.2287,0.874092
1093,358,3.32436,-0.0259502,0.227851,0.873461
1095,356,3.32281,-0.0289574,0.228695,0.872997
1097,354,3.32162,-0.0297223,0.229116,0.872437
1099,352,3.3243,-0.0244882,0.227187,0.871657
1101,350,3.32402,-0.0253447,0.227189,0.871306
1103,348,3.32368,-0.0261057,0.227192,0.871004
1105,346,3.32293,-0.0258349,0.227612,0.869648
1107,344,3.32264,-0.026558,0.227612,0.869346
1109,342,3.32338,-0.0255375,0.226949,0.868578
1111,340,3.32381,-0.0220908,0.226102,0.867995
1113,338,3.32412,-0.0290758,0.225683,0.867507
1115,336,3.32274,-0.0319728,0.2261,0.867323
1117,334,3.32419,-0.0267693,0.225013,0.86605
1119,332,3.32372,-0.0296819,0.225912,0.865863
1121,330,3.32343,-0.0281984,0.225009,0.865453
1123,328,3.32356,-0.027016,0.224589,0.864937
1125,326,3.32219,-0.0299257,0.225429,0.86452
1127,324,3.3241,-0.0249738,0.223916,0.863347
1129,322,3.32372,-0.0263513,0.223972,0.862549
1131,320,3.32324,-0.0250439,0.223911,0.862081
1133,318,3.32286,-0.0259563,0.223912,0.861722
1135,316,3.32183,-0.0268647,0.224332,0.861115
1137,314,3.32359,-0.0215409,0.222816,0.860333
1139,312,3.32316,-0.0306656,0.222813,0.859752
1141,310,3.32292,-0.0232614,0.222814,0.859399
1143,308,3.32157,-0.0322524,0.223233,0.858893
1145,306,3.32429,-0.025748,0.221535,0.857342
1147,304,3.32352,-0.0287866,0.221716,0.857114
1149,302,3.32253,-0.0274432,0.221711,0.856356
1151,300,3.32288,-0.0283424,0.221711,0.856056
1153,298,3.32428,-0.0228015,0.219776,0.855326
1155,296,3.32396,-0.0216121,0.219775,0.854569
1157,294,3.3241,-0.0223752,0.21997,0.854266
1159,292,3.32281,-0.0233579,0.22019,0.853638
1161,290,3.32162,-0.0249407,0.220607,0.852762
1163,288,3.32352,-0.0301713,0.219506,0.851862
1165,286,3.32304,-0.031038,0.219506,0.851521
1167,284,3.32243,-0.0235397,0.219739,0.851151
1169,282,3.32192,-0.0330336,0.219922,0.850495
1171,280,3.324,-0.0272924,0.217983,0.84983
1173,278,3.32268,-0.0289941,0.218451,0.848917
1175,276,3.32342,-0.0277161,0.21798,0.848425
1177,274,3.3222,-0.0285052,0.218396,0.847879
1179,272,3.32371,-0.0231718,0.216872,0.846817
1181,270,3.32343,-0.0240872,0.21687,0.846454
1183,268,3.32303,-0.0235925,0.216866,0.845404
1185,266,3.3223,-0.0242559,0.216859,0.845129
1187,264,3.32379,-0.0295792,0.215753,0.844207
1189,262,3.32381,-0.0282247,0.215339,0.843983
1191,260,3.32213,-0.0313054,0.216166,0.843287
1193,258,3.32224,-0.0287569,0.21575,0.842062
1195,256,3.3241,-0.025503,0.214229,0.841402
1197,254,3.32325,-0.024102,0.214277,0.840729
1199,252,3.32278,-0.0259208,0.214642,0.83978
1201,250,3.32173,-0.028859,0.215053,0.839616
1203,248,3.32431,-0.0212476,0.213111,0.838437
1205,246,3.32379,-0.0220329,0.213111,0.838133
1207,244,3.32203,-0.0252454,0.213936,0.837626
1209,242,3.32167,-0.0332067,0.213932,0.83663
1211,240,3.32368,-0.0299768,0.212401,0.835951
1213,238,3.32245,-0.0308352,0.213043,0.835379
1215,236,3.32225,-0.0316721,0.212811,0.835
1217,234,3.32206,-0.030334,0.212396,0.834572
1219,232,3.32083,-0.0299523,0.212808,0.833239
1221,230,3.32338,-0.0243429,0.210862,0.832484
1223,228,3.32248,-0.0274162,0.211271,0.832288
1225,226,3.32168,-0.0259987,0.211267,0.8316
1227,224,3.32134,-0.0342731,0.211267,0.830498
1229,222,3.32312,-0.0222472,0.209735,0.829886
1231,220,3.32219,-0.0318469,0.210145,0.829288
1233,218,3.32208,-0.033424,0.210144,0.828684
1235,216,3.32077,-0.0343719,0.210603,0.828079
1237,214,3.32349,-0.0288548,0.208608,0.82727
1239,212,3.32243,-0.0297724,0.209017,0.826686
1241,210,3.3217,-0.029326,0.209014,0.825624
1243,208,3.32129,-0.0301381,0.209013,0.825301
1245,206,3.32255,-0.0268137,0.207885,0.8244
1247,204,3.32329,-0.0232648,0.207064,0.823773
1249,202,3.32199,-0.024996,0.207472,0.823096
1251,200,3.32333,-0.0215569,0.206339,0.821997
1253,198,3.32271,-0.031243,0.206339,0.821637
1255,196,3.32171,-0.0321672,0.206746,0.821057
1257,194,3.32125,-0.0317367,0.206747,0.81999
1259,192,3.32319,-0.0282434,0.205204,0.819386
1261,190,3.32187,-0.0290864,0.20561,0.818813
1263,188,3.32169,-0.028825,0.205612,0.817692
1265,186,3.3213,-0.0297194,0.205789,0.817373
1267,184,3.32264,-0.0263181,0.204476,0.816483
1269,182,3.32219,-0.0259331,0.204474,0.815395
1271,180,3.321548,-0.0266876,0.204474,0.815113
1273,178,3.32158,-0.0253183,0.204064,0.814641
1275,176,3.32231,-0.0228631,0.203333,0.813136
1277,174,3.32205,-0.0326262,0.203329,0.812803
1279,172,3.32118,-0.0334901,0.203367,0.812481
1281,170,3.32048,-0.0351602,0.203735,0.811619
1283,168,3.32204,-0.0318782,0.20259,0.81067
1285,166,3.32175,-0.0304209,0.202181,0.810223
1287,164,3.32136,-0.0300488,0.202178,0.809121
1289,162,3.32227,-0.0288208,0.201438,0.808403
1291,160,3.32259,-0.0274939,0.201031,0.807908
1293,158,3.32157,-0.0270715,0.201029,0.806829
1295,156,3.32093,-0.0278155,0.201028,0.806556
1297,154,3.32343,-0.0221562,0.199473,0.805732
1299,152,3.32191,-0.0239837,0.199878,0.80457
1301,150,3.32182,-0.0248738,0.199877,0.804251
1303,148,3.32007,-0.0281707,0.200691,0.803787
1305,146,3.32258,-0.0299352,0.198723,0.802302
1307,144,3.32167,-0.0308991,0.198721,0.801939
1309,142,3.32092,-0.0316767,0.199126,0.801415
1311,140,3.31963,-0.0336905,0.199533,0.800445
1313,138,3.32127,-0.0302804,0.198591,0.79951
1315,136,3.32215,-0.0263951,0.197155,0.799196
1317,134,3.32087,-0.0282046,0.197556,0.798291
1319,132,3.32303,-0.022446,0.196455,0.797221
1321,130,3.32143,-0.0266517,0.1968,0.796434
1323,128,3.32118,-0.0275045,0.196798,0.796132
1325,126,3.32024,-0.0353434,0.196796,0.795356
1327,124,3.32175,-0.0325358,0.195634,0.794216
1329,122,3.32146,-0.0311664,0.195226,0.793711
1331,120,3.31996,-0.0307906,0.195629,0.792371
1333,118,3.32299,-0.0271577,0.193655,0.792004
1335,116,3.32182,-0.0280271,0.194058,0.791449
1337,114,3.32163,-0.0277245,0.194055,0.790324
1339,112,3.3207,-0.0285387,0.194053,0.790033
1341,110,3.32276,-0.0235926,0.192483,0.788657
1343,108,3.32196,-0.0268388,0.192881,0.78848
1345,106,3.32102,-0.0346032,0.192878,0.787962
1347,104,3.32238,-0.0319753,0.191706,0.786535
1349,102,3.32256,-0.0304945,0.191301,0.786075
1351,100,3.32152,-0.0300969,0.191456,0.78498
1353,98,3.32001,-0.0333729,0.1921,0.784568
1355,96,3.32313,-0.0275162,0.190125,0.783735
1357,94,3.32111,-0.029441,0.190924,0.782559
1359,92,3.32181,-0.0278514,0.19027,0.782384
1361,90,3.3199,-0.0298556,0.19092,0.78119
1363,88,3.32273,-0.0239439,0.188942,0.780377
1365,86,3.32111,-0.024897,0.189337,0.779787
1367,84,3.32101,-0.0359711,0.189223,0.779174
1369,82,3.32314,-0.022927,0.187965,0.778579
1371,80,3.32248,-0.0318128,0.187757,0.77751
1373,78,3.32078,-0.0329706,0.18815,0.776847
1375,76,3.32164,-0.0299769,0.187356,0.775933
1377,74,3.32213,-0.0311097,0.18696,0.775345
1379,72,3.32251,-0.0296756,0.186563,0.774863
1381,70,3.32092,-0.031624,0.186956,0.773932
1383,68,3.32359,-0.0232372,0.184978,0.772731
1385,66,3.32251,-0.02745,0.185368,0.772238
1387,64,3.32187,-0.0355285,0.185366,0.771479
1389,62,3.31964,-0.028107,0.186158,0.770281
1391,60,3.32318,-0.0337336,0.184171,0.769948
1393,58,3.32158,-0.0253118,0.184566,0.769589
1395,56,3.3218,-0.0340985,0.184166,0.768596
1397,54,3.32269,-0.0329956,0.183363,0.767801
1399,52,3.32256,-0.0301425,0.182968,0.766566
1401,50,3.32081,-0.033496,0.183754,0.76615
1403,48,3.32108,-0.0329606,0.183357,0.765352
1405,46,3.32222,-0.0293037,0.182158,0.764451
1407,44,3.32258,-0.0287305,0.181764,0.763677
1409,42,3.32122,-0.0297763,0.182156,0.763073
1411,40,3.32317,-0.0342533,0.180578,0.761682
1413,38,3.32258,-0.0350169,0.180557,0.761422
1415,36,3.32213,-0.0369291,0.180557,0.760784
1417,34,3.32366,-0.0332733,0.179347,0.759867
1419,32,3.32332,-0.0304479,0.178956,0.758617
1421,30,3.32261,-0.0337734,0.179344,0.758475
1423,28,3.32162,-0.033324,0.179474,0.757394
1425,26,3.32465,-0.0270312,0.177351,0.756636
1427,24,3.32268,-0.0340235,0.178518,0.755987
1429,22,3.32206,-0.0325946,0.178514,0.755243
1431,20,3.32456,-0.027247,0.176521,0.754158
1433,18,3.32337,-0.0283354,0.176905,0.753536
1435,16,3.32341,-0.0277248,0.176529,0.752772
1437,14,3.32514,-0.0239877,0.175295,0.751852
1439,12,3.32319,-0.0259298,0.175679,0.750943
1441,10,3.32342,-0.0341738,0.17529,0.75048
1443,8,3.32145,-0.0386585,0.176066,0.749721
1445,6,3.3243,-0.032267,0.174067,0.748967
1447,4,3.32356,-0.0318331,0.174064,0.747891
1448,3,3.3234,-0.0328312,0.174065,0.747561