File: hust_correlation_analysis/matrices/HUST_1-1_cycle_feature_matrix.csv
cycle_number,rul,voltage,current,capacity,charge_capacity
1,1506,3.30667,-0.00483905,0.370936,1.04004
3,1504,3.29738,-0.00508182,0.375918,1.03589
5,1502,3.29743,-0.00600345,0.375828,1.03525
7,1500,3.29889,-0.00384154,0.374836,1.03471
9,1498,3.29893,-0.00441228,0.374835,1.03431
11,1496,3.29944,-0.00486542,0.374371,1.03411
13,1494,3.29934,-0.00540255,0.374365,1.03372
15,1492,3.29927,-0.00545161,0.374363,1.03369
17,1490,3.29906,-0.0059928,0.374364,1.03331
19,1488,3.29904,-0.00652575,0.374365,1.03293
21,1486,3.30059,-0.00384952,0.37339,1.03279
23,1484,3.30035,-0.00432362,0.373387,1.03244
25,1482,3.3002,-0.00436428,0.373372,1.03238
27,1480,3.30057,-0.00437026,0.372985,1.03246
29,1478,3.30052,-0.00494454,0.372893,1.03204
31,1476,3.30049,-0.0049814,0.372879,1.03199
33,1474,3.30052,-0.00550352,0.372885,1.03162
35,1472,3.30036,-0.00551282,0.372877,1.0316
37,1470,3.30045,-0.0055404,0.372877,1.03158
39,1468,3.30032,-0.00604664,0.372868,1.0312
41,1466,3.30009,-0.00607594,0.372868,1.03117
43,1464,3.30026,-0.00663656,0.37286,1.03076
45,1462,3.29962,-0.00688843,0.373324,1.03047
47,1460,3.30156,-0.00397939,0.371958,1.03059
49,1458,3.30145,-0.0044576,0.371825,1.03025
51,1456,3.30128,-0.0043816,0.371883,1.0303
53,1454,3.30108,-0.00508585,0.372329,1.02965
55,1452,3.30134,-0.00506265,0.371875,1.02979
57,1450,3.30135,-0.00507396,0.371874,1.02979
59,1448,3.3013,-0.00550952,0.371875,1.02948
61,1446,3.30115,-0.00552292,0.371866,1.02944
63,1444,3.30121,-0.00559929,0.37187,1.02941
65,1442,3.30118,-0.00600803,0.371862,1.02909
67,1440,3.30098,-0.00613067,0.371892,1.02908
69,1438,3.30096,-0.00663198,0.371883,1.02869
71,1436,3.30077,-0.00661412,0.371889,1.02872
73,1434,3.30215,-0.00450042,0.371351,1.02799
75,1432,3.302,-0.00451122,0.371344,1.02797
77,1430,3.30182,-0.00458401,0.371357,1.02793
79,1428,3.3021,-0.00450144,0.370886,1.0281
81,1426,3.30194,-0.00509391,0.371339,1.02753
83,1424,3.30169,-0.00512608,0.371341,1.02753
85,1422,3.30177,-0.00513049,0.371346,1.02754
87,1420,3.30171,-0.00559138,0.371445,1.02721
89,1418,3.30175,-0.00557356,0.371358,1.02726
91,1416,3.30173,-0.00610547,0.371357,1.02686
93,1414,3.3016,-0.00612239,0.371358,1.02684
95,1412,3.30154,-0.00615387,0.371355,1.02682
97,1410,3.30136,-0.00608132,0.371349,1.02687
99,1408,3.30145,-0.00661627,0.371353,1.02647
101,1406,3.30119,-0.00642117,0.371344,1.0266
103,1404,3.30105,-0.00666197,0.371348,1.02643
105,1402,3.3027,-0.00404814,0.37037,1.02623
107,1400,3.30275,-0.00466131,0.370374,1.02579
109,1398,3.30261,-0.00448754,0.370376,1.02593
111,1396,3.30285,-0.00496721,0.370375,1.02557
113,1394,3.30268,-0.00499142,0.370378,1.02556
115,1392,3.30256,-0.0050013,0.370377,1.02555
117,1390,3.30247,-0.00500418,0.370461,1.02553
119,1388,3.30229,-0.00557285,0.370817,1.02498
121,1386,3.30211,-0.00554961,0.370817,1.025
123,1384,3.30195,-0.00557114,0.370817,1.02498
125,1382,3.30189,-0.00559712,0.370817,1.02496
127,1380,3.3019,-0.00613898,0.370824,1.02458
129,1378,3.30168,-0.00614113,0.370837,1.02461
131,1376,3.30217,-0.00606744,0.370384,1.02481
133,1374,3.30178,-0.00658548,0.370835,1.0243
135,1372,3.30155,-0.00657221,0.370974,1.02429
137,1370,3.30154,-0.00663321,0.37083,1.02424
139,1368,3.30144,-0.00663215,0.3709,1.0242
141,1366,3.3032,-0.00447759,0.36985,1.02368
143,1364,3.30313,-0.0044804,0.369849,1.0237
145,1362,3.30301,-0.00443831,0.369853,1.02373
147,1360,3.3031,-0.00447393,0.369858,1.0235
149,1358,3.30264,-0.00505273,0.370388,1.02317
151,1356,3.30253,-0.00501032,0.370335,1.02326
153,1354,3.30278,-0.00498529,0.369887,1.02342
155,1352,3.30288,-0.00500366,0.369881,1.02339
157,1350,3.30298,-0.00555192,0.369891,1.02301
159,1348,3.30242,-0.00561237,0.370334,1.0228
161,1346,3.30233,-0.00555279,0.370467,1.02283
163,1344,3.30261,-0.00552827,0.369871,1.02298
165,1342,3.30242,-0.00613658,0.370324,1.0224
167,1340,3.30238,-0.00605221,0.370319,1.02246
169,1338,3.30222,-0.00605269,0.370315,1.02246
171,1336,3.302,-0.00607886,0.370316,1.02244
173,1334,3.30202,-0.00607218,0.370308,1.02243
175,1332,3.30201,-0.00604584,0.370297,1.0224
177,1330,3.30205,-0.00669537,0.370308,1.02222
179,1328,3.30193,-0.00669387,0.370313,1.02199
181,1326,3.30189,-0.00663715,0.370304,1.02201
183,1324,3.30182,-0.00666284,0.370312,1.022
185,1322,3.30345,-0.00399758,0.369339,1.02183
187,1320,3.30343,-0.00448402,0.369337,1.02146
189,1318,3.30335,-0.00455144,0.369336,1.02143
191,1316,3.30324,-0.00447992,0.369336,1.02147
193,1314,3.30338,-0.00450017,0.369421,1.02148
195,1312,3.30333,-0.00500052,0.369348,1.02111
197,1310,3.3032,-0.0050081,0.369341,1.0211
199,1308,3.30309,-0.00501096,0.369337,1.02109
201,1306,3.30309,-0.00505571,0.369403,1.02105
203,1304,3.30309,-0.00500761,0.369318,1.02105
205,1302,3.3027,-0.00510672,0.369769,1.02083
207,1300,3.30303,-0.00505197,0.369394,1.02097
209,1298,3.30294,-0.00509747,0.3693,1.02092
211,1296,3.30302,-0.00499991,0.369281,1.02096
213,1294,3.3028,-0.00569872,0.369753,1.02037
215,1292,3.30241,-0.00525928,0.369819,1.0206
217,1290,3.30245,-0.00541232,0.369731,1.02052
219,1288,3.3024,-0.0057758,0.369748,1.0203
221,1286,3.30226,-0.00578689,0.369747,1.02028
223,1284,3.30258,-0.00568704,0.369295,1.02048
225,1282,3.30242,-0.00629337,0.369747,1.01991
227,1280,3.30275,-0.00617478,0.369293,1.02013
229,1278,3.30225,-0.00624074,0.369745,1.01994
231,1276,3.30207,-0.00628623,0.369743,1.01992
233,1274,3.30256,-0.00625576,0.369297,1.02009
235,1272,3.30209,-0.00680474,0.369757,1.01958
237,1270,3.30233,-0.00665882,0.37014,1.01982
239,1268,3.30378,-0.0044982,0.368757,1.01914
241,1266,3.30363,-0.00452608,0.368779,1.01911
243,1264,3.30345,-0.00456511,0.368921,1.01906
245,1262,3.30343,-0.00461013,0.368773,1.01904
247,1260,3.3034,-0.00464379,0.368776,1.01902
249,1258,3.30336,-0.00456983,0.368771,1.01906
251,1256,3.30329,-0.00463635,0.368772,1.01902
253,1254,3.30346,-0.00516736,0.368778,1.01864
255,1252,3.30326,-0.00517363,0.368787,1.01865
257,1250,3.30373,-0.00503776,0.368327,1.01889
259,1248,3.30332,-0.00565054,0.368866,1.01833
261,1246,3.3033,-0.00561709,0.368791,1.01809
263,1244,3.30322,-0.00563983,0.368929,1.01832
265,1242,3.30314,-0.00567324,0.36878,1.01828
267,1240,3.30297,-0.00563822,0.368777,1.0183
269,1238,3.30293,-0.00564339,0.36877,1.0183
271,1236,3.30303,-0.00569477,0.368839,1.01824
273,1234,3.30309,-0.0062068,0.368775,1.01788
275,1232,3.30288,-0.00622458,0.368776,1.01786
277,1230,3.30282,-0.0061821,0.368785,1.01794
279,1228,3.30289,-0.00670555,0.368791,1.01756
281,1226,3.30278,-0.00672271,0.36879,1.01756
283,1224,3.30266,-0.00672182,0.368786,1.01754
285,1222,3.30261,-0.0067169,0.368779,1.01754
287,1220,3.30418,-0.00399541,0.367815,1.01737
289,1218,3.30385,-0.00460697,0.368261,1.01681
291,1216,3.30373,-0.00466583,0.36909,1.01676
293,1214,3.30413,-0.00456782,0.3678,1.01696
295,1212,3.30398,-0.00457363,0.3678,1.01695
297,1210,3.30401,-0.00456362,0.367806,1.01697
299,1208,3.30365,-0.00514219,0.368271,1.01646
301,1206,3.30397,-0.00505551,0.367817,1.01667
303,1204,3.30383,-0.0056049,0.368171,1.01613
305,1202,3.30362,-0.00558353,0.36827,1.01614
307,1200,3.30346,-0.00559384,0.368412,1.01611
309,1198,3.30343,-0.00565897,0.368258,1.01605
311,1196,3.30333,-0.00565058,0.36826,1.01606
313,1194,3.30321,-0.00566232,0.368255,1.01604
315,1192,3.30351,-0.00561701,0.367804,1.0162
317,1190,3.30323,-0.00624768,0.368266,1.01564
319,1188,3.30314,-0.00620233,0.368269,1.01569
321,1186,3.3032,-0.00669616,0.368277,1.01534
323,1184,3.30311,-0.00668447,0.368283,1.01537
325,1182,3.30287,-0.00669322,0.368288,1.01538
327,1180,3.30288,-0.00667148,0.368279,1.01539
329,1178,3.30464,-0.00449083,0.367371,1.01481
331,1176,3.30452,-0.00449657,0.367297,1.01479
333,1174,3.30435,-0.00448915,0.367296,1.01479
335,1172,3.30427,-0.00454524,0.367295,1.01475
337,1170,3.30414,-0.0045656,0.367293,1.01474
339,1168,3.30396,-0.00515612,0.367763,1.01422
341,1166,3.30419,-0.00504978,0.367313,1.01444
343,1164,3.30426,-0.00503787,0.367331,1.01448
345,1162,3.30388,-0.00564463,0.367783,1.01392
347,1160,3.30411,-0.00553138,0.367315,1.01411
349,1158,3.30406,-0.0055362,0.367326,1.01412
351,1156,3.30397,-0.00553562,0.367179,1.01406
353,1154,3.3039,-0.00553158,0.367297,1.01406
355,1152,3.30381,-0.00554734,0.367299,1.01404
357,1150,3.30351,-0.00619125,0.367754,1.01344
359,1148,3.30334,-0.00625635,0.367756,1.01341
361,1146,3.30342,-0.00619783,0.367785,1.01352
363,1144,3.30342,-0.00666895,0.367782,1.01318
365,1142,3.30328,-0.00668507,0.367787,1.01318
367,1140,3.30492,-0.00395423,0.366692,1.01303
369,1138,3.30497,-0.00455387,0.366809,1.01258
371,1136,3.30486,-0.00446552,0.366812,1.01266
373,1134,3.30483,-0.00451642,0.366818,1.01263
375,1132,3.30476,-0.00446494,0.366891,1.01268
377,1130,3.3045,-0.00443114,0.366812,1.01267
379,1128,3.30453,-0.00447229,0.366785,1.01259
381,1126,3.30449,-0.00500461,0.366953,1.01224
383,1124,3.30439,-0.00504156,0.36681,1.01223
385,1122,3.30444,-0.00510756,0.366821,1.0122
387,1120,3.30442,-0.00551753,0.366825,1.01192
389,1118,3.30448,-0.00552864,0.366816,1.01188
391,1116,3.30435,-0.00554044,0.366789,1.0118
393,1114,3.30433,-0.00557002,0.366782,1.01178
395,1112,3.30419,-0.00560233,0.36678,1.01175
397,1110,3.30413,-0.00554283,0.366772,1.01178
399,1108,3.30407,-0.00555219,0.366768,1.01177
401,1106,3.30384,-0.00616886,0.367227,1.01119
403,1104,3.30367,-0.00623755,0.367235,1.01117
405,1102,3.30385,-0.00617589,0.366846,1.01132
407,1100,3.30371,-0.00619575,0.366779,1.01132
409,1098,3.30349,-0.00672374,0.367232,1.01081
411,1096,3.30343,-0.00674644,0.367223,1.01078
413,1094,3.30343,-0.00674829,0.367223,1.01078
415,1092,3.30332,-0.00676191,0.367128,1.01076
417,1090,3.30356,-0.00673001,0.366771,1.01091
419,1088,3.30494,-0.00455248,0.367075,1.01021
421,1086,3.30481,-0.004549,0.366249,1.01022
423,1084,3.30479,-0.00460408,0.366251,1.01017
425,1082,3.30461,-0.00457763,0.366249,1.01021
427,1080,3.3047,-0.00513334,0.366259,1.00981
429,1078,3.30452,-0.00512968,0.366266,1.00985
431,1076,3.30487,-0.00506081,0.365811,1.01002
433,1074,3.30451,-0.00517236,0.366259,1.0098
435,1072,3.30466,-0.0056462,0.366249,1.00943
437,1070,3.30455,-0.00565136,0.366252,1.00805
439,1068,3.30445,-0.00564613,0.366246,1.00942
441,1066,3.30429,-0.00568181,0.366249,1.00942
443,1064,3.30435,-0.00618636,0.366247,1.00903
445,1062,3.30423,-0.00621694,0.36626,1.00906
447,1060,3.30476,-0.00612648,0.365824,1.00929
449,1058,3.30438,-0.00666886,0.366294,1.00879
451,1056,3.30411,-0.00671894,0.366288,1.00901
453,1054,3.30404,-0.00671612,0.366287,1.00875
455,1052,3.30393,-0.00672833,0.366261,1.00869
457,1050,3.30552,-0.00398307,0.365281,1.00851
459,1048,3.30563,-0.00454632,0.365273,1.00808
461,1046,3.3055,-0.00451697,0.365268,1.00808
463,1044,3.30539,-0.00457273,0.365268,1.00803
465,1042,3.30532,-0.0046096,0.365269,1.00802
467,1040,3.30539,-0.00511876,0.365279,1.00768
469,1038,3.30523,-0.00504967,0.365306,1.00779
471,1036,3.30541,-0.00508335,0.365316,1.00781
473,1034,3.30485,-0.00565895,0.365769,1.00726
475,1032,3.30508,-0.00553,0.365288,1.0074
477,1030,3.305,-0.00564618,0.365279,1.00729
479,1028,3.30495,-0.0056721,0.365249,1.00727
481,1026,3.30495,-0.00565028,0.365272,1.00729
483,1024,3.30464,-0.00621655,0.365727,1.00674
485,1022,3.30453,-0.00619666,0.365725,1.00676
487,1020,3.30474,-0.00620509,0.365278,1.0069
489,1018,3.30453,-0.00677513,0.365762,1.00642
491,1016,3.30468,-0.00664143,0.365312,1.00666
493,1014,3.30604,-0.00447045,0.364797,1.00596
495,1012,3.30595,-0.00444948,0.364797,1.00597
497,1010,3.30576,-0.00447513,0.364796,1.00597
499,1008,3.30578,-0.00455221,0.36479,1.0059
501,1006,3.3057,-0.00455458,0.364796,1.00591
503,1004,3.30572,-0.00507823,0.364792,1.00551
505,1002,3.30565,-0.00501059,0.364859,1.00555
507,1000,3.30552,-0.00507926,0.364793,1.00552
509,998,3.30573,-0.00555113,0.364798,1.00517
511,996,3.30548,-0.00558147,0.364795,1.00516
513,994,3.30531,-0.00559053,0.364946,1.00517
515,992,3.30528,-0.00554738,0.364806,1.00521
517,990,3.30495,-0.00610051,0.365262,1.00468
519,988,3.30512,-0.00604279,0.364799,1.00484
521,986,3.30501,-0.00609226,0.364804,1.00481
523,984,3.30468,-0.00670837,0.365259,1.00425
525,982,3.30498,-0.00666437,0.364807,1.0044
527,980,3.30488,-0.00665811,0.364805,1.0044
529,978,3.30481,-0.00662957,0.364797,1.00441
531,976,3.306069,-0.00455355,0.364289,1.00214
533,974,3.30642,-0.00449024,0.363833,1.00383
535,972,3.30628,-0.00449878,0.363832,1.00381
537,970,3.30624,-0.00449912,0.36383,1.00381
539,968,3.30586,-0.00504765,0.364284,1.0047
541,966,3.3058,-0.00513748,0.364281,1.00322
543,964,3.305647,-0.00508514,0.364279,1.00326
545,962,3.305584,-0.00509862,0.364275,1.00323
547,960,3.30558,-0.00566215,0.364276,1.00282
549,958,3.30554,-0.00568197,0.364277,1.0028
551,956,3.30543,-0.00565798,0.364277,1.00283
553,954,3.30593,-0.00561562,0.36382,1.00297
555,952,3.30549,-0.00619088,0.364273,1.00242
557,950,3.30528,-0.00620779,0.365108,1.00241
559,948,3.30527,-0.00622576,0.364277,1.00241
561,946,3.30528,-0.00675693,0.364278,1.00204
563,944,3.30509,-0.0066925,0.36428,1.00208
565,942,3.305,-0.00672499,0.364275,1.00205
567,940,3.30659,-0.00403588,0.363304,1.00184
569,938,3.30667,-0.00453812,0.363317,1.0015
571,936,3.30646,-0.00455456,0.363303,1.00146
573,934,3.30633,-0.0045683,0.363309,1.00144
575,932,3.30633,-0.00522695,0.363774,1.00088
577,930,3.30636,-0.00514619,0.363309,1.00104
579,928,3.30633,-0.00511899,0.363302,1.00106
581,926,3.30584,-0.00554049,0.363756,1.00063
583,924,3.30572,-0.00565561,0.363756,1.00054
585,922,3.30611,-0.00560107,0.363297,1.00071
587,920,3.30588,-0.00617191,0.363753,1.00017
589,918,3.30552,-0.00620394,0.363824,1.00015
591,916,3.30539,-0.00624457,0.363758,1.00011
593,914,3.30542,-0.00674861,0.363754,0.999726
595,912,3.30532,-0.00681396,0.363664,0.999687
597,910,3.30667,-0.00407989,0.362792,0.999531
599,908,3.30682,-0.00454407,0.362796,0.999206
601,906,3.30665,-0.00448773,0.362799,0.99926
603,904,3.30687,-0.00506854,0.362889,0.998822
605,902,3.30677,-0.00501058,0.362801,0.998869
607,900,3.30654,-0.00506703,0.36287,0.998843
609,898,3.30625,-0.0056215,0.363253,0.998058
611,896,3.30602,-0.00564962,0.363252,0.998281
613,894,3.30627,-0.00555676,0.362795,0.99847
615,892,3.3063,-0.0056104,0.362792,0.998417
617,890,3.30597,-0.00617982,0.363237,0.997871
619,888,3.30568,-0.0062776,0.363241,0.997775
621,886,3.30558,-0.00628322,0.363246,0.997805
623,884,3.30569,-0.00680656,0.363239,0.9974
625,882,3.3055,-0.00675715,0.362409,0.997468
627,880,3.30716,-0.00455151,0.36228,0.996889
629,878,3.3071,-0.00451596,0.362279,0.996923
631,876,3.30689,-0.00456776,0.362276,0.996887
633,874,3.30662,-0.00515101,0.362733,0.996331
635,872,3.30685,-0.0050819,0.362271,0.996499
637,870,3.30679,-0.00510106,0.362278,0.9965
639,868,3.30664,-0.00497772,0.362259,0.995034
641,866,3.30628,-0.00579929,0.36273,0.995852
643,864,3.30652,-0.00559765,0.362271,0.996118
645,862,3.30607,-0.00629944,0.362733,0.995484
647,860,3.30583,-0.00625363,0.362732,0.995535
649,858,3.30587,-0.00680792,0.363574,0.995138
651,856,3.30577,-0.0067747,0.36273,0.995146
653,854,3.30741,-0.00400413,0.361768,0.994996
655,852,3.30739,-0.00450384,0.361753,0.994597
657,850,3.30726,-0.0045768,0.361758,0.994555
659,848,3.30717,-0.00455771,0.36176,0.994587
661,846,3.30678,-0.00516179,0.362211,0.994008
663,844,3.30671,-0.00519486,0.362213,0.993989
665,842,3.30692,-0.00510893,0.361758,0.994182
667,840,3.30654,-0.00576093,0.363055,0.993589
669,838,3.30638,-0.00573498,0.362211,0.993583
671,836,3.30635,-0.00626155,0.362212,0.993211
673,834,3.30617,-0.00628578,0.36222,0.993204
675,832,3.30595,-0.00629269,0.362192,0.993127
677,830,3.30563,-0.00693901,0.362656,0.992554
679,828,3.30589,-0.00684783,0.362192,0.992718
681,826,3.30573,-0.00685916,0.362184,0.992692
683,824,3.30719,-0.00472003,0.361705,0.992028
685,822,3.30709,-0.00510352,0.362538,0.991758
687,820,3.30693,-0.00517718,0.361707,0.991722
689,818,3.30689,-0.00569249,0.361717,0.991376
691,816,3.30676,-0.00567426,0.361703,0.991344
693,814,3.30667,-0.00567801,0.361699,0.99133
695,812,3.30665,-0.00615134,0.361704,0.990986
697,810,3.30629,-0.00624624,0.361689,0.990876
699,808,3.30625,-0.00624672,0.361697,0.99089
701,806,3.30573,-0.00689485,0.362129,0.990258
703,804,3.30777,-0.00399374,0.360722,0.99035
705,802,3.30725,-0.00469263,0.361191,0.989727
707,800,3.30724,-0.00517029,0.361201,0.989407
709,798,3.30716,-0.00512439,0.361202,0.98945
711,796,3.30714,-0.00562535,0.361206,0.989083
713,794,3.307,-0.00565277,0.36134,0.989046
715,792,3.30651,-0.00628439,0.361657,0.988477
717,790,3.30637,-0.00636187,0.361657,0.988416
719,788,3.3064,-0.00680487,0.361654,0.988083
721,786,3.30615,-0.00682545,0.36165,0.98806
723,784,3.30772,-0.00403651,0.361521,0.987907
725,782,3.30722,-0.00456881,0.361138,0.987376
727,780,3.30751,-0.00455855,0.360686,0.98752
729,778,3.30698,-0.00511082,0.361142,0.986994
731,776,3.30691,-0.00569157,0.361149,0.986585
733,774,3.30677,-0.00570899,0.361148,0.986567
735,772,3.30635,-0.00626438,0.361605,0.986046
737,770,3.30651,-0.00620266,0.36115,0.986223
739,768,3.30616,-0.00683307,0.361729,0.985646
741,766,3.30604,-0.0068027,0.3616,0.985645
743,764,3.30757,-0.00409034,0.361469,0.985413
745,762,3.30748,-0.00456727,0.360631,0.985061
747,760,3.30729,-0.0046044,0.360631,0.985036
749,758,3.30723,-0.00510525,0.360634,0.984662
751,756,3.30684,-0.00570084,0.361097,0.984127
753,754,3.30656,-0.00576139,0.361099,0.984094
755,752,3.30646,-0.00619409,0.361194,0.98378
757,750,3.30632,-0.00621081,0.361094,0.983753
759,748,3.30631,-0.00680045,0.361106,0.98334
761,746,3.30607,-0.0067687,0.36109,0.983335
763,744,3.30729,-0.00412084,0.360583,0.982929
765,742,3.3072,-0.00465671,0.360588,0.982545
767,740,3.30697,-0.00466996,0.360585,0.982536
769,738,3.30681,-0.00383224,0.360571,0.98182
771,736,3.30674,-0.00527409,0.360556,0.982007
773,734,3.30636,-0.00597974,0.361045,0.981461
775,732,3.3065,-0.00488904,0.360584,0.981069
777,730,3.30622,-0.0106242,0.36059,0.981028
779,728,3.30593,-0.0106791,0.360591,0.980982
781,726,3.30587,-0.0111189,0.360584,0.980635
783,724,3.30768,-0.00693924,0.359158,0.980313
785,722,3.30724,-0.00751514,0.359631,0.979791
787,720,3.30751,-0.00746387,0.359167,0.979949
789,718,3.30691,-0.00817939,0.359615,0.979281
791,716,3.30676,-0.00813078,0.359621,0.97934
793,714,3.30668,-0.00862817,0.359615,0.97896
795,712,3.3067,-0.00769121,0.359167,0.97847
797,710,3.3062,-0.00690308,0.359178,0.977779
799,708,3.30789,-0.00456526,0.35821,0.977252
801,706,3.3077,-0.00454781,0.358199,0.977234
803,704,3.30757,-0.00492661,0.3582,0.976956
805,702,3.30699,-0.00522441,0.35865,0.976614
807,700,3.3071,-0.00432454,0.358187,0.976069
809,698,3.30693,-0.00437918,0.358191,0.976039
811,696,3.30682,-0.00442931,0.358188,0.976008
813,694,3.30673,-0.00496243,0.358191,0.975628
815,692,3.30651,-0.00496977,0.358157,0.975548
817,690,3.30628,-0.0111085,0.358192,0.975261
819,688,3.30762,-0.00748868,0.357231,0.974399
821,686,3.30786,-0.00741576,0.356926,0.974577
823,684,3.30731,-0.00807968,0.357239,0.973985
825,682,3.30735,-0.00851053,0.357234,0.973662
827,680,3.30709,-0.00854182,0.357226,0.973623
829,678,3.30682,-0.00777212,0.357231,0.972883
831,676,3.30704,-0.00763782,0.356763,0.973077
833,674,3.30648,-0.00828469,0.357226,0.972479
835,672,3.30799,-0.0054847,0.356265,0.972324
837,670,3.30764,-0.00608169,0.35673,0.971766
839,668,3.3076,-0.0051696,0.356259,0.971223
841,666,3.30736,-0.00522054,0.356403,0.971193
843,664,3.30723,-0.005767,0.35626,0.970787
845,662,3.30667,-0.00642636,0.356717,0.970204
847,660,3.30708,-0.00490467,0.355809,0.970256
849,658,3.30651,-0.00549484,0.356324,0.96969
851,656,3.30815,-0.00322442,0.355308,0.969151
853,654,3.3077,-0.00890547,0.35531,0.969156
855,652,3.30732,-0.0094822,0.355762,0.968869
857,650,3.30747,-0.00942508,0.355304,0.968763
859,648,3.30756,-0.00858732,0.354856,0.968198
861,646,3.30697,-0.00914099,0.355318,0.967704
863,644,3.30661,-0.00836893,0.355323,0.966962
865,642,3.30824,-0.00602929,0.355198,0.966466
867,640,3.30818,-0.00453889,0.353909,0.966085
869,638,3.30808,-0.00508983,0.353908,0.965922
871,636,3.30787,-0.00512044,0.354044,0.965892
873,634,3.30746,-0.00571862,0.354408,0.965317
875,632,3.30716,-0.00580518,0.354346,0.965263
877,630,3.30709,-0.00638975,0.35434,0.96482
879,628,3.30696,-0.00642654,0.354339,0.964812
881,626,3.30857,-0.00269791,0.352939,0.96412
883,624,3.30836,-0.00319855,0.352951,0.963776
885,622,3.30771,-0.00943512,0.353407,0.963287
887,620,3.30787,-0.00856665,0.352954,0.962726
889,618,3.30764,-0.00855965,0.352949,0.962723
891,616,3.30755,-0.00902855,0.352995,0.962341
893,614,3.30731,-0.00910603,0.352932,0.962276
895,612,3.30694,-0.00977143,0.353381,0.961677
897,610,3.30837,-0.00693368,0.352425,0.961514
899,608,3.30826,-0.0074868,0.352425,0.961119
901,606,3.30821,-0.00751862,0.352498,0.961113
903,604,3.30825,-0.00659719,0.35199,0.960607
905,602,3.30763,-0.00721087,0.352431,0.960006
907,600,3.30764,-0.00577771,0.352062,0.959858
909,598,3.30705,-0.00639835,0.352428,0.959293
911,596,3.30695,-0.00693984,0.352334,0.958901
913,594,3.30885,-0.00406853,0.35103,0.958899
915,592,3.30816,-0.00475953,0.351476,0.958252
917,590,3.30815,-0.00520976,0.35147,0.957924
919,588,3.30789,-0.0052433,0.351451,0.95786
921,586,3.30734,-0.0058957,0.351897,0.957256
923,584,3.30749,-0.00493912,0.35144,0.956736
925,582,3.30703,-0.0106896,0.35144,0.956734
927,580,3.30831,-0.00847331,0.35098,0.956088
929,578,3.30826,-0.00756698,0.350527,0.955545
931,576,3.30825,-0.00658236,0.350079,0.955061
933,574,3.30817,-0.0071638,0.35007,0.954635
935,572,3.30798,-0.00717036,0.350066,0.954624
937,570,3.30742,-0.00775241,0.350513,0.954074
939,568,3.30691,-0.00842868,0.350974,0.953486
941,566,3.30902,-0.00405786,0.349114,0.953321
943,564,3.30851,-0.00463859,0.34957,0.952809
945,562,3.30797,-0.00530423,0.350164,0.952207
947,560,3.30811,-0.00523399,0.349555,0.952361
949,558,3.30762,-0.00579763,0.350019,0.951848
951,556,3.30742,-0.00491981,0.349564,0.951276
953,554,3.30703,-0.0112419,0.349572,0.95086
955,552,3.30827,-0.00899657,0.349903,0.950167
957,550,3.30844,-0.00891565,0.34862,0.950328
959,548,3.30793,-0.00953243,0.34907,0.949779
961,546,3.308,-0.00860436,0.348608,0.949219
963,544,3.3078,-0.00862657,0.348617,0.949232
965,542,3.30722,-0.0092791,0.34907,0.948649
967,540,3.3072,-0.00838174,0.348614,0.94808
969,538,3.30873,-0.0060701,0.347722,0.947532
971,536,3.30818,-0.00668997,0.348119,0.946972
973,534,3.30815,-0.00525557,0.347665,0.946816
975,532,3.30797,-0.00578188,0.347666,0.946438
977,530,3.30737,-0.00634169,0.348118,0.94591
979,528,3.30741,-0.00549708,0.347667,0.945332
981,526,3.30884,-0.0026909,0.346719,0.945114
983,524,3.30827,-0.00321102,0.34717,0.944633
985,522,3.30784,-0.00955633,0.347171,0.944206
987,520,3.3073,-0.0102023,0.347678,0.943646
989,518,3.30713,-0.0106929,0.34763,0.943298
991,516,3.30728,-0.0107108,0.347165,0.943382
993,514,3.30872,-0.00704661,0.346227,0.942487
995,512,3.30866,-0.00612425,0.345788,0.941987
997,510,3.3081,-0.00665955,0.346288,0.941474
999,508,3.30798,-0.00730596,0.346237,0.941008
1001,506,3.3076,-0.0063887,0.346238,0.940363
1003,504,3.30768,-0.00632163,0.345782,0.940505
1005,502,3.30881,-0.00405625,0.34529,0.939803
1007,500,3.30882,-0.00317782,0.344842,0.939245
1009,498,3.30811,-0.00527751,0.345738,0.938821
1011,496,3.30813,-0.00437561,0.345289,0.938257
1013,494,3.30789,-0.00433595,0.345337,0.9383
1015,492,3.30748,-0.010651,0.345288,0.937894
1017,490,3.30855,-0.00843002,0.344889,0.937186
1019,488,3.30853,-0.00747356,0.344348,0.936664
1021,486,3.30793,-0.00815513,0.34481,0.936091
1023,484,3.3078,-0.00722609,0.344385,0.935531
1025,482,3.30729,-0.00787813,0.344808,0.934964
1027,480,3.307,-0.00791412,0.3448,0.934933
1029,478,3.30849,-0.00556718,0.343865,0.934405
1031,476,3.3086,-0.00459666,0.34341,0.933888
1033,474,3.30802,-0.00526142,0.343864,0.933321
1035,472,3.30797,-0.00429102,0.343553,0.932777
1037,470,3.30751,-0.00494185,0.343861,0.932207
1039,468,3.30729,-0.00556719,0.343863,0.931766
1041,466,3.30871,-0.00895581,0.342976,0.931277
1043,464,3.30796,-0.00960447,0.34338,0.93071
1045,462,3.30796,-0.00868539,0.342924,0.930152
1047,460,3.30743,-0.010149,0.343373,0.930321
1049,458,3.30704,-0.00934349,0.343456,0.929569
1051,456,3.30857,-0.00698439,0.342438,0.929049
1053,454,3.3085,-0.00598404,0.342805,0.928544
1055,452,3.30798,-0.00659803,0.342432,0.927984
1057,450,3.30795,-0.00573719,0.341979,0.927389
1059,448,3.30732,-0.0063598,0.34243,0.926813
1061,446,3.30708,-0.00694793,0.342423,0.926406
1063,444,3.30868,-0.00264192,0.34103,0.926026
1065,442,3.3085,-0.00320359,0.341037,0.925647
1067,440,3.3078,-0.0038865,0.341484,0.925038
1069,438,3.30705,-0.0103421,0.341935,0.924495
1071,436,3.3069,-0.0108548,0.341934,0.92413
1073,434,3.30678,-0.0113831,0.34193,0.923735
1075,432,3.30829,-0.00853504,0.340993,0.923553
1077,430,3.30801,-0.00768561,0.341004,0.922859
1079,428,3.30798,-0.00678524,0.34056,0.922313
1081,426,3.30736,-0.00741649,0.341002,0.921723
1083,424,3.30697,-0.00798805,0.340286,0.921297
1085,422,3.30862,-0.00416578,0.339617,0.920865
1087,420,3.30823,-0.00381394,0.339622,0.91955
1089,418,3.30768,-0.00446991,0.340074,0.918983
1091,416,3.30738,-0.00499217,0.34007,0.918608
1093,414,3.30688,-0.0108018,0.340112,0.918621
1095,412,3.30844,-0.00844878,0.339128,0.918055
1097,410,3.30785,-0.00913085,0.33958,0.917484
1099,408,3.30786,-0.00817394,0.339128,0.91693
1101,406,3.30717,-0.00889328,0.339588,0.916334
1103,404,3.30653,-0.00942555,0.33999,0.915751
1105,402,3.30646,-0.00939804,0.339534,0.91587
1107,400,3.30778,-0.00569302,0.338615,0.91497
1109,398,3.30727,-0.0068767,0.339086,0.91409
1111,396,3.30727,-0.00590468,0.338647,0.913568
1113,394,3.30663,-0.00659313,0.339097,0.912983
1115,392,3.30668,-0.00567311,0.33865,0.91393
1117,390,3.30803,-0.00328029,0.337702,0.911868
1119,388,3.3074,-0.0038786,0.338946,0.911287
1121,386,3.30729,-0.00972016,0.337677,0.911414
1123,384,3.30674,-0.0103606,0.338124,0.910858
1125,382,3.30659,-0.0093982,0.337672,0.910308
1127,380,3.30775,-0.00716081,0.337193,0.909565
1129,378,3.30754,-0.00771768,0.33719,0.909136
1131,376,3.30703,-0.00745802,0.337197,0.90804
1133,374,3.30698,-0.00643187,0.336767,0.907596
1135,372,3.30838,-0.0027498,0.335857,0.906683
1137,370,3.3082,-0.00329078,0.336008,0.906335
1139,368,3.30736,-0.00389021,0.336285,0.905735
1141,366,3.30687,-0.0103415,0.336311,0.905385
1143,364,3.3062,-0.0109904,0.336755,0.904845
1145,362,3.30779,-0.00859732,0.335807,0.904271
1147,360,3.30727,-0.00772461,0.335825,0.903588
1149,358,3.30706,-0.00833966,0.335835,0.90317
1151,356,3.30694,-0.00739897,0.335364,0.90257
1153,354,3.30626,-0.0080348,0.335825,0.90204
1155,352,3.30763,-0.00481095,0.334902,0.900743
1157,350,3.3073,-0.00534111,0.334902,0.900385
1159,348,3.30722,-0.00443009,0.334462,0.89984
1161,346,3.30654,-0.00500909,0.3349,0.899303
1163,344,3.30801,-0.00266379,0.333977,0.897337
1165,342,3.30714,-0.00923344,0.334426,0.898185
1167,340,3.30687,-0.00978395,0.334423,0.897796
1169,338,3.3064,-0.00896453,0.334424,0.897038
1171,336,3.3061,-0.00952966,0.334424,0.896653
1173,334,3.30724,-0.00723104,0.33477,0.895937
1175,332,3.30689,-0.00689467,0.333931,0.894846
1177,330,3.30651,-0.00744249,0.333954,0.894471
1179,328,3.30642,-0.00651893,0.333503,0.893893
1181,326,3.30754,-0.00418023,0.333042,0.893217
1183,324,3.30748,-0.00320197,0.332592,0.892702
1185,322,3.30724,-0.00378817,0.332585,0.892265
1187,320,3.30632,-0.0103639,0.333032,0.891732
1189,318,3.30564,-0.0110444,0.333484,0.891159
1191,316,3.30713,-0.00861814,0.332565,0.890631
1193,314,3.30679,-0.00834042,0.332565,0.889504
1195,312,3.30626,-0.00749679,0.332565,0.888749
1197,310,3.30596,-0.00804608,0.332561,0.888367
1199,308,3.30744,-0.0056777,0.331644,0.887801
1201,306,3.30732,-0.00474631,0.331201,0.887241
1203,304,3.30679,-0.00445122,0.331205,0.886138
1205,302,3.30588,-0.0109944,0.331689,0.885651
1207,300,3.30552,-0.0115374,0.331651,0.885273
1209,298,3.30673,-0.00924184,0.331184,0.884544
1211,296,3.30661,-0.00832603,0.330732,0.883953
1213,294,3.30586,-0.00894252,0.3319,0.883417
1215,292,3.30562,-0.00952397,0.331178,0.883018
1217,290,3.30732,-0.00554266,0.32981,0.882314
1219,288,3.30636,-0.00691597,0.330748,0.881155
1221,286,3.30618,-0.00591941,0.330263,0.880629
1223,284,3.30546,-0.00661482,0.330713,0.880043
1225,282,3.30743,-0.00258166,0.328912,0.87952
1227,280,3.30662,-0.00976779,0.329378,0.878671
1229,278,3.30591,-0.0103718,0.329799,0.878339
1231,276,3.30554,-0.0104472,0.329785,0.877765
1233,274,3.30491,-0.0117083,0.330234,0.877009
1235,272,3.30605,-0.00936976,0.329774,0.876319
1237,270,3.3059,-0.00841258,0.329398,0.875739
1239,268,3.30524,-0.00908224,0.329768,0.875175
1241,266,3.30493,-0.00962098,0.329759,0.874785
1243,264,3.30622,-0.00579462,0.328853,0.873873
1245,262,3.30596,-0.00631656,0.329665,0.873525
1247,260,3.30546,-0.00605629,0.328856,0.872374
1249,258,3.30522,-0.00513401,0.328406,0.87179
1251,256,3.30635,-0.0027906,0.328086,0.871078
1253,254,3.30575,-0.00934889,0.327946,0.870728
1255,252,3.30514,-0.0100762,0.328471,0.870141
1257,250,3.30481,-0.0105492,0.328388,0.869808
1259,248,3.30428,-0.00969501,0.328385,0.869042
1261,246,3.3055,-0.00792191,0.327931,0.867937
1263,244,3.30517,-0.00848805,0.327929,0.867568
1265,242,3.30472,-0.00761969,0.327953,0.866812
1267,240,3.30448,-0.006618,0.32747,0.866265
1269,238,3.30599,-0.0042347,0.326565,0.86568
1271,236,3.30488,-0.00552493,0.327478,0.864613
1273,234,3.30467,-0.00459859,0.32703,0.864023
1275,232,3.30372,-0.0118472,0.3283,0.863176
1277,230,3.3054,-0.0078349,0.326128,0.862462
1279,228,3.3047,-0.00848198,0.326572,0.861896
1281,226,3.30441,-0.00909984,0.326568,0.861475
1283,224,3.30401,-0.00967549,0.326567,0.861089
1285,222,3.30524,-0.00577966,0.32566,0.860177
1287,220,3.30455,-0.00699248,0.326251,0.859251
1289,218,3.30386,-0.00767425,0.326567,0.858687
1291,216,3.3037,-0.00673653,0.326118,0.858102
1293,214,3.30509,-0.00422163,0.325142,0.857587
1295,212,3.30451,-0.00490618,0.325662,0.857009
1297,210,3.30391,-0.00453752,0.325666,0.855934
1299,208,3.30366,-0.00517083,0.325661,0.855505
1301,206,3.30469,-0.00273763,0.325217,0.854827
1303,204,3.30404,-0.00944483,0.32521,0.854469
1305,202,3.30356,-0.00914104,0.325209,0.853329
1307,200,3.3034,-0.00820875,0.324751,0.852723
1309,198,3.30452,-0.00581039,0.324304,0.852269
1311,196,3.30379,-0.00647856,0.324759,0.85147
1313,194,3.30363,-0.00549742,0.3243,0.850884
1315,192,3.30312,-0.00519353,0.3243,0.849773
1317,190,3.30286,-0.00578369,0.324267,0.849377
1319,188,3.30381,-0.00333101,0.323847,0.848668
1321,186,3.30304,-0.0040869,0.324316,0.848094
1323,184,3.30268,-0.00467155,0.324295,0.847662
1325,182,3.30191,-0.0120832,0.32477,0.846821
1327,180,3.30355,-0.00802187,0.323407,0.84607
1329,178,3.30329,-0.0070629,0.323763,0.845467
1331,176,3.30234,-0.00682303,0.323406,0.844189
1333,174,3.30393,-0.00434987,0.322509,0.843631
1335,172,3.30377,-0.00332935,0.322055,0.843087
1337,170,3.30293,-0.0040514,0.322506,0.842496
1339,168,3.30223,-0.00527346,0.322962,0.841593
1341,166,3.30365,-0.00278978,0.322065,0.841037
1343,164,3.30262,-0.00968401,0.322521,0.840502
1345,162,3.30205,-0.00939141,0.322524,0.839371
1347,160,3.30179,-0.00994136,0.322525,0.839013
1349,158,3.30339,-0.00583361,0.321173,0.838284
1351,156,3.30289,-0.00548225,0.321171,0.837102
1353,154,3.30219,-0.00619143,0.321624,0.836609
1355,152,3.30208,-0.00520963,0.321166,0.83602
1357,150,3.3031,-0.00272506,0.321526,0.835346
1359,148,3.30269,-0.00338158,0.320728,0.834916
1361,146,3.30177,-0.0109006,0.321186,0.83401
1363,144,3.30099,-0.0115755,0.321643,0.833472
1365,142,3.30274,-0.00745841,0.320291,0.832728
1367,140,3.3023,-0.00806267,0.320432,0.832348
1369,138,3.30177,-0.00774973,0.320294,0.831213
1371,136,3.30142,-0.00835569,0.320294,0.830833
1373,134,3.30258,-0.00432067,0.319404,0.829939
1375,132,3.30189,-0.0055779,0.319833,0.829274
1377,130,3.30131,-0.00463908,0.319857,0.828272
1379,128,3.30096,-0.00527496,0.319856,0.827872
1381,126,3.3018,-0.00906765,0.319448,0.827225
1383,124,3.30115,-0.0103289,0.319883,0.826303
1385,122,3.30105,-0.00935825,0.319426,0.825977
1387,120,3.30011,-0.0100078,0.319884,0.825179
1389,118,3.30169,-0.00749919,0.318995,0.824623
1391,116,3.30091,-0.00875839,0.319454,0.823694
1393,114,3.30101,-0.00620956,0.318535,0.822889
1395,112,3.30063,-0.00679971,0.318532,0.822501
1397,110,3.30167,-0.00274193,0.318445,0.82157
1399,108,3.30127,-0.00335482,0.317633,0.821175
1401,106,3.30025,-0.0110082,0.318087,0.820225
1403,104,3.29995,-0.0116113,0.318087,0.819843
1405,102,3.30116,-0.00750665,0.317201,0.818959
1407,100,3.30087,-0.00810095,0.3172,0.818576
1409,98,3.2999,-0.00787715,0.317657,0.81728
1411,96,3.29956,-0.00854434,0.317657,0.816865
1413,94,3.30125,-0.00433153,0.316317,0.816154
1415,92,3.30033,-0.00666559,0.317233,0.815787
1417,90,3.29999,-0.00567463,0.316732,0.815098
1419,88,3.29941,-0.00531155,0.316738,0.814005
1421,86,3.3009,-0.00916302,0.315894,0.81353
1423,84,3.29989,-0.00983819,0.316345,0.812989
1425,82,3.29901,-0.0112124,0.316674,0.812016
1427,80,3.29886,-0.0100994,0.316344,0.811498
1429,78,3.30012,-0.00605315,0.315463,0.810552
1431,76,3.30007,-0.00558288,0.315003,0.809606
1433,74,3.2993,-0.00631716,0.315458,0.809049
1435,72,3.29883,-0.00688788,0.315528,0.80868
1437,70,3.30061,-0.00279053,0.314122,0.807875
1439,68,3.29977,-0.00345376,0.314575,0.807343
1441,66,3.29916,-0.0103957,0.314569,0.807011
1443,64,3.2983,-0.0117974,0.315034,0.806041
1445,62,3.29927,-0.0092525,0.314617,0.805371
1447,60,3.29904,-0.00824572,0.314158,0.804776
1449,58,3.29845,-0.0079476,0.314158,0.803624
1451,56,3.29831,-0.00691259,0.313697,0.803046
1453,54,3.29977,-0.00430983,0.312823,0.80252
1455,52,3.29895,-0.00501296,0.313278,0.801978
1457,50,3.29841,-0.00470958,0.31328,0.800825
1459,48,3.29771,-0.0117657,0.313276,0.800449
1461,46,3.29882,-0.00928043,0.312859,0.799741
1463,44,3.29832,-0.0098602,0.312859,0.79939
1465,42,3.29803,-0.00891567,0.3124,0.798735
1467,40,3.29741,-0.0085276,0.312401,0.797638
1469,38,3.29852,-0.00605294,0.311986,0.796925
1471,36,3.29823,-0.00502164,0.311537,0.796365
1473,34,3.29759,-0.00468701,0.31154,0.79525
1475,32,3.29704,-0.0117345,0.311563,0.794888
1477,30,3.2985,-0.00920037,0.310666,0.794307
1479,28,3.29766,-0.00984143,0.311123,0.793809
1481,26,3.29719,-0.0104981,0.311118,0.793395
1483,24,3.29668,-0.0111264,0.311111,0.792982
1485,22,3.29596,-0.0102095,0.311108,0.792212
1487,20,3.29733,-0.00663492,0.310237,0.790928
1489,18,3.29697,-0.0072786,0.310237,0.790538
1491,16,3.296785,-0.00627309,0.309779,0.789927
1493,14,3.29582,-0.00697458,0.310234,0.789389
1495,12,3.29748,-0.00276589,0.309049,0.788619
1497,10,3.29643,-0.0105104,0.30937,0.787733
1499,8,3.29593,-0.0111889,0.309373,0.787319
1501,6,3.29543,-0.0117971,0.309375,0.786716
1503,4,3.29659,-0.00764589,0.308507,0.78631
1504,3,3.29597,-0.00832596,0.30896,0.785503