File: hust_correlation_analysis/matrices/HUST_9-1_cycle_feature_matrix.csv
cycle_number,rul,voltage,current,capacity,charge_capacity
1,2059,3.32025,0.0119708,0.266693,1.03914
3,2057,3.29988,-0.0177969,0.281924,1.01493
5,2055,3.30254,-0.0180866,0.280956,1.0179
7,2053,3.30313,-0.0171444,0.280123,1.02166
9,2051,3.30477,-0.0194397,0.27977,1.02315
11,2049,3.30557,-0.0170129,0.279052,1.02506
13,2047,3.3082,-0.0156579,0.277437,1.02667
15,2045,3.30937,-0.0143347,0.276633,1.02781
17,2043,3.30971,-0.0137513,0.276102,1.02861
19,2041,3.30848,-0.0161805,0.276816,1.02949
21,2039,3.30999,-0.0161015,0.276011,1.02997
23,2037,3.31051,-0.0155195,0.275633,1.03053
25,2035,3.31059,-0.0153988,0.274832,1.03104
27,2033,3.31041,-0.0153747,0.274837,1.03105
29,2031,3.31087,-0.0153155,0.274443,1.03134
31,2029,3.31166,-0.0153573,0.274061,1.03155
33,2027,3.31102,-0.015378,0.274056,1.03137
35,2025,3.31097,-0.0158633,0.274052,1.03129
37,2023,3.31157,-0.0158105,0.27367,1.03157
39,2021,3.31207,-0.0160349,0.273669,1.03146
41,2019,3.31206,-0.0159046,0.273281,1.03176
43,2017,3.31177,-0.015944,0.273381,1.03174
45,2015,3.31412,-0.0133547,0.271922,1.03121
47,2013,3.31439,-0.0135602,0.271927,1.0311
49,2011,3.31388,-0.0134246,0.272016,1.03116
51,2009,3.31367,-0.0141349,0.271922,1.03082
53,2007,3.31342,-0.0139323,0.271919,1.03092
55,2005,3.31271,-0.0178582,0.273024,1.03075
57,2003,3.3136,-0.0146318,0.27185,1.03057
59,2001,3.31316,-0.0153409,0.27192,1.03019
61,1999,3.31362,-0.0156135,0.272056,1.02983
63,1997,3.31348,-0.0160329,0.27231,1.02962
65,1995,3.31326,-0.0155612,0.271915,1.03006
67,1993,3.31443,-0.0132451,0.270946,1.02918
69,1991,3.31464,-0.0134474,0.270944,1.02908
71,1989,3.31487,-0.0135548,0.270942,1.02901
73,1987,3.3144,-0.0135061,0.270945,1.02903
75,1985,3.31419,-0.0141207,0.270943,1.02872
77,1983,3.31374,-0.0145201,0.271432,1.0283
79,1981,3.31531,-0.0147775,0.270692,1.02837
81,1979,3.31367,-0.0150856,0.271333,1.02802
83,1977,3.3132,-0.0153947,0.271322,1.02782
85,1975,3.31301,-0.0159065,0.271711,1.02732
87,1973,3.31385,-0.0160672,0.271328,1.02748
89,1971,3.31528,-0.0128328,0.269964,1.02727
91,1969,3.31471,-0.013527,0.270605,1.02669
93,1967,3.31483,-0.013495,0.27035,1.0267
95,1965,3.31498,-0.0142554,0.270738,1.0261
97,1963,3.31428,-0.0141538,0.270734,1.02613
99,1961,3.31414,-0.0147944,0.270733,1.0258
101,1959,3.31412,-0.0147777,0.270737,1.02583
103,1957,3.31412,-0.01551,0.271381,1.02523
105,1955,3.31364,-0.0150829,0.270733,1.02565
107,1953,3.313,-0.0154731,0.271127,1.02524
109,1951,3.31361,-0.0160388,0.271124,1.02494
111,1949,3.31315,-0.0162077,0.271509,1.02462
113,1947,3.31327,-0.0161285,0.270875,1.02491
115,1945,3.31446,-0.0135754,0.270143,1.0241
117,1943,3.31526,-0.0135679,0.26986,1.02434
119,1941,3.31465,-0.0135816,0.270143,1.02408
121,1939,3.31374,-0.0143083,0.270535,1.0235
123,1937,3.31371,-0.0145151,0.270533,1.02338
125,1935,3.3142,-0.0150363,0.270846,1.0231
127,1933,3.31381,-0.0148515,0.270537,1.02321
129,1931,3.31302,-0.0155879,0.270925,1.02261
131,1929,3.31312,-0.0157079,0.270927,1.02256
133,1927,3.31344,-0.0156117,0.270919,1.02258
135,1925,3.3129,-0.0155441,0.270922,1.02264
137,1923,3.31291,-0.0161284,0.27092,1.02232
139,1921,3.3131,-0.0160651,0.270915,1.02234
141,1919,3.31471,-0.0130471,0.269933,1.02178
143,1917,3.31412,-0.0136663,0.26994,1.02146
145,1915,3.31398,-0.0136164,0.269936,1.02148
147,1913,3.31435,-0.0137163,0.269935,1.02125
149,1911,3.31388,-0.014353,0.270329,1.02088
151,1909,3.31337,-0.0143513,0.270336,1.0209
153,1907,3.3131,-0.0149894,0.270728,1.02035
155,1905,3.31348,-0.0150219,0.270718,1.02032
157,1903,3.31317,-0.0149034,0.270718,1.02037
159,1901,3.31304,-0.0156562,0.270819,1.02
161,1899,3.31267,-0.0156378,0.271115,1.01978
163,1897,3.31346,-0.0156867,0.270717,1.01846
165,1895,3.3128,-0.0154805,0.270716,1.02006
167,1893,3.31222,-0.0162912,0.271118,1.01945
169,1891,3.31236,-0.016263,0.271111,1.01946
171,1889,3.31425,-0.013115,0.269996,1.01917
173,1887,3.31345,-0.0138211,0.270515,1.01859
175,1885,3.31353,-0.0137565,0.270136,1.01862
177,1883,3.31396,-0.013836,0.270133,1.01857
179,1881,3.31271,-0.0145048,0.27092,1.01777
181,1879,3.31314,-0.0145471,0.270264,1.01799
183,1877,3.31309,-0.0146835,0.270525,1.0179
185,1875,3.31375,-0.0151539,0.27053,1.01768
187,1873,3.31306,-0.0150346,0.270528,1.01773
189,1871,3.31213,-0.0152202,0.270921,1.01741
191,1869,3.31296,-0.0150816,0.270836,1.01771
193,1867,3.3125,-0.0157259,0.270925,1.01716
195,1865,3.31185,-0.015758,0.270919,1.01714
197,1863,3.31189,-0.0156773,0.27092,1.01718
199,1861,3.31233,-0.0158524,0.271017,1.01708
201,1859,3.31162,-0.0164241,0.271317,1.01657
203,1857,3.31167,-0.016363,0.270915,1.01683
205,1855,3.31144,-0.0162736,0.27131,1.01664
207,1853,3.31374,-0.0139443,0.269938,1.01441
209,1851,3.31293,-0.0138687,0.269942,1.01599
211,1849,3.31287,-0.0138302,0.269941,1.01602
213,1847,3.31331,-0.0138802,0.270197,1.01578
215,1845,3.31157,-0.0177114,0.271468,1.0157
217,1843,3.31217,-0.0145181,0.270336,1.01543
219,1841,3.31225,-0.0144696,0.270337,1.01545
221,1839,3.31297,-0.0146325,0.270339,1.01538
223,1837,3.31202,-0.0151813,0.270734,1.01488
225,1835,3.31251,-0.0104531,0.269993,1.01455
227,1833,3.31251,-0.0151397,0.270339,1.01512
229,1831,3.31185,-0.015943,0.271387,1.01425
231,1829,3.31152,-0.0158464,0.27073,1.01453
233,1827,3.31145,-0.0158439,0.270735,1.01454
235,1825,3.31191,-0.0159219,0.270731,1.01449
237,1823,3.31195,-0.0116805,0.270397,1.01371
239,1821,3.31082,-0.0164094,0.271129,1.01403
241,1819,3.31112,-0.0167605,0.271133,1.01384
243,1817,3.31144,-0.0165346,0.271127,1.01396
245,1815,3.31171,-0.0165217,0.270884,1.01396
247,1813,3.31248,-0.013942,0.270146,1.01314
249,1811,3.31307,-0.0139552,0.269749,1.01336
251,1809,3.31234,-0.0140037,0.270246,1.01311
253,1807,3.31167,-0.0140991,0.27015,1.01307
255,1805,3.3119,-0.0140191,0.270145,1.01308
257,1803,3.31215,-0.0141969,0.270141,1.013
259,1801,3.31173,-0.0146612,0.270145,1.01277
261,1799,3.31162,-0.014629,0.270142,1.01278
263,1797,3.31222,-0.0146988,0.270142,1.01276
265,1795,3.31167,-0.0152881,0.270545,1.01223
267,1793,3.31107,-0.0153194,0.270541,1.01221
269,1791,3.31117,-0.0152364,0.270541,1.01226
271,1789,3.31148,-0.0154503,0.270545,1.01216
273,1787,3.31088,-0.0160002,0.270545,1.01187
275,1785,3.31056,-0.0159006,0.270918,1.0119
277,1783,3.31188,-0.0160398,0.270298,1.01186
279,1781,3.31055,-0.0166989,0.270944,1.01131
281,1779,3.31041,-0.0165638,0.270539,1.01159
283,1777,3.31068,-0.0165632,0.270542,1.01029
285,1775,3.31275,-0.0141953,0.269556,1.01066
287,1773,3.31214,-0.0140196,0.269863,1.01073
289,1771,3.31198,-0.0140398,0.269549,1.01072
291,1769,3.31264,-0.0139886,0.269153,1.01099
293,1767,3.31195,-0.0147928,0.269954,1.01013
295,1765,3.31118,-0.0147642,0.26995,1.01013
297,1763,3.31125,-0.0147006,0.269946,1.01016
299,1761,3.31178,-0.0148791,0.269952,1.01007
301,1759,3.3113,-0.0153559,0.269957,1.00985
303,1757,3.31133,-0.0153279,0.269947,1.00984
305,1755,3.31215,-0.0153753,0.269556,1.01008
307,1753,3.31136,-0.016075,0.270349,1.00925
309,1751,3.31118,-0.0160205,0.269948,1.0095
311,1749,3.3107,-0.0159783,0.270349,1.00931
313,1747,3.31098,-0.0161843,0.270353,1.0092
315,1745,3.31091,-0.0160221,0.2702,1.00816
317,1743,3.31039,-0.0165816,0.270346,1.00899
319,1741,3.31083,-0.0167128,0.270346,1.00893
321,1739,3.31045,-0.0166821,0.270605,1.00894
323,1737,3.31192,-0.0141582,0.269355,1.00807
325,1735,3.31211,-0.0140509,0.269666,1.00811
327,1733,3.31233,-0.0141691,0.269358,1.00807
329,1731,3.31156,-0.0141911,0.26936,1.00806
331,1729,3.31161,-0.0147319,0.269358,1.00779
333,1727,3.31212,-0.0148239,0.269364,1.00776
335,1725,3.31159,-0.0147148,0.269361,1.0078
337,1723,3.31142,-0.0147871,0.26974,1.00776
339,1721,3.31184,-0.0147651,0.269354,1.00778
341,1719,3.3117,-0.0155019,0.26976,1.00719
343,1717,3.311,-0.0154947,0.269755,1.00717
345,1715,3.3109,-0.0154325,0.269762,1.00722
347,1713,3.31147,-0.0156071,0.269764,1.00714
349,1711,3.31078,-0.0160922,0.269763,1.00688
351,1709,3.31048,-0.016101,0.269763,1.00713
353,1707,3.31134,-0.0160384,0.269361,1.00716
355,1705,3.31046,-0.0168401,0.270166,1.00629
357,1703,3.30999,-0.016843,0.270262,1.00628
359,1701,3.31007,-0.0167965,0.27017,1.00631
361,1699,3.31052,-0.0169097,0.270167,1.00627
363,1697,3.31196,-0.0135469,0.268775,1.0063
365,1695,3.31189,-0.0141078,0.26877,1.00575
367,1693,3.31226,-0.0142088,0.268771,1.00571
369,1691,3.31167,-0.0140638,0.268765,1.00576
371,1689,3.31133,-0.0141047,0.268867,1.00574
373,1687,3.31164,-0.0140706,0.268767,1.00576
375,1685,3.31148,-0.0149009,0.269171,1.00512
377,1683,3.3109,-0.0149141,0.269177,1.00538
379,1681,3.31108,-0.0148869,0.269173,1.00513
381,1679,3.31167,-0.0149991,0.269172,1.00508
383,1677,3.31072,-0.0155213,0.269572,1.00458
385,1675,3.31046,-0.0156212,0.269557,1.00456
387,1673,3.31119,-0.0154972,0.269174,1.00483
389,1671,3.31079,-0.0161477,0.269573,1.00427
391,1669,3.31024,-0.0161789,0.269576,1.00427
393,1667,3.31039,-0.0161584,0.269583,1.00428
395,1665,3.31081,-0.0162673,0.269579,1.00423
397,1663,3.31019,-0.0162227,0.269583,1.00425
399,1661,3.30987,-0.0169067,0.269986,1.00368
401,1659,3.3103,-0.0170334,0.269984,1.00362
403,1657,3.31181,-0.0136247,0.268588,1.00339
405,1655,3.31167,-0.0142506,0.268587,1.00309
407,1653,3.31186,-0.0142087,0.268968,1.00313
409,1651,3.31192,-0.0142289,0.268592,1.0031
411,1649,3.31134,-0.0142673,0.268581,1.00307
413,1647,3.31151,-0.014192,0.268589,1.00312
415,1645,3.3115,-0.0150072,0.268991,1.0025
417,1643,3.3109,-0.0149399,0.268991,1.00252
419,1641,3.3109,-0.0149383,0.268988,1.00252
421,1639,3.31155,-0.0149491,0.268585,1.00274
423,1637,3.31058,-0.0149257,0.268991,1.00252
425,1635,3.31049,-0.0156839,0.268992,1.00215
427,1633,3.31071,-0.0156199,0.268989,1.00219
429,1631,3.3107,-0.0156241,0.268993,1.00219
431,1629,3.3103,-0.0156483,0.269378,1.00217
433,1627,3.31021,-0.0162898,0.269395,1.00162
435,1625,3.31047,-0.016366,0.26939,1.00157
437,1623,3.30987,-0.0163089,0.269396,1.00161
439,1621,3.30979,-0.0162992,0.26939,1.00161
441,1619,3.31026,-0.0170292,0.269393,1.00126
443,1617,3.30966,-0.0168351,0.269486,1.00135
445,1615,3.309,-0.0170275,0.269801,1.00104
447,1613,3.30987,-0.0169039,0.269394,1.00132
449,1611,3.31159,-0.0143563,0.268404,1.00045
451,1609,3.3111,-0.0144283,0.26871,1.00041
453,1607,3.31123,-0.0143031,0.268399,1.00046
455,1605,3.3117,-0.0145076,0.268404,1.00037
457,1603,3.31099,-0.0149451,0.268652,1.00014
459,1601,3.31045,-0.0150546,0.268811,0.999878
461,1599,3.31139,-0.0150408,0.268404,1.00012
463,1597,3.31041,-0.0150361,0.268808,0.999881
465,1595,3.31054,-0.0156693,0.268809,0.999577
467,1593,3.31085,-0.0157343,0.268807,0.99955
469,1591,3.31073,-0.0156845,0.268808,0.999561
471,1589,3.31016,-0.0157767,0.268809,0.999527
473,1587,3.31036,-0.0156369,0.268902,0.999584
475,1585,3.3106,-0.0164218,0.268807,0.999197
477,1583,3.30921,-0.0165112,0.269219,0.998934
479,1581,3.30979,-0.0163014,0.268807,0.99926
481,1579,3.31,-0.0164586,0.268814,0.999197
483,1577,3.30933,-0.017049,0.269214,0.998666
485,1575,3.30917,-0.0170098,0.269209,0.99868
487,1573,3.3101,-0.0170489,0.268809,0.998897
489,1571,3.30916,-0.0171054,0.26922,0.99865
491,1569,3.31081,-0.0138001,0.267814,0.998362
493,1567,3.31119,-0.0144053,0.268195,0.998067
495,1565,3.31105,-0.0144343,0.267814,0.998037
497,1563,3.31049,-0.0144457,0.267811,0.998036
499,1561,3.31008,-0.0144248,0.268219,0.997809
501,1559,3.31109,-0.0145025,0.267812,0.998021
503,1557,3.31053,-0.0150632,0.267812,0.997742
505,1555,3.31015,-0.0151201,0.268223,0.997492
507,1553,3.31095,-0.0150838,0.268109,0.997703
509,1551,3.31009,-0.015103,0.268216,0.997491
511,1549,3.30868,-0.0190984,0.26939,0.997446
513,1547,3.31033,-0.0158201,0.268222,0.997143
515,1545,3.31007,-0.015695,0.268216,0.997202
517,1543,3.30948,-0.0165353,0.26862,0.99655
519,1541,3.3103,-0.0163517,0.268215,0.996883
521,1539,3.30982,-0.0165439,0.268628,0.996568
523,1537,3.30924,-0.0165946,0.268626,0.995074
525,1535,3.30948,-0.0164471,0.268629,0.996615
527,1533,3.31048,-0.0121649,0.267869,0.995984
529,1531,3.30898,-0.0171019,0.268622,0.99627
531,1529,3.3089,-0.0170645,0.268627,0.996302
533,1527,3.31154,-0.0138838,0.267219,0.995949
535,1525,3.31065,-0.0144643,0.26763,0.995446
537,1523,3.31056,-0.0144906,0.267627,0.995432
539,1521,3.31153,-0.0145145,0.267217,0.995641
541,1519,3.30954,-0.0128169,0.268269,0.995414
543,1517,3.31043,-0.0151695,0.267631,0.995099
545,1515,3.31062,-0.0151655,0.267879,0.995099
547,1513,3.31039,-0.0151955,0.26763,0.995078
549,1511,3.30969,-0.0151975,0.267629,0.995078
551,1509,3.30977,-0.015838,0.268036,0.994526
553,1507,3.30992,-0.0159262,0.268038,0.994482
555,1505,3.30972,-0.015825,0.267629,0.99477
557,1503,3.30933,-0.0158468,0.268036,0.994511
559,1501,3.31039,-0.0159478,0.267627,0.994499
561,1499,3.30928,-0.0166135,0.268037,0.994401
563,1497,3.30895,-0.0165539,0.26804,0.99419
565,1495,3.30972,-0.016682,0.268034,0.994123
567,1493,3.30878,-0.0173,0.26845,0.993603
569,1491,3.30854,-0.0172895,0.268453,0.993602
571,1489,3.30935,-0.0172586,0.268039,0.993844
573,1487,3.3087,-0.017254,0.268446,0.993613
575,1485,3.31066,-0.0145614,0.266971,0.993018
577,1483,3.31085,-0.0145092,0.267031,0.993018
579,1481,3.31058,-0.0144973,0.267038,0.993035
581,1479,3.31006,-0.0145643,0.267029,0.992994
583,1477,3.31026,-0.0144735,0.26703,0.993037
585,1475,3.31027,-0.0153166,0.267444,0.992396
587,1473,3.30984,-0.0153826,0.267447,0.992372
589,1471,3.3101,-0.0152119,0.267445,0.992449
591,1469,3.31017,-0.0160703,0.267854,0.991801
593,1467,3.30938,-0.0159935,0.267852,0.991828
595,1465,3.3094,-0.0159327,0.267851,0.991856
597,1463,3.31008,-0.0160459,0.267445,0.99205
599,1461,3.30915,-0.016605,0.267858,0.991543
601,1459,3.30892,-0.0165668,0.267856,0.991553
603,1457,3.30939,-0.0167437,0.268106,0.991452
605,1455,3.30898,-0.016609,0.267854,0.991542
607,1453,3.30887,-0.0172511,0.267851,0.991227
609,1451,3.30924,-0.0173105,0.267855,0.991203
611,1449,3.30824,-0.0173887,0.268276,0.99095
613,1447,3.30787,-0.0174538,0.268266,0.99089
615,1445,3.31045,-0.0146779,0.266858,0.990351
617,1443,3.31016,-0.0146729,0.266858,0.990345
619,1441,3.30984,-0.0146338,0.267156,0.990341
621,1439,3.31016,-0.0146379,0.26686,0.990365
623,1437,3.30996,-0.0154066,0.267269,0.989756
625,1435,3.30932,-0.0154928,0.267273,0.989717
627,1433,3.30998,-0.0151747,0.26685,0.990092
629,1431,3.31005,-0.0153062,0.267158,0.988703
631,1429,3.30908,-0.0160682,0.26727,0.989439
633,1427,3.30919,-0.0159063,0.267268,0.9895
635,1425,3.30947,-0.0160991,0.267272,0.989425
637,1423,3.30893,-0.0160446,0.26727,0.989469
639,1421,3.30875,-0.0167533,0.267683,0.987582
641,1419,3.30901,-0.0169021,0.267691,0.988827
643,1417,3.30873,-0.016617,0.267267,0.989167
645,1415,3.30852,-0.0173962,0.267685,0.988585
647,1413,3.30872,-0.0175637,0.267688,0.988499
649,1411,3.30807,-0.017439,0.267688,0.988569
651,1409,3.30787,-0.0173931,0.267774,0.988561
653,1407,3.31114,-0.0141012,0.265851,0.988492
655,1405,3.31021,-0.0146644,0.266265,0.987977
657,1403,3.30969,-0.0147697,0.266687,0.987703
659,1401,3.31048,-0.014772,0.266265,0.987923
661,1399,3.30939,-0.0147807,0.266984,0.987683
663,1397,3.30921,-0.0154377,0.266681,0.987374
665,1395,3.30965,-0.0155258,0.26668,0.98734
667,1393,3.30913,-0.0153936,0.266687,0.987406
669,1391,3.30874,-0.0161849,0.267098,0.986786
671,1389,3.3096,-0.0161584,0.266677,0.987028
673,1387,3.30868,-0.0162181,0.267097,0.986766
675,1385,3.3088,-0.0161487,0.266678,0.987016
677,1383,3.30927,-0.0167563,0.266677,0.986733
679,1381,3.30831,-0.0168264,0.267348,0.98647
681,1379,3.30803,-0.0168474,0.267095,0.98646
683,1377,3.30871,-0.0167548,0.266679,0.98675
685,1375,3.30823,-0.0175507,0.267096,0.986129
687,1373,3.30792,-0.0175718,0.267485,0.986126
689,1371,3.30816,-0.0175228,0.267092,0.98615
691,1369,3.30801,-0.0175265,0.267094,0.986147
693,1367,3.30924,-0.0149648,0.266092,0.98523
695,1365,3.30964,-0.0147871,0.26609,0.985309
697,1363,3.30943,-0.0147751,0.266087,0.985303
699,1361,3.30915,-0.014854,0.266085,0.985256
701,1359,3.30964,-0.0154378,0.266086,0.984984
703,1357,3.3096,-0.0155133,0.266086,0.984946
705,1355,3.30934,-0.0155305,0.266086,0.984941
707,1353,3.30908,-0.016204,0.266502,0.98439
709,1351,3.30899,-0.0163112,0.266509,0.984355
711,1349,3.30829,-0.0162512,0.266499,0.984361
713,1347,3.30859,-0.0162174,0.266501,0.984634
715,1345,3.3088,-0.0168933,0.266509,0.984065
717,1343,3.30829,-0.0169249,0.266505,0.984041
719,1341,3.30853,-0.0168444,0.266421,0.984088
721,1339,3.30836,-0.0175987,0.267224,0.983486
723,1337,3.3076,-0.0176627,0.266931,0.983467
725,1335,3.30786,-0.0175228,0.266915,0.983527
727,1333,3.31003,-0.0149129,0.265501,0.982859
729,1331,3.30934,-0.0148733,0.265497,0.98288
731,1329,3.30953,-0.0148262,0.2655,0.982906
733,1327,3.30977,-0.0148756,0.265747,0.982879
735,1325,3.30928,-0.0155474,0.265495,0.982553
737,1323,3.30902,-0.0155407,0.265914,0.982328
739,1321,3.30911,-0.0156446,0.265916,0.98228
741,1319,3.30834,-0.0156519,0.265918,0.982274
743,1317,3.30872,-0.0162405,0.265916,0.981997
745,1315,3.30866,-0.0163357,0.265914,0.981952
747,1313,3.30783,-0.016336,0.265911,0.981944
749,1311,3.30827,-0.0162409,0.265909,0.981995
751,1309,3.30796,-0.0169822,0.26633,0.981396
753,1307,3.30751,-0.0170813,0.266332,0.981363
755,1305,3.30766,-0.0169866,0.266331,0.981407
757,1303,3.30782,-0.0177446,0.266335,0.980791
759,1301,3.30714,-0.0177437,0.266331,0.981027
761,1299,3.30746,-0.0176687,0.266338,0.981087
763,1297,3.30927,-0.0149984,0.265319,0.980183
765,1295,3.30862,-0.015079,0.265578,0.980157
767,1293,3.30948,-0.0149438,0.264903,0.980464
769,1291,3.30916,-0.0156995,0.265322,0.979856
771,1289,3.30859,-0.0157063,0.265322,0.979872
773,1287,3.30876,-0.0156449,0.265322,0.979912
775,1285,3.30854,-0.0156977,0.265327,0.979885
777,1283,3.30838,-0.0163612,0.26532,0.979556
779,1281,3.30861,-0.0163765,0.265322,0.979795
781,1279,3.30863,-0.016352,0.265322,0.979556
783,1277,3.30797,-0.0171405,0.265743,0.978942
785,1275,3.30933,-0.0119671,0.264954,0.978657
787,1273,3.3077,-0.0171117,0.265742,0.978958
789,1271,3.30749,-0.017783,0.265743,0.978641
791,1269,3.30778,-0.0178541,0.265745,0.978394
793,1267,3.30691,-0.017845,0.266162,0.978387
795,1265,3.30892,-0.0150364,0.264728,0.977789
797,1263,3.30942,-0.0151437,0.265036,0.977748
799,1261,3.30888,-0.0151299,0.264735,0.977743
801,1259,3.30847,-0.0157193,0.265146,0.977215
803,1257,3.30913,-0.0158104,0.264736,0.977425
805,1255,3.30835,-0.0156962,0.264729,0.977467
807,1253,3.30815,-0.0157298,0.264733,0.977464
809,1251,3.30837,-0.0166202,0.265153,0.97682
811,1249,3.30756,-0.0164831,0.265005,0.976875
813,1247,3.30772,-0.0164646,0.265155,0.976895
815,1245,3.30828,-0.0172868,0.265155,0.976509
817,1243,3.30766,-0.0171969,0.265154,0.97655
819,1241,3.30736,-0.0171432,0.265152,0.976568
821,1239,3.3077,-0.017308,0.265242,0.976479
823,1237,3.30651,-0.0179013,0.265576,0.975982
825,1235,3.30659,-0.0178748,0.265571,0.975981
827,1233,3.30913,-0.0144976,0.264135,0.975646
829,1231,3.308636,-0.0151407,0.264133,0.975343
831,1229,3.30888,-0.0151733,0.26414,0.975338
833,1227,3.30865,-0.0158885,0.264818,0.974781
835,1225,3.30801,-0.0159064,0.264557,0.974758
837,1223,3.30953,-0.0105309,0.263343,0.974776
839,1221,3.30819,-0.0161255,0.26456,0.97446
841,1219,3.30772,-0.0165544,0.264559,0.97444
843,1217,3.30812,-0.0166059,0.264559,0.974433
845,1215,3.30792,-0.0166189,0.264559,0.974412
847,1213,3.30748,-0.017237,0.264557,0.97413
849,1211,3.30785,-0.0173139,0.264564,0.974102
851,1209,3.30736,-0.0172272,0.264556,0.974131
853,1207,3.30661,-0.0179741,0.265369,0.973542
855,1205,3.30708,-0.0180774,0.264977,0.973495
857,1203,3.30856,-0.0144224,0.263533,0.973268
859,1201,3.30821,-0.0152281,0.263961,0.972659
861,1199,3.30924,-0.0152855,0.263533,0.972854
863,1197,3.30837,-0.0159343,0.26396,0.972331
865,1195,3.30812,-0.0158338,0.26396,0.972376
867,1193,3.30839,-0.016045,0.263966,0.972286
869,1191,3.30723,-0.0166874,0.26439,0.971737
871,1189,3.30807,-0.0165164,0.263962,0.972064
873,1187,3.30761,-0.016708,0.264386,0.971734
875,1185,3.30727,-0.0174529,0.264389,0.971389
877,1183,3.3076,-0.0173684,0.264387,0.971431
879,1181,3.3075,-0.0173958,0.264383,0.971399
881,1179,3.30651,-0.0181324,0.264808,0.970825
883,1177,3.30732,-0.0180854,0.26438,0.971074
885,1175,3.30626,-0.0181245,0.264808,0.971063
887,1173,3.30837,-0.0152276,0.263366,0.970245
889,1171,3.30878,-0.0153664,0.263369,0.970194
891,1169,3.30829,-0.0152551,0.263455,0.97024
893,1167,3.30778,-0.0160003,0.263788,0.969634
895,1165,3.30812,-0.0161544,0.263794,0.969589
897,1163,3.30736,-0.0160814,0.263788,0.969601
899,1161,3.30739,-0.0166664,0.263789,0.96934
901,1159,3.30739,-0.0167445,0.263795,0.969297
903,1157,3.30664,-0.0174133,0.26421,0.968736
905,1155,3.30721,-0.0174027,0.263786,0.968991
907,1153,3.30653,-0.0175137,0.264216,0.968715
909,1151,3.30636,-0.0182299,0.264218,0.968367
911,1149,3.30657,-0.0181979,0.264215,0.968394
913,1147,3.30575,-0.0181505,0.264227,0.968431
915,1145,3.30759,-0.0153897,0.263202,0.967529
917,1143,3.30788,-0.0154852,0.263198,0.967485
919,1141,3.30735,-0.0153687,0.263592,0.967551
921,1139,3.30758,-0.0160597,0.263202,0.967221
923,1137,3.30777,-0.0161531,0.263195,0.967167
925,1135,3.30689,-0.0169151,0.263623,0.966586
927,1133,3.3075,-0.0168099,0.263205,0.966885
929,1131,3.30642,-0.0168941,0.263434,0.966603
931,1129,3.30621,-0.0175711,0.263628,0.966295
933,1127,3.30663,-0.017673,0.26363,0.966261
935,1125,3.30616,-0.0175372,0.263626,0.966313
937,1123,3.30621,-0.0182191,0.263925,0.965985
939,1121,3.30635,-0.0182845,0.263629,0.965973
941,1119,3.30555,-0.018308,0.263623,0.965937
943,1117,3.30751,-0.0154654,0.262609,0.965097
945,1115,3.30746,-0.015519,0.262609,0.965086
947,1113,3.30714,-0.0161819,0.262608,0.964764
949,1111,3.30745,-0.0162079,0.262609,0.964768
951,1109,3.30733,-0.0162203,0.262998,0.964755
953,1107,3.30665,-0.0168572,0.263032,0.964203
955,1105,3.30702,-0.0170935,0.263035,0.964102
957,1103,3.30615,-0.0169736,0.263033,0.964163
959,1101,3.3061,-0.0176047,0.263033,0.964111
961,1099,3.30633,-0.0177301,0.263035,0.963808
963,1097,3.30538,-0.0184557,0.263461,0.963241
965,1095,3.30613,-0.0183149,0.263029,0.963537
967,1093,3.30602,-0.0183045,0.263029,0.963531
969,1091,3.3075,-0.0156007,0.262014,0.962619
971,1089,3.30789,-0.0155863,0.262006,0.962616
973,1087,3.30724,-0.015559,0.262011,0.962644
975,1085,3.30683,-0.0161986,0.262447,0.962115
977,1083,3.30713,-0.0163996,0.262433,0.962007
979,1081,3.30638,-0.0169741,0.262435,0.96175
981,1079,3.30689,-0.0169524,0.262436,0.961757
983,1077,3.30644,-0.017774,0.262868,0.961125
985,1075,3.30587,-0.017753,0.262956,0.961147
987,1073,3.30673,-0.0177765,0.262526,0.96138
989,1071,3.3054,-0.0184497,0.262864,0.960806
991,1069,3.30506,-0.0185003,0.262871,0.960805
993,1067,3.3077,-0.0150169,0.261416,0.96048
995,1065,3.30705,-0.0156107,0.261416,0.960211
997,1063,3.30728,-0.0155669,0.261418,0.960233
999,1061,3.30701,-0.0164648,0.261851,0.959583
1001,1059,3.30656,-0.0163994,0.261844,0.95961
1003,1057,3.30685,-0.0164408,0.261841,0.959593
1005,1055,3.30623,-0.0170822,0.261852,0.959312
1007,1053,3.30562,-0.0171076,0.262285,0.959055
1009,1051,3.30618,-0.0178885,0.262274,0.958682
1011,1049,3.30539,-0.0178636,0.262282,0.958703
1013,1047,3.30632,-0.0176511,0.26184,0.959029
1015,1045,3.30554,-0.0185598,0.26228,0.958383
1017,1043,3.30506,-0.0185366,0.26228,0.958385
1019,1041,3.30744,-0.0158598,0.261255,0.957435
1021,1039,3.30652,-0.0157295,0.261246,0.957477
1023,1037,3.30649,-0.0156624,0.261542,0.9575
1025,1035,3.30631,-0.016492,0.261683,0.956816
1027,1033,3.30584,-0.016607,0.261941,0.956842
1029,1031,3.30678,-0.0164345,0.261242,0.957145
1031,1029,3.30584,-0.0172233,0.261687,0.956574
1033,1027,3.305329,-0.0172322,0.261672,0.956524
1035,1025,3.305994,-0.0180038,0.261682,0.956196
1037,1023,3.30509,-0.0179298,0.261684,0.95624
1039,1021,3.30511,-0.0185263,0.262116,0.955726
1041,1019,3.30485,-0.018707,0.262117,0.955633
1043,1017,3.30681,-0.0150933,0.260649,0.955151
1045,1015,3.30723,-0.0158506,0.260651,0.955
1047,1013,3.30631,-0.0158739,0.260951,0.954996
1049,1011,3.30596,-0.0165132,0.261086,0.954457
1051,1009,3.30609,-0.0165833,0.261083,0.954408
1053,1007,3.30548,-0.0166211,0.26109,0.954417
1055,1005,3.30611,-0.017326,0.261085,0.954085
1057,1003,3.30557,-0.017253,0.261085,0.954123
1059,1001,3.30492,-0.0180137,0.261522,0.953529
1061,999,3.30532,-0.0181568,0.261525,0.953472
1063,997,3.30456,-0.0187538,0.261523,0.953205
1065,995,3.30469,-0.0187694,0.261526,0.951758
1067,993,3.30679,-0.015032,0.260054,0.952935
1069,991,3.30617,-0.015877,0.260889,0.952321
1071,989,3.30639,-0.0160464,0.260488,0.952235
1073,987,3.30587,-0.0166337,0.260485,0.951957
1075,985,3.306,-0.0166042,0.260494,0.952003
1077,983,3.30546,-0.0174639,0.260928,0.951359
1079,981,3.30482,-0.0174117,0.260927,0.951374
1081,979,3.30593,-0.0174941,0.260485,0.951581
1083,977,3.30457,-0.0182161,0.260931,0.951018
1085,975,3.30502,-0.0181634,0.260934,0.951059
1087,973,3.30443,-0.0189594,0.261368,0.950695
1089,971,3.30402,-0.0189287,0.261372,0.95049
1091,969,3.307125,-0.015316,0.259462,0.950409
1093,967,3.30581,-0.0160424,0.2599,0.949819
1095,965,3.30586,-0.016007,0.259902,0.949834
1097,963,3.30568,-0.0168207,0.260338,0.949235
1099,961,3.30501,-0.0168118,0.260329,0.949216
1101,959,3.3059,-0.0167124,0.259888,0.949512
1103,957,3.30488,-0.0175408,0.260329,0.948902
1105,955,3.30475,-0.0174899,0.260335,0.948932
1107,953,3.305,-0.0182351,0.26033,0.948582
1109,951,3.30425,-0.0182975,0.260334,0.948554
1111,949,3.30459,-0.0183361,0.260332,0.948541
1113,947,3.30356,-0.0190418,0.260776,0.948003
1115,945,3.30598,-0.0153002,0.2593,0.947727
1117,943,3.30613,-0.0160852,0.259294,0.947362
1119,941,3.30562,-0.0161421,0.259301,0.947342
1121,939,3.30623,-0.0168522,0.259301,0.947033
1123,937,3.305,-0.0174369,0.259743,0.946313
1125,935,3.30495,-0.017484,0.259738,0.946736
1127,933,3.30492,-0.0176093,0.259738,0.946445
1129,931,3.30414,-0.0184497,0.260179,0.945821
1131,929,3.30491,-0.0183794,0.259735,0.946095
1133,927,3.30432,-0.0183485,0.259739,0.946119
1135,925,3.30377,-0.0190668,0.260178,0.945554
1137,923,3.30366,-0.0191513,0.260179,0.945751
1139,921,3.30501,-0.0162982,0.259138,0.944571
1141,919,3.30582,-0.0162115,0.258689,0.944853
1143,917,3.30483,-0.0169255,0.259137,0.944296
1145,915,3.30497,-0.0169404,0.259135,0.944288
1147,913,3.30462,-0.0177274,0.259586,0.943718
1149,911,3.30415,-0.0177168,0.259586,0.943717
1151,909,3.30498,-0.0177849,0.259142,0.943919
1153,907,3.30365,-0.0184863,0.259583,0.94336
1155,905,3.30374,-0.0184234,0.25958,0.943641
1157,903,3.30321,-0.0193097,0.26003,0.942752
1159,901,3.30277,-0.0192888,0.260024,0.942765
1161,899,3.30568,-0.0163789,0.258536,0.942085
1163,897,3.30485,-0.0163371,0.258542,0.942117
1165,895,3.30523,-0.016976,0.258534,0.941815
1167,893,3.3041,-0.0170768,0.25898,0.941535
1169,891,3.30424,-0.0177853,0.259272,0.941219
1171,889,3.30434,-0.017801,0.258976,0.940948
1173,887,3.30394,-0.0177871,0.258976,0.941202
1175,885,3.30441,-0.0186091,0.258984,0.940858
1177,883,3.30374,-0.0185187,0.258978,0.940886
1179,881,3.30313,-0.0193053,0.259715,0.940298
1181,879,3.30311,-0.0194006,0.259428,0.940263
1183,877,3.30457,-0.0163994,0.258383,0.939386
1185,875,3.30471,-0.0165286,0.258385,0.939336
1187,873,3.30411,-0.0171461,0.258383,0.939056
1189,871,3.30438,-0.0171122,0.258189,0.939064
1191,869,3.30389,-0.0179963,0.258829,0.938428
1193,867,3.30334,-0.0179681,0.258826,0.938432
1195,865,3.30392,-0.0178915,0.258379,0.938706
1197,863,3.30288,-0.0187303,0.258824,0.938087
1199,861,3.30312,-0.0187487,0.258823,0.938089
1201,859,3.30275,-0.0193784,0.258825,0.937821
1203,857,3.30216,-0.0195023,0.259272,0.937508
1205,855,3.30484,-0.0165462,0.257784,0.936851
1207,853,3.30412,-0.0164623,0.257784,0.936887
1209,851,3.30448,-0.0165565,0.257783,0.936865
1211,849,3.30317,-0.0173544,0.258233,0.936258
1213,847,3.30395,-0.0172071,0.257781,0.936563
1215,845,3.30318,-0.0180303,0.25823,0.935955
1217,843,3.30315,-0.0186757,0.258221,0.935649
1219,841,3.3034,-0.0188483,0.258225,0.935585
1221,839,3.30233,-0.0196558,0.258681,0.934999
1223,837,3.30258,-0.0197495,0.258683,0.934971
1225,835,3.30408,-0.0158378,0.257184,0.934716
1227,833,3.30434,-0.0164802,0.257441,0.934442
1229,831,3.30353,-0.0166492,0.257634,0.934118
1231,829,3.30334,-0.0173213,0.257638,0.933827
1233,827,3.30385,-0.0175079,0.257632,0.933752
1235,825,3.30294,-0.0181349,0.257637,0.933474
1237,823,3.30348,-0.0181302,0.257887,0.93348
1239,821,3.30219,-0.0189131,0.258083,0.932872
1241,819,3.30201,-0.0189208,0.25809,0.932893
1243,817,3.30218,-0.0196956,0.258087,0.932538
1245,815,3.30162,-0.0197077,0.258082,0.932513
1247,813,3.30412,-0.0168203,0.257042,0.931842
1249,811,3.30319,-0.0167243,0.257004,0.931622
1251,809,3.30364,-0.0174528,0.257033,0.9313
1253,807,3.30289,-0.0174571,0.257326,0.931316
1255,805,3.30237,-0.0182352,0.257493,0.930733
1257,803,3.30239,-0.0182985,0.257482,0.930689
1259,801,3.30206,-0.0189707,0.257488,0.93039
1261,799,3.30256,-0.0191289,0.25749,0.930139
1263,797,3.30137,-0.0199549,0.25794,0.92973
1265,795,3.30464,-0.0159806,0.255982,0.929725
1267,793,3.30351,-0.0167556,0.256434,0.929145
1269,791,3.30343,-0.0167136,0.256442,0.929176
1271,789,3.30287,-0.0176008,0.256895,0.928535
1273,787,3.30225,-0.0175677,0.256892,0.928542
1275,785,3.30299,-0.0183966,0.256889,0.928184
1277,783,3.30226,-0.018446,0.256888,0.92816
1279,781,3.30283,-0.0190745,0.256882,0.927887
1281,779,3.30189,-0.0190768,0.256893,0.927894
1283,777,3.30157,-0.0198762,0.257341,0.927297
1285,775,3.30106,-0.0199281,0.257342,0.927272
1287,773,3.30273,-0.0168761,0.256291,0.92637
1289,771,3.30307,-0.0169886,0.256287,0.926312
1291,769,3.3026,-0.0176908,0.256284,0.925993
1293,767,3.30292,-0.0177549,0.25629,0.925983
1295,765,3.30172,-0.0185556,0.256743,0.92538
1297,763,3.30237,-0.0184439,0.256285,0.925685
1299,761,3.30132,-0.0192592,0.25674,0.925088
1301,759,3.30126,-0.0192469,0.256745,0.925093
1303,757,3.30077,-0.0201158,0.257204,0.924394
1305,755,3.30277,-0.0161762,0.255683,0.924177
1307,753,3.30329,-0.017086,0.255687,0.923786
1309,751,3.3025,-0.0170298,0.255689,0.923823
1311,749,3.30282,-0.017723,0.255677,0.924748
1313,747,3.30205,-0.0177284,0.255681,0.923495
1315,745,3.30194,-0.018564,0.256141,0.922905
1317,743,3.30135,-0.01859,0.256145,0.922903
1319,741,3.30147,-0.0192672,0.256145,0.922607
1321,739,3.30104,-0.0202011,0.256603,0.921953
1323,737,3.30053,-0.0202197,0.256605,0.92195
1325,735,3.30311,-0.0171264,0.25508,0.921275
1327,733,3.30209,-0.0171233,0.255088,0.921309
1329,731,3.30229,-0.0180012,0.255546,0.920686
1331,729,3.3014,-0.0179007,0.255541,0.920712
1333,727,3.30234,-0.0176858,0.255088,0.921082
1335,725,3.30137,-0.0186732,0.255828,0.920396
1337,723,3.30101,-0.019514,0.256007,0.919781
1339,721,3.30045,-0.0196146,0.256015,0.91976
1341,719,3.30022,-0.0202835,0.256009,0.919447
1343,717,3.30011,-0.0203158,0.256008,0.919449
1345,715,3.30166,-0.0172989,0.254951,0.918501
1347,713,3.3024,-0.0171034,0.254485,0.918828
1349,711,3.30127,-0.0180699,0.254951,0.918173
1351,709,3.30185,-0.0180467,0.254947,0.918181
1353,707,3.30046,-0.0188449,0.255631,0.917566
1355,705,3.30143,-0.0187292,0.254945,0.917882
1357,703,3.30031,-0.0196308,0.25541,0.917243
1359,701,3.30038,-0.0195309,0.255403,0.917273
1361,699,3.29968,-0.0204836,0.255867,0.916618
1363,697,3.30192,-0.0172217,0.254343,0.916027
1365,695,3.30207,-0.0173297,0.254343,0.915987
1367,693,3.30155,-0.0180839,0.25434,0.915656
1369,691,3.30181,-0.0181566,0.254341,0.915628
1371,689,3.30032,-0.0189381,0.254806,0.915044
1373,687,3.30079,-0.0189757,0.254804,0.915033
1375,685,3.29995,-0.0196936,0.2548,0.914707
1377,683,3.30048,-0.0197829,0.2548,0.914682
1379,681,3.29925,-0.0205961,0.255269,0.914091
1381,679,3.30184,-0.0173016,0.253738,0.913486
1383,677,3.30136,-0.0173452,0.254147,0.913473
1385,675,3.30069,-0.0182311,0.254202,0.912738
1387,673,3.30047,-0.0183429,0.254206,0.912824
1389,671,3.30026,-0.0189671,0.254201,0.912532
1391,669,3.30055,-0.0191144,0.254202,0.912475
1393,667,3.29948,-0.0199937,0.254673,0.911868
1395,665,3.29992,-0.0207343,0.254668,0.911545
1397,663,3.29893,-0.0207284,0.254667,0.911749
1399,661,3.30179,-0.0174913,0.253128,0.910908
1401,659,3.30024,-0.0174377,0.253588,0.910661
1403,657,3.30082,-0.018338,0.253597,0.910307
1405,655,3.3,-0.0183391,0.253596,0.910299
1407,653,3.3003,-0.0190419,0.25359,0.909976
1409,651,3.29947,-0.0199533,0.254057,0.909337
1411,649,3.29928,-0.0199216,0.254064,0.909363
1413,647,3.29856,-0.0208954,0.254528,0.90869
1415,645,3.29803,-0.0208522,0.254531,0.908711
1417,643,3.30055,-0.0176219,0.252991,0.907858
1419,641,3.30014,-0.0176367,0.252995,0.908078
1421,639,3.30063,-0.0184717,0.252987,0.907713
1423,637,3.29951,-0.0192758,0.253469,0.907146
1425,635,3.29995,-0.0193664,0.253465,0.907114
1427,633,3.29927,-0.0200703,0.253711,0.906799
1429,631,3.29946,-0.0201434,0.253466,0.906579
1431,629,3.29801,-0.0210083,0.253935,0.906164
1433,627,3.30086,-0.016964,0.252382,0.905836
1435,625,3.30023,-0.0176994,0.252388,0.905528
1437,623,3.30023,-0.018684,0.252857,0.905075
1439,621,3.29946,-0.0186487,0.252859,0.904882
1441,619,3.2997,-0.0193833,0.252857,0.90459
1443,617,3.299,-0.0194027,0.252856,0.904555
1445,615,3.29849,-0.0202293,0.253326,0.903956
1447,613,3.29803,-0.021094,0.253333,0.903618
1449,611,3.30062,-0.0168991,0.251779,0.903335
1451,609,3.29982,-0.0179112,0.252251,0.902657
1453,607,3.2997,-0.0177909,0.252247,0.902714
1455,605,3.29964,-0.0186378,0.252256,0.902365
1457,603,3.29888,-0.019545,0.252729,0.901736
1459,601,3.29869,-0.0196747,0.252804,0.901679
1461,599,3.29759,-0.0204146,0.2532,0.901102
1463,597,3.29779,-0.0212819,0.253203,0.900752
1465,595,3.29719,-0.0212035,0.253207,0.900784
1467,593,3.30016,-0.0180439,0.251651,0.900088
1469,591,3.29935,-0.0178964,0.251649,0.900132
1471,589,3.2992,-0.0188478,0.25212,0.899482
1473,587,3.29842,-0.0187878,0.252114,0.899501
1475,585,3.29865,-0.0196916,0.252113,0.899115
1477,583,3.29753,-0.0205646,0.252597,0.8985
1479,581,3.29777,-0.0206338,0.252596,0.898495
1481,579,3.29713,-0.0213366,0.252602,0.8982
1483,577,3.29961,-0.0182284,0.251512,0.897196
1485,575,3.29885,-0.0181511,0.251516,0.897227
1487,573,3.29928,-0.0189824,0.251512,0.896883
1489,571,3.2979,-0.019807,0.251996,0.896317
1491,569,3.29834,-0.0198875,0.251988,0.896262
1493,567,3.29682,-0.0207305,0.252479,0.895679
1495,565,3.29785,-0.0207571,0.252005,0.895933
1497,563,3.2965,-0.021586,0.25248,0.89532
1499,561,3.29951,-0.0182909,0.250917,0.894656
1501,559,3.29875,-0.0182217,0.250911,0.894677
1503,557,3.29837,-0.0191372,0.251387,0.894034
1505,555,3.29755,-0.0191285,0.251389,0.894032
1507,553,3.2981,-0.019973,0.251387,0.893679
1509,551,3.29669,-0.0209253,0.251878,0.893055
1511,549,3.29705,-0.0209528,0.251867,0.893033
1513,547,3.29629,-0.0216185,0.251869,0.892747
1515,545,3.29884,-0.0185045,0.250785,0.890474
1517,543,3.29785,-0.018376,0.250786,0.891803
1519,541,3.29819,-0.0192197,0.250778,0.891448
1521,539,3.29713,-0.0201347,0.251276,0.890847
1523,537,3.29724,-0.020159,0.251277,0.890845
1525,535,3.29652,-0.0209043,0.25152,0.890519
1527,533,3.29639,-0.0219241,0.25176,0.88986
1529,531,3.29813,-0.0176298,0.250178,0.889562
1531,529,3.29841,-0.018512,0.250182,0.889201
1533,527,3.29719,-0.0194982,0.250675,0.888557
1535,525,3.29733,-0.0194813,0.25067,0.888556
1537,523,3.29658,-0.0201548,0.250662,0.888258
1539,521,3.29615,-0.021217,0.251221,0.887552
1541,519,3.29565,-0.0211177,0.251155,0.88762
1543,517,3.29598,-0.0219503,0.25116,0.887296
1545,515,3.29779,-0.0177105,0.24956,0.886938
1547,513,3.29739,-0.0186804,0.250056,0.886287
1549,511,3.29705,-0.0193826,0.250059,0.886019
1551,509,3.29657,-0.020466,0.250548,0.885319
1553,507,3.29598,-0.0202882,0.250544,0.885384
1555,505,3.29591,-0.0211834,0.250552,0.885043
1557,503,3.29521,-0.0220934,0.251042,0.884421
1559,501,3.29792,-0.0177271,0.24896,0.884395
1561,499,3.29718,-0.0186187,0.249441,0.883553
1563,497,3.29672,-0.0195125,0.249441,0.883375
1565,495,3.29671,-0.0195256,0.249447,0.883627
1567,493,3.29539,-0.0205388,0.249935,0.882714
1569,491,3.2958,-0.0212693,0.249932,0.882419
1571,489,3.295,-0.0212685,0.249934,0.882426
1573,487,3.29541,-0.0221312,0.249926,0.882053
1575,485,3.29669,-0.0188047,0.248831,0.8811
1577,483,3.29697,-0.0188032,0.248832,0.881107
1579,481,3.29595,-0.0196826,0.249102,0.880752
1581,479,3.29589,-0.020719,0.249326,0.880065
1583,477,3.29495,-0.0206094,0.249325,0.880111
1585,475,3.2948,-0.0215693,0.250089,0.879481
1587,473,3.294,-0.0223989,0.249828,0.879155
1589,471,3.29633,-0.0190967,0.248732,0.878168
1591,469,3.29601,-0.0197544,0.248723,0.877894
1593,467,3.29573,-0.01989,0.249144,0.877844
1595,465,3.2952,-0.0206522,0.248718,0.87752
1597,463,3.29438,-0.0216498,0.249465,0.876859
1599,461,3.29423,-0.0215687,0.249211,0.876887
1601,459,3.29381,-0.0225294,0.249218,0.876508
1603,457,3.2962,-0.0191393,0.248113,0.875556
1605,455,3.29536,-0.0190937,0.248105,0.875543
1607,453,3.29546,-0.0199223,0.248523,0.875223
1609,451,3.29418,-0.0209354,0.248607,0.87456
1611,449,3.29433,-0.0210245,0.248606,0.874525
1613,447,3.2937,-0.0217778,0.248607,0.874222
1615,445,3.29602,-0.0183286,0.247493,0.873255
1617,443,3.29544,-0.0191231,0.247495,0.872928
1619,441,3.29492,-0.0201888,0.247998,0.872249
1621,439,3.29436,-0.0201233,0.248004,0.872302
1623,437,3.29414,-0.0209642,0.248002,0.871967
1625,435,3.29363,-0.0220012,0.248506,0.871295
1627,433,3.29312,-0.0228113,0.248506,0.870972
1629,431,3.29595,-0.0183717,0.246886,0.87066
1631,429,3.29446,-0.0193706,0.247391,0.869984
1633,427,3.29475,-0.0202716,0.247378,0.869602
1635,425,3.29391,-0.0202277,0.247382,0.869622
1637,423,3.2934,-0.0211955,0.247891,0.868991
1639,421,3.29293,-0.0220664,0.24789,0.868637
1641,419,3.29222,-0.0230755,0.248395,0.86798
1643,417,3.2953,-0.0183934,0.246518,0.868004
1645,415,3.29403,-0.0194938,0.24677,0.867305
1647,413,3.29442,-0.0203195,0.246765,0.866974
1649,411,3.29282,-0.0212992,0.247281,0.866344
1651,409,3.2934,-0.0222612,0.247282,0.865977
1653,407,3.29195,-0.0232215,0.247789,0.86532
1655,405,3.29451,-0.0186736,0.246157,0.865001
1657,403,3.29409,-0.0194634,0.24616,0.864713
1659,401,3.29297,-0.0206091,0.246672,0.863997
1661,399,3.29332,-0.0212968,0.24666,0.863708
1663,397,3.29203,-0.0224382,0.247182,0.863015
1665,395,3.29219,-0.0225358,0.247428,0.862985
1667,393,3.29119,-0.0233015,0.247176,0.862673
1669,391,3.29337,-0.0199167,0.246055,0.861638
1671,389,3.29283,-0.0206667,0.246056,0.861339
1673,387,3.29214,-0.0216637,0.246565,0.86068
1675,385,3.29269,-0.0215454,0.246055,0.86102
1677,383,3.2913,-0.022572,0.246577,0.860363
1679,381,3.29158,-0.023485,0.24657,0.859999
1681,379,3.29271,-0.0198637,0.245443,0.859026
1683,377,3.29237,-0.0210005,0.245959,0.858317
1685,375,3.291976,-0.0217962,0.245956,0.858012
1687,373,3.29145,-0.0217772,0.246207,0.858029
1689,371,3.29145,-0.0226513,0.245955,0.85769
1691,369,3.29263,-0.0190926,0.244829,0.856699
1693,367,3.29287,-0.0200103,0.244829,0.856329
1695,365,3.29165,-0.0210908,0.245348,0.855657
1697,363,3.29176,-0.0219583,0.245347,0.855321
1699,361,3.29127,-0.0218239,0.245341,0.855361
1701,359,3.29001,-0.0229143,0.246118,0.854683
1703,357,3.29302,-0.0192483,0.244211,0.853988
1705,355,3.29172,-0.0202767,0.244738,0.853326
1707,353,3.29191,-0.0212251,0.244726,0.85293
1709,351,3.2903,-0.0221514,0.245253,0.852333
1711,349,3.29008,-0.0229519,0.245252,0.852031
1713,347,3.29011,-0.0238915,0.24525,0.851665
1715,345,3.29155,-0.0203643,0.244113,0.850624
1717,343,3.29186,-0.0212818,0.24412,0.850287
1719,341,3.29022,-0.0222617,0.244637,0.849627
1721,339,3.29006,-0.0231411,0.244635,0.849303
1723,337,3.28997,-0.0231092,0.244636,0.849308
1725,335,3.29137,-0.0194942,0.243494,0.846807
1727,333,3.29175,-0.0204638,0.243737,0.847913
1729,331,3.29031,-0.0214889,0.244029,0.847265
1731,329,3.29039,-0.0200332,0.243494,0.846927
1733,327,3.28984,-0.0211528,0.244023,0.846226
1735,325,3.29171,-0.0171709,0.242359,0.845622
1737,323,3.29141,-0.0277199,0.242352,0.845259
1739,321,3.28979,-0.0286756,0.242875,0.844627
1741,319,3.28993,-0.0271848,0.242345,0.844288
1743,317,3.28967,-0.0257433,0.242343,0.843687
1745,315,3.29113,-0.0243758,0.241203,0.843204
1747,313,3.29077,-0.0230954,0.241199,0.842284
1749,311,3.2902,-0.0238337,0.241202,0.842009
1751,309,3.29035,-0.0224611,0.240673,0.841643
1753,307,3.29013,-0.021004,0.240669,0.841035
1755,305,3.28856,-0.0243516,0.241198,0.840673
1757,303,3.29121,-0.0183703,0.239766,0.839625
1759,301,3.29084,-0.0190767,0.239519,0.839356
1761,299,3.28948,-0.0299626,0.240047,0.838654
1763,297,3.28966,-0.0283066,0.239519,0.838379
1765,295,3.28797,-0.0221504,0.24057,0.837672
1767,293,3.29077,-0.0256408,0.238366,0.83697
1769,291,3.29059,-0.0263385,0.238357,0.836707
1771,289,3.28944,-0.0250664,0.238367,0.836053
1773,287,3.28991,-0.0235557,0.237842,0.835719
1775,285,3.28765,-0.0294686,0.239647,0.835002
1777,283,3.29117,-0.0208717,0.236687,0.834324
1779,281,3.29131,-0.0191753,0.23617,0.834094
1781,279,3.28986,-0.0203039,0.236688,0.833402
1783,277,3.28984,-0.0212435,0.236678,0.833022
1785,275,3.29118,-0.0174228,0.235543,0.832052
1787,273,3.29072,-0.0281671,0.235527,0.831709
1789,271,3.29091,-0.0265038,0.234995,0.831415
1791,269,3.289,-0.030084,0.236041,0.830716
1793,267,3.28861,-0.0287902,0.236039,0.830031
1795,265,3.29096,-0.0247551,0.234355,0.829404
1797,263,3.29081,-0.0232753,0.233835,0.829073
1799,261,3.2905,-0.0219202,0.233836,0.82843
1801,259,3.28917,-0.0251743,0.234354,0.828115
1803,257,3.28877,-0.0239483,0.234349,0.82739
1805,255,3.29095,-0.0185234,0.232665,0.826119
1807,253,3.29026,-0.0194762,0.232669,0.825774
1809,251,3.28991,-0.0302193,0.232667,0.825441
1811,249,3.28866,-0.0215699,0.233185,0.824726
1813,247,3.28789,-0.0322067,0.233169,0.824405
1815,245,3.29057,-0.0260606,0.231498,0.82342
1817,243,3.28965,-0.0268834,0.23172,0.823123
1819,241,3.28926,-0.0255802,0.231491,0.82243
1821,239,3.28868,-0.0264073,0.231486,0.822127
1823,237,3.29152,-0.020014,0.229291,0.82148
1825,235,3.29084,-0.0211668,0.229805,0.820795
1827,233,3.28955,-0.024561,0.230313,0.820415
1829,231,3.28943,-0.0207196,0.229801,0.81979
1831,229,3.28813,-0.0324243,0.230313,0.818856
1833,227,3.29059,-0.0187153,0.228625,0.818127
1835,225,3.28974,-0.029831,0.229139,0.817422
1837,223,3.28909,-0.0206521,0.229138,0.817146
1839,221,3.28862,-0.0290835,0.228621,0.816804
1841,219,3.28811,-0.0276615,0.228618,0.816174
1843,217,3.28972,-0.026143,0.227446,0.815503
1845,215,3.29003,-0.0224187,0.226928,0.81481
1847,213,3.28957,-0.0231326,0.227155,0.814545
1849,211,3.28897,-0.0241774,0.226925,0.814174
1851,209,3.29112,-0.0203623,0.225737,0.813162
1853,207,3.28972,-0.0212999,0.226244,0.811184
1855,205,3.28948,-0.030691,0.225733,0.811884
1857,203,3.2887,-0.0318785,0.226248,0.811191
1859,201,3.28802,-0.0228245,0.22624,0.810829
1861,199,3.28979,-0.0289891,0.225052,0.809826
1863,197,3.28984,-0.0273696,0.224544,0.809531
1865,195,3.28914,-0.028301,0.224538,0.809199
1867,193,3.28869,-0.0269779,0.224534,0.808501
1869,191,3.28962,-0.0256461,0.223858,0.807486
1871,189,3.29023,-0.0224426,0.222841,0.806876
1873,187,3.2903,-0.023341,0.222835,0.806551
1875,185,3.28816,-0.0269754,0.223851,0.805854
1877,183,3.28735,-0.0256667,0.223854,0.805165
1879,181,3.29063,-0.0189297,0.221635,0.804568
1881,179,3.28987,-0.0199706,0.221643,0.80421
1883,177,3.28913,-0.0211042,0.222139,0.803516
1885,175,3.28732,-0.033229,0.223077,0.802543
1887,173,3.29011,-0.0266673,0.220437,0.801881
1889,171,3.29074,-0.0250329,0.219929,0.801576
1891,169,3.28841,-0.0314205,0.221457,0.800828
1893,167,3.2876,-0.0298441,0.221448,0.800208
1895,165,3.29094,-0.0232727,0.219234,0.799548
1897,163,3.29,-0.0242136,0.219224,0.799205
1899,161,3.28944,-0.0237875,0.219227,0.798197
1901,159,3.28833,-0.0248037,0.219732,0.797564
1903,157,3.29061,-0.0207816,0.218021,0.796861
1905,155,3.29037,-0.0194059,0.218013,0.79618
1907,153,3.2896,-0.0201964,0.21802,0.795912
1909,151,3.28807,-0.0214017,0.218518,0.795203
1911,149,3.28832,-0.0308459,0.218011,0.794619
1913,147,3.28975,-0.027066,0.217023,0.793554
1915,145,3.28936,-0.0279807,0.216794,0.793244
1917,143,3.28953,-0.0264052,0.216288,0.792668
1919,141,3.28749,-0.0301674,0.217299,0.792207
1921,139,3.29044,-0.0220206,0.215076,0.790896
1923,137,3.29039,-0.0229068,0.215078,0.790593
1925,135,3.2883,-0.0267127,0.21609,0.78988
1927,133,3.28851,-0.0251421,0.216008,0.789561
1929,131,3.29101,-0.0184495,0.213865,0.788611
1931,129,3.28963,-0.0220582,0.214358,0.78823
1933,127,3.28874,-0.0319253,0.214354,0.78724
1935,125,3.28905,-0.030324,0.213857,0.786941
1937,123,3.29013,-0.0288809,0.213127,0.78592
1939,121,3.29022,-0.0274028,0.212631,0.785567
1941,119,3.28917,-0.0283728,0.213129,0.784943
1943,117,3.28766,-0.0306085,0.213846,0.783878
1945,115,3.28803,-0.0263096,0.212623,0.78361
1947,113,3.29069,-0.0220276,0.210889,0.782966
1949,111,3.28874,-0.0258986,0.211894,0.782233
1951,109,3.28826,-0.0245091,0.211891,0.78155
1953,107,3.28811,-0.0227639,0.211384,0.781281
1955,105,3.28965,-0.0197017,0.210151,0.779926
1957,103,3.28924,-0.0313009,0.210152,0.77958
1959,101,3.28955,-0.0294476,0.209652,0.779323
1961,99,3.28735,-0.0333933,0.210648,0.77859
1963,97,3.28999,-0.0278656,0.208921,0.777221
1965,95,3.28999,-0.0260195,0.208418,0.776968
1967,93,3.28812,-0.0298197,0.209412,0.776267
1969,91,3.28795,-0.028245,0.208908,0.776158
1971,89,3.29129,-0.0212813,0.206671,0.775292
1973,87,3.28901,-0.0236828,0.207668,0.772609
1975,85,3.289,-0.0219683,0.207161,0.773613
1977,83,3.28866,-0.0335227,0.207169,0.773321
1979,81,3.29043,-0.0189056,0.205921,0.772267
1981,79,3.28914,-0.0318196,0.206417,0.771244
1983,77,3.28889,-0.0327701,0.206419,0.770975
1985,75,3.28711,-0.0339451,0.206916,0.770254
1987,73,3.29025,-0.0269764,0.204663,0.769598
1989,71,3.29007,-0.0279696,0.204661,0.76927
1991,69,3.28887,-0.027453,0.204661,0.768289
1993,67,3.28756,-0.0285988,0.205154,0.767619
1995,65,3.2911,-0.0217504,0.202906,0.766927
1997,63,3.29094,-0.0199068,0.202629,0.766681
1999,61,3.28918,-0.02491,0.203405,0.765611
2001,59,3.28932,-0.0230829,0.202905,0.765341
2003,57,3.2909,-0.0298279,0.201649,0.764298
2005,55,3.28926,-0.020286,0.202139,0.763586
2007,53,3.28912,-0.0303517,0.201649,0.762998
2009,51,3.28921,-0.0313395,0.201644,0.762666
2011,49,3.29054,-0.0272272,0.200796,0.761623
2013,47,3.28962,-0.0266136,0.200377,0.760674
2015,45,3.29011,-0.0251243,0.199889,0.760297
2017,43,3.2886,-0.026145,0.200375,0.759677
2019,41,3.29105,-0.0229294,0.198618,0.758642
2021,39,3.29037,-0.0213878,0.198637,0.757997
2023,37,3.28989,-0.033197,0.198612,0.757691
2025,35,3.2886,-0.0236004,0.199098,0.756783
2027,33,3.29011,-0.0314291,0.197981,0.755609
2029,31,3.29112,-0.0284264,0.196852,0.756005
2031,29,3.28968,-0.0306562,0.19734,0.755
2033,27,3.28833,-0.0318457,0.19782,0.754329
2035,25,3.29138,-0.0274822,0.196052,0.753642
2037,23,3.29114,-0.0241839,0.195571,0.752703
2039,21,3.28996,-0.0279894,0.196056,0.752338
2041,19,3.28909,-0.0265681,0.196054,0.751651
2043,17,3.29231,-0.0221426,0.194289,0.750991
2045,15,3.29099,-0.0244004,0.194785,0.74998
2047,13,3.28972,-0.0227595,0.194765,0.74934
2049,11,3.28952,-0.0239718,0.194762,0.748954
2051,9,3.29205,-0.0304727,0.192987,0.748326
2053,7,3.29039,-0.0328043,0.19347,0.747515
2055,5,3.29028,-0.0309266,0.192984,0.747024
2057,3,3.28996,-0.0303871,0.192982,0.746048