File: hust_correlation_analysis/matrices/HUST_6-2_cycle_feature_matrix.csv
cycle_number,rul,voltage,current,capacity,charge_capacity
1,1910,3.31973,0.0278973,0.286966,1.04202
3,1908,3.30036,-0.0176113,0.306862,1.00514
5,1906,3.30289,-0.0184899,0.305911,1.0078
7,1904,3.30434,-0.018955,0.304977,1.01065
9,1902,3.30657,-0.0194612,0.304057,1.01342
11,1900,3.30751,-0.0180318,0.303156,1.01716
13,1898,3.30738,-0.0191659,0.30272,1.01937
15,1896,3.30874,-0.017942,0.301844,1.02046
17,1894,3.30977,-0.016614,0.300538,1.0218
19,1892,3.3089,-0.0183997,0.30099,1.02322
21,1890,3.31066,-0.017004,0.299702,1.02461
23,1888,3.31018,-0.0187608,0.300159,1.02603
25,1886,3.31079,-0.0179864,0.299311,1.02687
27,1884,3.3118,-0.0174419,0.298884,1.02739
29,1882,3.31299,-0.0167574,0.297619,1.02838
31,1880,3.3137,-0.0160999,0.297188,1.02892
33,1878,3.31232,-0.0185484,0.29806,1.02968
35,1876,3.31291,-0.0179415,0.297638,1.03022
37,1874,3.31323,-0.017323,0.297223,1.03075
39,1872,3.31305,-0.0173505,0.296749,1.03073
41,1870,3.3135,-0.0167655,0.296799,1.03126
43,1868,3.31435,-0.0160222,0.295972,1.03207
45,1866,3.31403,-0.0167019,0.296382,1.03149
47,1864,3.31432,-0.0160956,0.29647,1.03201
49,1862,3.31474,-0.0160167,0.295557,1.03228
51,1860,3.31469,-0.0160889,0.295559,1.03225
53,1858,3.31511,-0.0164402,0.295133,1.03249
55,1856,3.31477,-0.0160845,0.295144,1.03246
57,1854,3.31455,-0.0166659,0.295059,1.03215
59,1852,3.31478,-0.0167788,0.295143,1.03209
61,1850,3.31486,-0.0168097,0.295139,1.03206
63,1848,3.31482,-0.0166607,0.29473,1.03234
65,1846,3.3151,-0.0173037,0.294729,1.03199
67,1844,3.31502,-0.0173173,0.294825,1.03198
69,1842,3.31533,-0.0171522,0.294319,1.03228
71,1840,3.31529,-0.0171989,0.294319,1.03225
73,1838,3.31454,-0.0179603,0.294729,1.03164
75,1836,3.31456,-0.0179244,0.294728,1.03165
77,1834,3.3166,-0.0153913,0.293041,1.03137
79,1832,3.31613,-0.0161075,0.293452,1.03078
81,1830,3.31619,-0.0160575,0.293449,1.0308
83,1828,3.31653,-0.0159538,0.293041,1.03108
85,1826,3.31587,-0.0160951,0.293444,1.03079
87,1824,3.31609,-0.0166817,0.293598,1.03045
89,1822,3.31613,-0.0166283,0.293438,1.03048
91,1820,3.31598,-0.0166585,0.293438,1.03046
93,1818,3.31592,-0.0166811,0.29344,1.03045
95,1816,3.31545,-0.0165865,0.293434,1.03048
97,1814,3.31543,-0.0172992,0.293441,1.0301
99,1812,3.31576,-0.0179053,0.29345,1.02981
101,1810,3.31745,-0.0148843,0.292163,1.02957
103,1808,3.31716,-0.0153866,0.292163,1.02928
105,1806,3.31747,-0.0154207,0.29216,1.02926
107,1804,3.31807,-0.0152883,0.291756,1.02955
109,1802,3.31721,-0.0153283,0.292154,1.0293
111,1800,3.31712,-0.0160163,0.292156,1.02887
113,1798,3.31724,-0.0160071,0.292156,1.02893
115,1796,3.3166,-0.0166934,0.292564,1.02835
117,1794,3.31642,-0.0167174,0.29256,1.02833
119,1792,3.31678,-0.016742,0.292558,1.02831
121,1790,3.3167,-0.0166104,0.292251,1.02859
123,1788,3.31665,-0.0172117,0.292155,1.02827
125,1786,3.31679,-0.0172625,0.292162,1.02826
127,1784,3.31636,-0.0179303,0.292569,1.02769
129,1782,3.31618,-0.0178635,0.29257,1.0277
131,1780,3.31806,-0.0147891,0.29166,1.02751
133,1778,3.31736,-0.0154893,0.291682,1.02689
135,1776,3.31755,-0.0154836,0.291686,1.0269
137,1774,3.31763,-0.0154946,0.291681,1.02689
139,1772,3.31737,-0.0161112,0.291675,1.02654
141,1770,3.31759,-0.0161098,0.291676,1.02655
143,1768,3.31745,-0.0160677,0.29168,1.02656
145,1766,3.31679,-0.0167964,0.29209,1.02597
147,1764,3.31722,-0.0167019,0.291683,1.02625
149,1762,3.3167,-0.0173121,0.292095,1.02572
151,1760,3.31652,-0.017329,0.292101,1.02573
153,1758,3.31654,-0.017349,0.292098,1.02572
155,1756,3.3161,-0.0180046,0.292885,1.02514
157,1754,3.3167,-0.017941,0.292095,1.02537
159,1752,3.31612,-0.0180084,0.292385,1.02514
161,1750,3.31644,-0.0178626,0.292094,1.02542
163,1748,3.31801,-0.0154948,0.291212,1.0246
165,1746,3.3177,-0.015556,0.291212,1.02456
167,1744,3.3174,-0.0155701,0.291212,1.02455
169,1742,3.31746,-0.0161819,0.291222,1.02424
171,1740,3.31771,-0.0162154,0.291228,1.02425
173,1738,3.31744,-0.0167403,0.291225,1.02396
175,1736,3.3164,-0.0161691,0.291636,1.02408
177,1734,3.31786,-0.016637,0.290896,1.02404
179,1732,3.31635,-0.0168535,0.291644,1.02372
181,1730,3.31622,-0.0174042,0.292044,1.02319
183,1728,3.31704,-0.0173349,0.291643,1.02345
185,1726,3.31623,-0.0174155,0.291637,1.02339
187,1724,3.31568,-0.0180411,0.292144,1.02286
189,1722,3.31612,-0.0180548,0.29205,1.02286
191,1720,3.31639,-0.0179794,0.292036,1.02286
193,1718,3.31599,-0.0179018,0.292038,1.0229
195,1716,3.31796,-0.0156071,0.291166,1.02204
197,1714,3.31758,-0.0155697,0.291169,1.02207
199,1712,3.31719,-0.0155556,0.291155,1.02203
201,1710,3.31689,-0.0157289,0.291554,1.02171
203,1708,3.31736,-0.0162552,0.291151,1.02164
205,1706,3.31679,-0.0162754,0.291568,1.02144
207,1704,3.31739,-0.0161702,0.291158,1.02172
209,1702,3.31695,-0.0168794,0.291566,1.02112
211,1700,3.31668,-0.0168605,0.291565,1.02112
213,1698,3.31654,-0.016871,0.291567,1.02113
215,1696,3.31664,-0.0168819,0.291565,1.02112
217,1694,3.31631,-0.0175381,0.292359,1.02055
219,1692,3.31613,-0.0175374,0.291981,1.02057
221,1690,3.31604,-0.0175288,0.291989,1.0206
223,1688,3.31606,-0.0181395,0.29199,1.02027
225,1686,3.3159,-0.0180979,0.291991,1.02029
227,1684,3.31589,-0.0181042,0.291981,1.02027
229,1682,3.31761,-0.0150947,0.290685,1.01996
231,1680,3.31754,-0.0156158,0.290682,1.01967
233,1678,3.31714,-0.0157671,0.291083,1.01935
235,1676,3.31685,-0.0157101,0.291076,1.01936
237,1674,3.31691,-0.0157514,0.291069,1.0193
239,1672,3.31692,-0.0157856,0.291068,1.01928
241,1670,3.31628,-0.0158497,0.291482,1.01903
243,1668,3.31593,-0.0161385,0.291895,1.01867
245,1666,3.31609,-0.0157359,0.291879,1.01885
247,1664,3.31501,-0.015927,0.292384,1.01851
249,1662,3.31552,-0.0164131,0.292288,1.01824
251,1660,3.31529,-0.0165792,0.292302,1.01819
253,1658,3.3155,-0.0165501,0.291883,1.01841
255,1656,3.31564,-0.0165415,0.291884,1.01843
257,1654,3.31571,-0.016969,0.292263,1.01818
259,1652,3.31534,-0.0170932,0.291879,1.0181
261,1650,3.31564,-0.0170495,0.291876,1.01812
263,1648,3.31518,-0.017175,0.29229,1.01785
265,1646,3.31443,-0.0179538,0.292708,1.01721
267,1644,3.31488,-0.0178537,0.292296,1.01749
269,1642,3.31461,-0.018452,0.292721,1.01699
271,1640,3.31421,-0.0184852,0.292883,1.01697
273,1638,3.31689,-0.0158456,0.291007,1.01669
275,1636,3.3165,-0.0158551,0.291008,1.01649
277,1634,3.31599,-0.0159449,0.291163,1.01663
279,1632,3.31582,-0.0166103,0.29142,1.01607
281,1630,3.31601,-0.0165588,0.291418,1.01608
283,1628,3.31563,-0.0165814,0.291418,1.01607
285,1626,3.315464,-0.0165915,0.291416,1.01607
287,1624,3.31581,-0.0165484,0.291414,1.01608
289,1622,3.3154,-0.0171588,0.291829,1.01555
291,1620,3.31474,-0.0172549,0.291833,1.01549
293,1618,3.31569,-0.0171396,0.291424,1.01579
295,1616,3.31562,-0.0176938,0.291432,1.01552
297,1614,3.31531,-0.0177721,0.291427,1.01547
299,1612,3.31529,-0.0184286,0.291845,1.01492
301,1610,3.31543,-0.0182547,0.291427,1.01521
303,1608,3.31467,-0.0183871,0.291837,1.01491
305,1606,3.31509,-0.0184069,0.292218,1.01491
307,1604,3.31669,-0.0159182,0.29095,1.0141
309,1602,3.31621,-0.0160061,0.291366,1.01384
311,1600,3.31628,-0.01595,0.290943,1.01405
313,1598,3.31594,-0.0159997,0.291037,1.01402
315,1596,3.31594,-0.016057,0.290948,1.01388
317,1594,3.31585,-0.016684,0.290953,1.01371
319,1592,3.31558,-0.0166495,0.290957,1.01372
321,1590,3.31594,-0.0172037,0.290955,1.01343
323,1588,3.31582,-0.0172139,0.290958,1.01343
325,1586,3.31559,-0.0170923,0.290955,1.01349
327,1584,3.3154,-0.0178396,0.291372,1.01288
329,1582,3.31447,-0.0179603,0.292174,1.01261
331,1580,3.31516,-0.0178247,0.29137,1.01288
333,1578,3.3153,-0.0178553,0.291367,1.01312
335,1576,3.31491,-0.0179448,0.291366,1.0128
337,1574,3.31576,-0.0177778,0.29095,1.01311
339,1572,3.31541,-0.0184153,0.291524,1.01256
341,1570,3.31424,-0.0186063,0.291786,1.01224
343,1568,3.31702,-0.0159549,0.290075,1.01224
345,1566,3.31642,-0.0160037,0.290495,1.01175
347,1564,3.31556,-0.0166249,0.290913,1.01122
349,1562,3.31614,-0.0166174,0.290488,1.01142
351,1560,3.31618,-0.0165514,0.290489,1.01147
353,1558,3.31583,-0.0165633,0.290489,1.01145
355,1556,3.31598,-0.0166199,0.290487,1.01141
357,1554,3.31611,-0.0166454,0.290486,1.01165
359,1552,3.31556,-0.0172545,0.290907,1.01087
361,1550,3.31472,-0.0173757,0.291325,1.01059
363,1548,3.31522,-0.0172778,0.290903,1.01083
365,1546,3.3154,-0.017308,0.290912,1.0094
367,1544,3.31523,-0.0179563,0.290917,1.01052
369,1542,3.31516,-0.0179056,0.291425,1.01057
371,1540,3.31494,-0.0185286,0.291338,1.01004
373,1538,3.3151,-0.0184384,0.290922,1.01029
375,1536,3.31507,-0.0183538,0.29092,1.01035
377,1534,3.31684,-0.0153767,0.290029,1.00979
379,1532,3.31626,-0.0159767,0.290026,1.00944
381,1530,3.31605,-0.0160298,0.29003,1.00942
383,1528,3.3169,-0.0159497,0.28961,1.00993
385,1526,3.3161,-0.0161278,0.290025,1.00937
387,1524,3.31614,-0.0166227,0.290019,1.00908
389,1522,3.31627,-0.0166614,0.290394,1.0091
391,1520,3.31546,-0.0172678,0.29046,1.00858
393,1518,3.31552,-0.0173239,0.290462,1.00856
395,1516,3.31611,-0.0172096,0.290044,1.00884
397,1514,3.31565,-0.017943,0.290468,1.00827
399,1512,3.31567,-0.0178992,0.290464,1.00828
401,1510,3.3161,-0.0178778,0.290047,1.00849
403,1508,3.31571,-0.0178925,0.29085,1.00828
405,1506,3.31531,-0.0185099,0.290874,1.00772
407,1504,3.31505,-0.0186029,0.290864,1.00764
409,1502,3.31491,-0.0185881,0.290864,1.00763
411,1500,3.31526,-0.0184876,0.29044,1.0079
413,1498,3.31435,-0.0186864,0.290864,1.00758
415,1496,3.31659,-0.0161285,0.289572,1.00705
417,1494,3.31651,-0.016047,0.289576,1.00712
419,1492,3.31635,-0.0160418,0.28958,1.00713
421,1490,3.31608,-0.0166753,0.290006,1.0066
423,1488,3.31573,-0.0167691,0.290003,1.00655
425,1486,3.31622,-0.0166778,0.289584,1.0068
427,1484,3.31614,-0.017317,0.290164,1.00627
429,1482,3.31572,-0.0173952,0.290005,1.00622
431,1480,3.31592,-0.0173886,0.290002,1.00622
433,1478,3.31594,-0.0172833,0.290001,1.00627
435,1476,3.31526,-0.0179929,0.290581,1.00567
437,1474,3.31553,-0.0179352,0.290003,1.00592
439,1472,3.31536,-0.0180437,0.289997,1.00585
441,1470,3.31493,-0.0181344,0.290428,1.00562
443,1468,3.31521,-0.0186365,0.290426,1.00535
445,1466,3.31456,-0.018669,0.290429,1.00534
447,1464,3.31641,-0.0161714,0.289635,1.00455
449,1462,3.31694,-0.0160449,0.28954,1.00459
451,1460,3.31685,-0.0159871,0.289112,1.00481
453,1458,3.31613,-0.0161933,0.289524,1.00447
455,1456,3.3162,-0.0161859,0.289385,1.00448
457,1454,3.31609,-0.0161162,0.289521,1.0045
459,1452,3.3162,-0.0161363,0.289512,1.00445
461,1450,3.31611,-0.0161475,0.289508,1.00443
463,1448,3.31597,-0.0161127,0.289511,1.00446
465,1446,3.31548,-0.016968,0.289933,1.00356
467,1444,3.31513,-0.0169192,0.289947,1.00388
469,1442,3.31534,-0.0169134,0.289942,1.00385
471,1440,3.31455,-0.017581,0.290361,1.00329
473,1438,3.31448,-0.0175152,0.290365,1.00332
475,1436,3.31504,-0.0174807,0.290361,1.00333
477,1434,3.3149,-0.0174898,0.289933,1.00354
479,1432,3.3147,-0.0175974,0.29036,1.00327
481,1430,3.31528,-0.018128,0.290352,1.00146
483,1428,3.31461,-0.0181168,0.290353,1.00296
485,1426,3.31475,-0.0182468,0.290353,1.00289
487,1424,3.3142,-0.0182567,0.290777,1.00268
489,1422,3.31416,-0.0181882,0.290344,1.00292
491,1420,3.31392,-0.0190166,0.290782,1.00229
493,1418,3.31595,-0.0156477,0.289044,1.00235
495,1416,3.31555,-0.016339,0.289483,1.00182
497,1414,3.31583,-0.0163034,0.289486,1.00186
499,1412,3.31522,-0.0168302,0.289903,1.00134
501,1410,3.31565,-0.016904,0.289476,1.00151
503,1408,3.31545,-0.016942,0.28947,1.00148
505,1406,3.31476,-0.0170246,0.289892,1.00121
507,1404,3.31554,-0.0170274,0.289471,1.00142
509,1402,3.31518,-0.0169346,0.289887,1.00125
511,1400,3.31462,-0.0176827,0.290312,1.00062
513,1398,3.31474,-0.0176797,0.289888,1.00086
515,1396,3.31508,-0.0174908,0.28937,1.00119
517,1394,3.31458,-0.0181982,0.289901,1.00062
519,1392,3.31432,-0.0182924,0.289915,1.00061
521,1390,3.31484,-0.0188908,0.289913,1.00029
523,1388,3.31442,-0.0189142,0.290345,1.00009
525,1386,3.31419,-0.0187912,0.289912,1.00034
527,1384,3.3144,-0.0188625,0.289905,1.0003
529,1382,3.31608,-0.0163092,0.289007,0.999457
531,1380,3.31569,-0.0163072,0.289341,0.99944
533,1378,3.31546,-0.0164048,0.289425,0.999168
535,1376,3.31568,-0.0162866,0.289,0.999429
537,1374,3.31546,-0.0163529,0.288996,0.999395
539,1372,3.31551,-0.0164515,0.288994,0.999337
541,1370,3.31495,-0.0170208,0.28942,0.998604
543,1368,3.31482,-0.0177537,0.289444,0.998507
545,1366,3.31446,-0.017791,0.289876,0.998307
547,1364,3.31471,-0.0176691,0.289835,0.998576
549,1362,3.31494,-0.0182365,0.289451,0.998301
551,1360,3.31476,-0.0182067,0.289446,0.998297
553,1358,3.31443,-0.0183478,0.289863,0.997985
555,1356,3.31505,-0.0182844,0.289433,0.998219
557,1354,3.3149,-0.0181359,0.289423,0.998026
559,1352,3.31393,-0.0183533,0.290359,0.99793
561,1350,3.31393,-0.0190036,0.289849,0.997597
563,1348,3.31383,-0.0190781,0.289848,0.997556
565,1346,3.31341,-0.0190544,0.289845,0.997553
567,1344,3.31561,-0.0164405,0.288979,0.996857
569,1342,3.31565,-0.0163565,0.288989,0.996915
571,1340,3.31515,-0.0163939,0.288988,0.996879
573,1338,3.31552,-0.0170647,0.28908,0.996557
575,1336,3.31625,-0.0169064,0.288563,0.996856
577,1334,3.31516,-0.016954,0.288989,0.996606
579,1332,3.31478,-0.0177563,0.289418,0.99597
581,1330,3.31471,-0.0176636,0.289929,0.996022
583,1328,3.31498,-0.0176793,0.288988,0.996236
585,1326,3.31473,-0.0178339,0.289417,0.99594
587,1324,3.31454,-0.0184029,0.289417,0.995654
589,1322,3.31403,-0.0183454,0.289417,0.995664
591,1320,3.31354,-0.0184382,0.289849,0.995409
593,1318,3.31385,-0.0184089,0.289852,0.99545
595,1316,3.31403,-0.01897,0.289418,0.995352
597,1314,3.31584,-0.0156943,0.288097,0.99512
599,1312,3.31595,-0.0164091,0.288533,0.994556
601,1310,3.31588,-0.0163775,0.288913,0.994567
603,1308,3.31581,-0.0163928,0.288916,0.994569
605,1306,3.31491,-0.0171403,0.288961,0.993967
607,1304,3.3146,-0.0171972,0.288959,0.993932
609,1302,3.31551,-0.0169802,0.288532,0.994515
611,1300,3.31457,-0.017203,0.288962,0.993937
613,1298,3.31472,-0.0177288,0.288966,0.993675
615,1296,3.31475,-0.01776,0.289053,0.993646
617,1294,3.31448,-0.0178112,0.288962,0.993623
619,1292,3.31503,-0.0184107,0.289056,0.99332
621,1290,3.31403,-0.0185093,0.289394,0.993053
623,1288,3.31419,-0.0184687,0.288964,0.993289
625,1286,3.31363,-0.0185234,0.289395,0.993055
627,1284,3.31352,-0.0192,0.289395,0.99271
629,1282,3.31403,-0.0190299,0.288962,0.992992
631,1280,3.31502,-0.016659,0.288503,0.991854
633,1278,3.31517,-0.0165652,0.2885,0.991901
635,1276,3.31493,-0.0165662,0.288497,0.991887
637,1274,3.31514,-0.0164738,0.288064,0.992142
639,1272,3.31508,-0.0166042,0.288495,0.991865
641,1270,3.31487,-0.0172884,0.288494,0.991497
643,1268,3.31499,-0.0172138,0.288492,0.991542
645,1266,3.31433,-0.01733,0.288928,0.991266
647,1264,3.31481,-0.0171719,0.288493,0.991567
649,1262,3.31507,-0.0180255,0.288495,0.991123
651,1260,3.31321,-0.0179854,0.288926,0.99117
653,1258,3.31391,-0.0186467,0.288567,0.990587
655,1256,3.31409,-0.0185863,0.288926,0.990623
657,1254,3.3136,-0.0184811,0.288924,0.990676
659,1252,3.3141,-0.0185876,0.288925,0.990616
661,1250,3.31322,-0.0192942,0.289357,0.990038
663,1248,3.3138,-0.0192668,0.288922,0.990257
665,1246,3.3137,-0.0192187,0.288923,0.990282
667,1244,3.31304,-0.0192837,0.289867,0.990033
669,1242,3.31338,-0.0192093,0.288907,0.990268
671,1240,3.31508,-0.0167378,0.28803,0.989401
673,1238,3.31465,-0.016711,0.288031,0.989416
675,1236,3.31458,-0.0173359,0.288466,0.988899
677,1234,3.31438,-0.0173074,0.288465,0.988915
679,1232,3.31452,-0.0173968,0.288031,0.98908
681,1230,3.31392,-0.0180615,0.288467,0.988528
683,1228,3.31412,-0.018052,0.288464,0.98852
685,1226,3.31414,-0.0179799,0.288465,0.98857
687,1224,3.31438,-0.0179597,0.288463,0.98857
689,1222,3.31367,-0.0186345,0.288461,0.988218
691,1220,3.31325,-0.0187032,0.288464,0.988186
693,1218,3.3138,-0.0186989,0.288552,0.988189
695,1216,3.31283,-0.0193212,0.288873,0.987659
697,1214,3.31262,-0.0194721,0.28934,0.987387
699,1212,3.31521,-0.0166873,0.287575,0.987101
701,1210,3.31483,-0.0167162,0.288092,0.987093
703,1208,3.31474,-0.0174118,0.288011,0.986518
705,1206,3.31505,-0.0172604,0.287574,0.986793
707,1204,3.31459,-0.0174005,0.288015,0.986512
709,1202,3.3141,-0.0174505,0.288013,0.986505
711,1200,3.31404,-0.0181391,0.288009,0.986142
713,1198,3.31462,-0.0179148,0.287957,0.98646
715,1196,3.3139,-0.0179838,0.28801,0.986216
717,1194,3.31363,-0.0187234,0.288446,0.985613
719,1192,3.3132,-0.018789,0.288442,0.985576
721,1190,3.31321,-0.018818,0.288443,0.985562
723,1188,3.31302,-0.0188809,0.288429,0.985491
725,1186,3.31346,-0.0188563,0.288439,0.985778
727,1184,3.31278,-0.0194031,0.288868,0.985017
729,1182,3.31261,-0.0193604,0.288425,0.985238
731,1180,3.31241,-0.0196497,0.288826,0.98488
733,1178,3.31402,-0.0168208,0.287543,0.984387
735,1176,3.31428,-0.016839,0.287543,0.984389
737,1174,3.31451,-0.0168602,0.287542,0.984383
739,1172,3.31392,-0.0174467,0.287542,0.98408
741,1170,3.31412,-0.0176148,0.287541,0.984
743,1168,3.31357,-0.0181415,0.287977,0.983506
745,1166,3.31417,-0.0181456,0.287541,0.983719
747,1164,3.3134,-0.0182522,0.287979,0.983454
749,1162,3.31368,-0.01825,0.287531,0.983639
751,1160,3.31254,-0.0190528,0.288804,0.982839
753,1158,3.31278,-0.0189266,0.28798,0.983112
755,1156,3.31265,-0.018938,0.28842,0.982903
757,1154,3.31265,-0.0194843,0.288418,0.982627
759,1152,3.31501,-0.0169635,0.287091,0.98197
761,1150,3.3144,-0.0169116,0.287089,0.982002
763,1148,3.31436,-0.016897,0.287084,0.981998
765,1146,3.31406,-0.0175511,0.287524,0.981458
767,1144,3.31399,-0.0175973,0.287087,0.981654
769,1142,3.3143,-0.0175479,0.287083,0.981662
771,1140,3.31326,-0.0182842,0.288038,0.981065
773,1138,3.31358,-0.0182473,0.287522,0.981077
775,1136,3.31337,-0.0180727,0.287519,0.981163
777,1134,3.31329,-0.0183897,0.28752,0.980997
779,1132,3.3139,-0.0189473,0.287518,0.980715
781,1130,3.31287,-0.018956,0.287963,0.980515
783,1128,3.31281,-0.0195826,0.28796,0.9802
785,1126,3.31231,-0.019771,0.288479,0.980102
787,1124,3.31442,-0.0163669,0.286627,0.979865
789,1122,3.31376,-0.0170975,0.287067,0.979292
791,1120,3.31443,-0.0169363,0.286619,0.979564
793,1118,3.31384,-0.0170421,0.287051,0.979274
795,1116,3.31361,-0.0170621,0.287563,0.97926
797,1114,3.31351,-0.0177813,0.28749,0.978682
799,1112,3.3131,-0.0177997,0.287482,0.978639
801,1110,3.3135,-0.0177992,0.28705,0.979128
803,1108,3.31253,-0.0186381,0.287504,0.978264
805,1106,3.31293,-0.0190066,0.287507,0.978105
807,1104,3.31259,-0.0190378,0.288026,0.978103
809,1102,3.31257,-0.0196951,0.287505,0.977761
811,1100,3.31228,-0.0197774,0.28795,0.977271
813,1098,3.31198,-0.0197944,0.287948,0.977493
815,1096,3.31238,-0.0197153,0.28759,0.97774
817,1094,3.31382,-0.0171731,0.286604,0.97685
819,1092,3.3136,-0.0170916,0.286751,0.976868
821,1090,3.31349,-0.0171723,0.286596,0.976836
823,1088,3.31297,-0.017781,0.287034,0.976304
825,1086,3.31298,-0.0179386,0.287034,0.976217
827,1084,3.31374,-0.0177626,0.286526,0.976545
829,1082,3.31318,-0.0185185,0.287046,0.97595
831,1080,3.31265,-0.0191227,0.287049,0.975654
833,1078,3.31253,-0.0191057,0.287569,0.975689
835,1076,3.31225,-0.0199356,0.287503,0.975078
837,1074,3.31203,-0.019828,0.287494,0.9751
839,1072,3.31534,-0.0162787,0.285268,0.975375
841,1070,3.31468,-0.0170211,0.28571,0.97478
843,1068,3.31411,-0.0171559,0.286152,0.974487
845,1066,3.3135,-0.0178288,0.286982,0.973934
847,1064,3.31366,-0.01777,0.286147,0.97417
849,1062,3.31362,-0.0178403,0.286147,0.974128
851,1060,3.31315,-0.0185348,0.286592,0.973562
853,1058,3.31327,-0.01845,0.286594,0.973628
855,1056,3.31318,-0.0184965,0.286595,0.973594
857,1054,3.31322,-0.0191522,0.28698,0.973275
859,1052,3.31212,-0.0192084,0.287041,0.973027
861,1050,3.31222,-0.0199904,0.287043,0.972641
863,1048,3.31196,-0.0199803,0.287046,0.972666
865,1046,3.31422,-0.0171168,0.2857,0.972138
867,1044,3.31343,-0.0171664,0.286147,0.971898
869,1042,3.3142,-0.0170718,0.285697,0.972399
871,1040,3.31363,-0.0178934,0.286143,0.971487
873,1038,3.31251,-0.017951,0.286591,0.97127
875,1036,3.31332,-0.0179786,0.28614,0.971478
877,1034,3.313,-0.0186515,0.28614,0.971125
879,1032,3.31239,-0.0186846,0.286588,0.970901
881,1030,3.3128,-0.0185407,0.285652,0.971186
883,1028,3.31228,-0.0193533,0.286585,0.970546
885,1026,3.31184,-0.0194384,0.287034,0.970292
887,1024,3.3116,-0.0199753,0.287034,0.970036
889,1022,3.31136,-0.0200872,0.287035,0.969992
891,1020,3.31327,-0.016644,0.285917,0.969724
893,1018,3.31265,-0.0174673,0.286137,0.969098
895,1016,3.31333,-0.0172607,0.285686,0.969438
897,1014,3.31309,-0.0180583,0.286135,0.968818
899,1012,3.31323,-0.0180566,0.285685,0.969034
901,1010,3.31279,-0.0179557,0.285684,0.969065
903,1008,3.312,-0.0189036,0.286131,0.968374
905,1006,3.31194,-0.0187644,0.286126,0.968447
907,1004,3.31171,-0.0194189,0.286572,0.967903
909,1002,3.3115,-0.019476,0.286565,0.967836
911,1000,3.31221,-0.019565,0.286573,0.967812
913,998,3.31166,-0.0201693,0.286575,0.967514
915,996,3.31091,-0.0201496,0.286579,0.967537
917,994,3.31259,-0.0175895,0.286066,0.966627
919,992,3.31234,-0.0175184,0.285683,0.966668
921,990,3.312,-0.0181948,0.286136,0.96613
923,988,3.31245,-0.0181497,0.285836,0.966364
925,986,3.31241,-0.0189039,0.28613,0.965764
927,984,3.31153,-0.0188548,0.28613,0.96579
929,982,3.31127,-0.0190045,0.28613,0.96571
931,980,3.31096,-0.0197121,0.286964,0.965141
933,978,3.31085,-0.0196105,0.28658,0.965186
935,976,3.31144,-0.0196057,0.286126,0.965412
937,974,3.31119,-0.0203482,0.286583,0.964836
939,972,3.31248,-0.0176404,0.285687,0.963995
941,970,3.31238,-0.0175916,0.285238,0.964269
943,968,3.31211,-0.0182063,0.285698,0.963763
945,966,3.31199,-0.0188425,0.285686,0.963415
947,964,3.31191,-0.0189307,0.28568,0.963358
949,962,3.31171,-0.0189029,0.285683,0.963369
951,960,3.31088,-0.0197213,0.286135,0.962731
953,958,3.31127,-0.0196671,0.28568,0.96299
955,956,3.31053,-0.0196937,0.286131,0.962763
957,954,3.31079,-0.0203351,0.286129,0.962421
959,952,3.31283,-0.0168983,0.28477,0.962152
961,950,3.31236,-0.0176255,0.285227,0.961577
963,948,3.312,-0.0174565,0.285217,0.961554
965,946,3.31138,-0.0179099,0.285748,0.961426
967,944,3.31168,-0.018345,0.285233,0.961238
969,942,3.31116,-0.0190907,0.285692,0.96067
971,940,3.31158,-0.0190208,0.285233,0.960917
973,938,3.31139,-0.0197409,0.285691,0.960352
975,936,3.31082,-0.0197515,0.285691,0.960345
977,934,3.31103,-0.0205524,0.285686,0.959926
979,932,3.31025,-0.0205507,0.286142,0.959722
981,930,3.31187,-0.0176992,0.285304,0.959138
983,928,3.31178,-0.0177342,0.284782,0.959115
985,926,3.31184,-0.0176551,0.284778,0.959146
987,924,3.31164,-0.0185136,0.285236,0.958506
989,922,3.31098,-0.0184735,0.285235,0.958535
991,920,3.3107,-0.0191838,0.285685,0.956572
993,918,3.31091,-0.0191594,0.285233,0.958189
995,916,3.31062,-0.0200169,0.285696,0.957557
997,914,3.31044,-0.0200581,0.285695,0.957533
999,912,3.30977,-0.0206982,0.28631,0.957007
1001,910,3.31129,-0.0172722,0.284788,0.9567
1003,908,3.31145,-0.017807,0.284791,0.956445
1005,906,3.31137,-0.0178711,0.284793,0.956425
1007,904,3.31079,-0.0185897,0.285252,0.955859
1009,902,3.31123,-0.0185642,0.284792,0.956098
1011,900,3.31097,-0.0192213,0.284792,0.955762
1013,898,3.31041,-0.0199465,0.285773,0.955183
1015,896,3.31028,-0.0200114,0.285252,0.955162
1017,894,3.31042,-0.0200186,0.285254,0.955162
1019,892,3.30964,-0.0206307,0.28572,0.954674
1021,890,3.31146,-0.0179766,0.284355,0.953977
1023,888,3.31116,-0.0178932,0.284436,0.954032
1025,886,3.31131,-0.0185529,0.284359,0.953716
1027,884,3.31055,-0.018732,0.284823,0.953419
1029,882,3.31076,-0.0193028,0.284821,0.953109
1031,880,3.30999,-0.0193726,0.284821,0.953103
1033,878,3.30963,-0.0201581,0.285277,0.952491
1035,876,3.3099,-0.020024,0.284814,0.952765
1037,874,3.30982,-0.0208519,0.285275,0.952139
1039,872,3.3094,-0.0207628,0.285659,0.952177
1041,870,3.31164,-0.0180315,0.2839,0.951509
1043,868,3.31074,-0.0180915,0.284365,0.951266
1045,866,3.31047,-0.0187224,0.284363,0.95095
1047,864,3.31051,-0.0188777,0.284369,0.949473
1049,862,3.31002,-0.0194433,0.28484,0.950424
1051,860,3.30926,-0.0202513,0.284839,0.950027
1053,858,3.30955,-0.0209174,0.284842,0.949711
1055,856,3.30899,-0.0208682,0.285226,0.949735
1057,854,3.31159,-0.018064,0.283466,0.949095
1059,852,3.31099,-0.0181091,0.283931,0.948858
1061,850,3.31107,-0.0180795,0.283455,0.949068
1063,848,3.31014,-0.0188908,0.284383,0.948218
1065,846,3.31005,-0.0188372,0.283915,0.948458
1067,844,3.31005,-0.0196667,0.284386,0.947848
1069,842,3.30985,-0.0195468,0.284386,0.947903
1071,840,3.30874,-0.0205336,0.284847,0.947199
1073,838,3.30928,-0.020348,0.284375,0.947492
1075,836,3.30842,-0.021179,0.284846,0.946881
1077,834,3.3107,-0.0175039,0.28347,0.946651
1079,832,3.31024,-0.0181749,0.283552,0.946341
1081,830,3.30979,-0.019092,0.283943,0.945676
1083,828,3.30943,-0.0189424,0.283939,0.945748
1085,826,3.30943,-0.019726,0.283938,0.945371
1087,824,3.30928,-0.019796,0.284407,0.945118
1089,822,3.30874,-0.0205124,0.284406,0.944771
1091,820,3.30829,-0.0205617,0.284405,0.944738
1093,818,3.30806,-0.0212529,0.284875,0.944433
1095,816,3.31064,-0.0176209,0.283016,0.944135
1097,814,3.31004,-0.0183181,0.283489,0.943582
1099,812,3.30951,-0.018374,0.283484,0.943544
1101,810,3.30888,-0.0191607,0.283952,0.942933
1103,808,3.30846,-0.0191696,0.283947,0.942921
1105,806,3.30886,-0.0199345,0.28396,0.942596
1107,804,3.3076,-0.0206163,0.284436,0.942067
1109,802,3.3073,-0.0213604,0.284436,0.941957
1111,800,3.30953,-0.0166146,0.28306,0.940754
1113,798,3.31011,-0.0165767,0.282585,0.940983
1115,796,3.30907,-0.0191408,0.283918,0.940563
1117,794,3.30907,-0.0192879,0.283527,0.940488
1119,792,3.30778,-0.0200202,0.283998,0.939896
1121,790,3.30884,-0.0180542,0.283047,0.940039
1123,788,3.30826,-0.0261989,0.283524,0.939474
1125,786,3.30796,-0.0262123,0.283526,0.939469
1127,784,3.30974,-0.0177984,0.282614,0.93896
1129,782,3.30924,-0.0166518,0.283142,0.938252
1131,780,3.30917,-0.0186271,0.283084,0.938338
1133,778,3.30855,-0.0248565,0.283085,0.937677
1135,776,3.30817,-0.0201796,0.283567,0.937399
1137,774,3.30755,-0.0245062,0.283093,0.936615
1139,772,3.3078,-0.0244073,0.283143,0.936873
1141,770,3.30732,-0.0252658,0.283091,0.936262
1143,768,3.30944,-0.0185477,0.281228,0.935173
1145,766,3.30843,-0.0224422,0.282178,0.93537
1147,764,3.30826,-0.0230546,0.282175,0.93508
1149,762,3.30936,-0.0192037,0.280749,0.935062
1151,760,3.30852,-0.0199583,0.281223,0.934491
1153,758,3.30737,-0.0191764,0.283128,0.934174
1155,756,3.30783,-0.0207967,0.281693,0.933859
1157,754,3.30717,-0.0235036,0.28217,0.933614
1159,752,3.30951,-0.016799,0.280307,0.932511
1161,750,3.30876,-0.0242097,0.280387,0.932534
1163,748,3.3085,-0.0176428,0.280779,0.931888
1165,746,3.3087,-0.0193496,0.280779,0.932334
1167,744,3.30793,-0.025674,0.280781,0.931626
1169,742,3.30715,-0.0190869,0.281253,0.930991
1171,740,3.30711,-0.0228235,0.281731,0.9315
1173,738,3.30672,-0.0251862,0.280778,0.930619
1175,736,3.30882,-0.0243477,0.279863,0.930037
1177,734,3.30858,-0.0243613,0.279863,0.93003
1179,732,3.30732,-0.0251541,0.280338,0.929452
1181,730,3.3071,-0.0258339,0.280816,0.928908
1183,728,3.30753,-0.0258627,0.280338,0.929129
1185,726,3.307,-0.0247189,0.280338,0.928403
1187,724,3.30648,-0.0247698,0.280337,0.9284
1189,722,3.30843,-0.0218815,0.279423,0.927523
1191,720,3.30815,-0.0206615,0.278946,0.927084
1193,718,3.30833,-0.019481,0.278476,0.926618
1195,716,3.30823,-0.0175566,0.278002,0.926507
1197,714,3.30748,-0.0265539,0.278475,0.925588
1199,712,3.30724,-0.0190333,0.278472,0.925577
1201,710,3.30744,-0.0272952,0.278471,0.925233
1203,708,3.30893,-0.0242747,0.277555,0.924427
1205,706,3.30829,-0.0244382,0.277554,0.924358
1207,704,3.30735,-0.0251599,0.278028,0.9238
1209,702,3.30829,-0.0176577,0.277551,0.923944
1211,700,3.30789,-0.0220959,0.277079,0.92317
1213,698,3.30721,-0.022884,0.277078,0.922801
1215,696,3.30631,-0.0256121,0.278023,0.922346
1217,694,3.30874,-0.0198781,0.276158,0.921986
1219,692,3.308,-0.0207667,0.276634,0.921368
1221,690,3.30741,-0.02341,0.277108,0.921162
1223,688,3.30763,-0.0222454,0.276711,0.920691
1225,686,3.30635,-0.0211426,0.277113,0.919749
1227,684,3.30715,-0.0267753,0.276167,0.919843
1229,682,3.30671,-0.0273691,0.276166,0.919555
1231,680,3.30853,-0.017042,0.275249,0.918885
1233,678,3.30798,-0.0251745,0.275245,0.918369
1235,676,3.30787,-0.0232406,0.27477,0.918234
1237,674,3.308,-0.0259607,0.275241,0.918001
1239,672,3.30807,-0.0220933,0.274301,0.917738
1241,670,3.30698,-0.0192623,0.275712,0.917366
1243,668,3.30701,-0.0255539,0.275239,0.916942
1245,666,3.3085,-0.0226068,0.274318,0.91609
1247,664,3.30812,-0.0226552,0.274316,0.916063
1249,662,3.30744,-0.0236881,0.27494,0.915374
1251,660,3.30665,-0.0223919,0.274792,0.914731
1253,658,3.30783,-0.0211518,0.273852,0.914515
1255,656,3.30681,-0.0199651,0.273849,0.913796
1257,654,3.30791,-0.0220664,0.273872,0.913926
1259,652,3.30761,-0.024569,0.272929,0.912983
1261,650,3.30778,-0.0178003,0.272924,0.911305
1263,648,3.30768,-0.0260495,0.273072,0.91229
1265,646,3.30766,-0.0185817,0.272924,0.912227
1267,644,3.30645,-0.0192862,0.273392,0.911684
1269,642,3.30624,-0.027625,0.273391,0.911354
1271,640,3.30797,-0.0247711,0.272471,0.910456
1273,638,3.3083,-0.0246109,0.271995,0.910734
1275,636,3.30756,-0.0235543,0.271998,0.909971
1277,634,3.30677,-0.0243526,0.272468,0.909399
1279,632,3.30755,-0.0211388,0.27138,0.908814
1281,630,3.30664,-0.0251032,0.272463,0.909295
1283,628,3.3057,-0.0260285,0.272934,0.908403
1285,626,3.30776,-0.0171844,0.270597,0.907136
1287,624,3.30844,-0.0178065,0.270128,0.90708
1289,622,3.30717,-0.0262143,0.270599,0.906524
1291,620,3.30734,-0.0187098,0.270596,0.906462
1293,618,3.30623,-0.0270818,0.271062,0.905907
1295,616,3.30597,-0.0258786,0.27059,0.905409
1297,614,3.3084,-0.0164082,0.269667,0.905272
1299,612,3.30731,-0.0172479,0.270132,0.904654
1301,610,3.30684,-0.0219162,0.271075,0.904585
1303,608,3.30651,-0.0245066,0.270125,0.903593
1305,606,3.30618,-0.0265462,0.270597,0.903707
1307,604,3.30598,-0.0252722,0.270505,0.903254
1309,602,3.30566,-0.0204072,0.270235,0.903016
1311,600,3.30756,-0.0210555,0.268741,0.901953
1313,598,3.30751,-0.0218321,0.268742,0.901621
1315,596,3.30691,-0.0226643,0.269212,0.901027
1317,594,3.30662,-0.0187403,0.268276,0.900763
1319,592,3.30674,-0.019477,0.268275,0.900432
1321,590,3.30835,-0.0240501,0.266878,0.899844
1323,588,3.3078,-0.0248701,0.267343,0.899245
1325,586,3.30783,-0.0231007,0.266872,0.899001
1327,584,3.3067,-0.0181435,0.267802,0.898561
1329,582,3.30666,-0.0264317,0.267943,0.898301
1331,580,3.3064,-0.025436,0.267794,0.897487
1333,578,3.30573,-0.0197052,0.268261,0.897615
1335,576,3.30786,-0.0165553,0.266856,0.897009
1337,574,3.30669,-0.0251791,0.267328,0.896407
1339,572,3.30611,-0.0241126,0.26723,0.895656
1341,570,3.30658,-0.0228045,0.266861,0.895205
1343,568,3.30594,-0.0228932,0.266865,0.895185
1345,566,3.30456,-0.02571,0.267809,0.894756
1347,564,3.30828,-0.0185629,0.265007,0.894143
1349,562,3.30709,-0.0250247,0.265007,0.893461
1351,560,3.30681,-0.0182327,0.265469,0.893053
1353,558,3.30628,-0.0208944,0.265937,0.892641
1355,556,3.30626,-0.0188588,0.265465,0.892526
1357,554,3.30589,-0.0217162,0.265928,0.89226
1359,552,3.30561,-0.0205042,0.265923,0.891561
1361,550,3.30663,-0.0195568,0.265463,0.890784
1363,548,3.30606,-0.0184279,0.265456,0.890011
1365,546,3.30643,-0.0260809,0.264986,0.890327
1367,544,3.30563,-0.0248901,0.264982,0.889591
1369,542,3.30556,-0.0256701,0.264979,0.889249
1371,540,3.30426,-0.0285737,0.265925,0.888782
1373,538,3.30711,-0.0193999,0.26313,0.88781
1375,536,3.30667,-0.0222147,0.263602,0.887602
1377,534,3.30628,-0.0268614,0.263136,0.886741
1379,532,3.30576,-0.0217759,0.263599,0.886556
1381,530,3.30559,-0.0197398,0.26272,0.886678
1383,528,3.30683,-0.0245196,0.262196,0.88557
1385,526,3.30688,-0.0252756,0.262186,0.88521
1387,524,3.3058,-0.0224505,0.263597,0.884859
1389,522,3.30579,-0.0240988,0.262189,0.884711
1391,520,3.30507,-0.027832,0.263122,0.883671
1393,518,3.30565,-0.027647,0.262654,0.88397
1395,516,3.30433,-0.028626,0.263117,0.883314
1397,514,3.30584,-0.0255279,0.262182,0.882475
1399,512,3.30648,-0.0202057,0.26078,0.881717
1401,510,3.30666,-0.0190662,0.260333,0.881233
1403,508,3.30584,-0.0199041,0.260797,0.880461
1405,506,3.30541,-0.0283966,0.260799,0.88038
1407,504,3.3068,-0.0254126,0.259862,0.879502
1409,502,3.30744,-0.024294,0.259408,0.878999
1411,500,3.30607,-0.025003,0.259863,0.878447
1413,498,3.30612,-0.0269916,0.260376,0.878819
1415,496,3.30534,-0.0258068,0.259859,0.878078
1417,494,3.30536,-0.026561,0.259859,0.877758
1419,492,3.30676,-0.023668,0.258923,0.876823
1421,490,3.30682,-0.0222612,0.258459,0.87641
1423,488,3.30507,-0.0232421,0.259384,0.875537
1425,486,3.3068,-0.0209873,0.257996,0.875954
1427,484,3.30484,-0.0239562,0.259382,0.875235
1429,482,3.30694,-0.0188127,0.257519,0.874471
1431,480,3.30716,-0.0196331,0.257521,0.87413
1433,478,3.30669,-0.0184744,0.257519,0.873385
1435,476,3.30602,-0.023308,0.258451,0.873359
1437,474,3.30546,-0.0279721,0.257986,0.872508
1439,472,3.30422,-0.0250995,0.259389,0.87216
1441,470,3.3073,-0.0216215,0.256645,0.871022
1443,468,3.30676,-0.0244214,0.256584,0.870832
1445,466,3.30654,-0.022317,0.256118,0.870694
1447,464,3.30594,-0.0233159,0.256581,0.870057
1449,462,3.30518,-0.0239899,0.256579,0.869754
1451,460,3.30556,-0.0225869,0.256119,0.869342
1453,458,3.30693,-0.0196305,0.255177,0.868424
1455,456,3.30665,-0.0217234,0.255638,0.868562
1457,454,3.30582,-0.0213008,0.255637,0.867482
1459,452,3.30553,-0.0212772,0.255635,0.867482
1461,450,3.30482,-0.0243541,0.25656,0.866975
1463,448,3.305,-0.0209358,0.255638,0.866405
1465,446,3.30578,-0.0220377,0.255628,0.865802
1467,444,3.3059,-0.0245527,0.25424,0.865069
1469,442,3.30615,-0.0254247,0.254244,0.864722
1471,440,3.30582,-0.0220665,0.253919,0.863872
1473,438,3.30523,-0.0229338,0.253781,0.863499
1475,436,3.307,-0.0196072,0.25238,0.862959
1477,434,3.30722,-0.0263322,0.251922,0.862477
1479,432,3.30605,-0.0274477,0.252836,0.861806
1481,430,3.3064,-0.0272189,0.252377,0.861883
1483,428,3.30519,-0.0222651,0.253291,0.861373
1485,426,3.30748,-0.0248991,0.251425,0.860677
1487,424,3.30666,-0.0199255,0.252345,0.860194
1489,422,3.30631,-0.0187448,0.252341,0.859427
1491,420,3.30576,-0.0216624,0.252806,0.859228
1493,418,3.3044,-0.028411,0.253276,0.858524
1495,416,3.30527,-0.0282613,0.252343,0.859074
1497,414,3.30625,-0.024067,0.251403,0.857178
1499,412,3.30696,-0.0226846,0.250494,0.856998
1501,410,3.30635,-0.0213534,0.250492,0.856307
1503,408,3.30568,-0.0214422,0.25048,0.856232
1505,406,3.30485,-0.024374,0.251052,0.85576
1507,404,3.30502,-0.0210703,0.250465,0.85509
1509,402,3.30642,-0.0232726,0.250435,0.855292
1511,400,3.3062,-0.017973,0.249516,0.8542
1513,398,3.30605,-0.0208055,0.249973,0.854062
1515,396,3.30545,-0.01965,0.249972,0.853279
1517,394,3.305,-0.0225094,0.25043,0.853114
1519,392,3.30405,-0.0212654,0.250429,0.852371
1521,390,3.30586,-0.0261071,0.249018,0.851787
1523,388,3.30552,-0.0189243,0.249481,0.851173
1525,386,3.30522,-0.0188891,0.249474,0.85118
1527,384,3.30475,-0.0218111,0.249943,0.851004
1529,382,3.30334,-0.0287467,0.249941,0.850266
1531,380,3.30637,-0.0234504,0.248073,0.849512
1533,378,3.3057,-0.0230235,0.248075,0.848441
1535,376,3.305055,-0.0251527,0.248534,0.848579
1537,374,3.30479,-0.0258686,0.248528,0.84844
1539,372,3.30393,-0.0246903,0.248525,0.8475
1541,370,3.30391,-0.0235071,0.248524,0.846727
1543,368,3.30563,-0.0202729,0.247108,0.846109
1545,366,3.30535,-0.0202131,0.247111,0.845962
1547,364,3.30502,-0.0198053,0.247104,0.8453
1549,362,3.30471,-0.0198065,0.247106,0.845057
1551,360,3.3044,-0.0205515,0.247102,0.844744
1553,358,3.30574,-0.02565,0.246151,0.843848
1555,356,3.30574,-0.0181044,0.246147,0.843571
1557,354,3.30486,-0.0191352,0.246611,0.842926
1559,352,3.30466,-0.0199379,0.246617,0.842623
1561,350,3.30368,-0.0209448,0.247078,0.841986
1563,348,3.30546,-0.0256852,0.245668,0.841496
1565,346,3.30559,-0.0245068,0.245215,0.840974
1567,344,3.30519,-0.0232327,0.245214,0.840257
1569,342,3.30431,-0.0282503,0.24613,0.840248
1571,340,3.30399,-0.0227495,0.245202,0.839168
1573,338,3.30398,-0.0236449,0.2452,0.838797
1575,336,3.30593,-0.0183616,0.243788,0.837749
1577,334,3.30541,-0.0183891,0.243786,0.837746
1579,332,3.30501,-0.0191533,0.243786,0.837433
1581,330,3.30475,-0.0259758,0.24333,0.836995
1583,328,3.30393,-0.0269275,0.244293,0.836383
1585,326,3.30561,-0.0215473,0.242373,0.83539
1587,324,3.30502,-0.0183928,0.243284,0.835346
1589,322,3.30431,-0.0253781,0.242909,0.834649
1591,320,3.30407,-0.0262895,0.243283,0.834274
1593,318,3.30368,-0.0270517,0.243284,0.833971
1595,316,3.30282,-0.0279863,0.24374,0.833369
1597,314,3.30497,-0.0246947,0.242324,0.832749
1599,312,3.30469,-0.0234499,0.242323,0.832002
1601,310,3.30413,-0.0264804,0.242782,0.831805
1603,308,3.30372,-0.0230715,0.242323,0.830919
1605,306,3.30338,-0.0230767,0.242825,0.830894
1607,304,3.30569,-0.0175832,0.240446,0.830145
1609,302,3.30494,-0.0268958,0.240899,0.829525
1611,300,3.30455,-0.019377,0.240899,0.829187
1613,298,3.30317,-0.0285044,0.241355,0.828656
1615,296,3.30349,-0.0210105,0.241354,0.828305
1617,294,3.30222,-0.0302548,0.241811,0.827726
1619,292,3.30503,-0.01865,0.24052,0.827077
1621,290,3.30358,-0.0279592,0.24085,0.826493
1623,288,3.30422,-0.0215637,0.240851,0.826944
1625,286,3.30286,-0.0204619,0.241309,0.825892
1627,284,3.30228,-0.029651,0.241304,0.825594
1629,282,3.3038,-0.0266081,0.240347,0.824645
1631,280,3.30403,-0.0250145,0.239883,0.824254
1633,278,3.30303,-0.0260996,0.240375,0.823577
1635,276,3.30368,-0.0223276,0.238965,0.823275
1637,274,3.30274,-0.0233538,0.23942,0.822631
1639,272,3.30508,-0.0261795,0.237588,0.821937
1641,270,3.30409,-0.0271616,0.238,0.821307
1643,268,3.30348,-0.0279449,0.238,0.821002
1645,266,3.30286,-0.0289066,0.238456,0.820403
1647,264,3.30279,-0.0212718,0.238455,0.820064
1649,262,3.30435,-0.026527,0.23749,0.819182
1651,260,3.30396,-0.0273776,0.237491,0.818847
1653,258,3.30286,-0.0282451,0.237949,0.818279
1655,256,3.30317,-0.0268807,0.237488,0.817795
1657,254,3.3031,-0.0213428,0.236575,0.816669
1659,252,3.30534,-0.0179603,0.235496,0.816095
1661,250,3.30453,-0.0209576,0.23561,0.815939
1663,248,3.30465,-0.0194943,0.235156,0.815497
1665,246,3.30338,-0.0290513,0.235609,0.814854
1667,244,3.30328,-0.027608,0.234858,0.814396
1669,242,3.30169,-0.0266728,0.237013,0.814252
1671,240,3.30415,-0.0272878,0.234637,0.813391
1673,238,3.30362,-0.0283741,0.235092,0.812739
1675,236,3.30253,-0.0270922,0.235089,0.81198
1677,234,3.30261,-0.0278771,0.235088,0.811682
1679,232,3.30201,-0.0286248,0.235086,0.811383
1681,230,3.30533,-0.0208599,0.233093,0.810445
1683,228,3.30385,-0.0240937,0.233661,0.809977
1685,226,3.30329,-0.0228461,0.233661,0.809215
1687,224,3.30265,-0.0258102,0.234115,0.809087
1689,222,3.30201,-0.0223591,0.233659,0.80815
1691,220,3.30392,-0.0274989,0.232237,0.807572
1693,218,3.3028,-0.0283985,0.232687,0.806993
1695,216,3.30331,-0.0271006,0.232236,0.806488
1697,214,3.30283,-0.0300527,0.232691,0.806374
1699,212,3.30232,-0.0301738,0.232688,0.806321
1701,210,3.30441,-0.0224059,0.230811,0.804878
1703,208,3.30355,-0.0242281,0.231259,0.804193
1705,206,3.30388,-0.0219433,0.230809,0.80405
1707,204,3.303,-0.0251341,0.231257,0.803843
1709,202,3.30263,-0.0236011,0.230808,0.803416
1711,200,3.30463,-0.0204603,0.229832,0.802478
1713,198,3.30404,-0.0199061,0.229832,0.801442
1715,196,3.30319,-0.0244589,0.230736,0.801738
1717,194,3.30281,-0.0292383,0.229832,0.801426
1719,192,3.30201,-0.0262094,0.231193,0.800846
1721,190,3.30469,-0.0246763,0.228409,0.799759
1723,188,3.30469,-0.0190837,0.228857,0.799609
1725,186,3.30261,-0.0273969,0.229304,0.798257
1727,184,3.30332,-0.0229702,0.228404,0.797901
1729,182,3.30183,-0.0282242,0.229627,0.797927
1731,180,3.30119,-0.0269155,0.229289,0.797147
1733,178,3.30308,-0.0215329,0.229208,0.796991
1735,176,3.30307,-0.0223268,0.227862,0.795718
1737,174,3.30197,-0.0298952,0.229215,0.795924
1739,172,3.30166,-0.0241381,0.22831,0.794814
1741,170,3.30211,-0.0292915,0.228761,0.795144
1743,168,3.30328,-0.021621,0.22733,0.793615
1745,166,3.30309,-0.0224022,0.227329,0.793328
1747,164,3.30236,-0.0254818,0.22778,0.793182
1749,162,3.30193,-0.0306911,0.227659,0.792261
1751,160,3.30148,-0.0229336,0.227322,0.791862
1753,158,3.30349,-0.0248917,0.225442,0.791495
1755,156,3.30403,-0.0193758,0.225892,0.7913
1757,154,3.30206,-0.0248576,0.227257,0.790969
1759,152,3.30205,-0.025693,0.227234,0.79069
1761,150,3.30138,-0.0220918,0.226783,0.78978
1763,148,3.30421,-0.0251642,0.224906,0.789031
1765,146,3.3026,-0.0227354,0.225405,0.787438
1767,144,3.30315,-0.0201451,0.224011,0.787626
1769,142,3.30221,-0.0243519,0.224907,0.7866
1771,140,3.3019,-0.0316067,0.224458,0.7864
1773,138,3.30286,-0.0240567,0.224486,0.785821
1775,136,3.3023,-0.0292236,0.223918,0.784927
1777,134,3.30274,-0.0213089,0.223915,0.784585
1779,132,3.30187,-0.028678,0.223464,0.784091
1781,130,3.30102,-0.0319124,0.224356,0.783689
1783,128,3.30297,-0.0198137,0.22337,0.782726
1785,126,3.3025,-0.0270654,0.222916,0.782313
1787,124,3.30206,-0.0205477,0.223361,0.782439
1789,122,3.30132,-0.0302671,0.223365,0.782157
1791,120,3.30066,-0.0312971,0.223821,0.781564
1793,118,3.30285,-0.027868,0.222387,0.780927
1795,116,3.30283,-0.0195724,0.22104,0.779674
1797,114,3.30317,-0.0205096,0.221039,0.779333
1799,112,3.30156,-0.0246113,0.221932,0.778604
1801,110,3.30087,-0.031937,0.221484,0.778174
1803,108,3.30321,-0.0286862,0.220495,0.777246
1805,106,3.30259,-0.0294222,0.220493,0.776979
1807,104,3.3023,-0.0228496,0.220961,0.777122
1809,102,3.30151,-0.0290511,0.220491,0.775855
1811,100,3.30124,-0.0289969,0.220489,0.77588
1813,98,3.30344,-0.0242374,0.219052,0.774466
1815,96,3.303,-0.0249498,0.219051,0.774208
1817,94,3.30213,-0.0237898,0.219541,0.773369
1819,92,3.30126,-0.0291821,0.219939,0.773444
1821,90,3.30023,-0.0301953,0.220385,0.772843
1823,88,3.30335,-0.02199,0.218052,0.771885
1825,86,3.30285,-0.0252189,0.218059,0.771732
1827,84,3.30191,-0.0215376,0.218053,0.770813
1829,82,3.30135,-0.0292635,0.218055,0.77003
1831,80,3.30339,-0.0280033,0.21706,0.769624
1833,78,3.30312,-0.0198534,0.217064,0.769321
1835,76,3.30265,-0.0229215,0.216176,0.768167
1837,74,3.30293,-0.0259274,0.216177,0.768357
1839,72,3.30143,-0.0293305,0.21706,0.767903
1841,70,3.30386,-0.0278182,0.214739,0.766521
1843,68,3.30319,-0.0243982,0.215613,0.766523
1845,66,3.30265,-0.023075,0.21563,0.765756
1847,64,3.30247,-0.0215563,0.215168,0.765268
1849,62,3.30104,-0.0249368,0.216047,0.764825
1851,60,3.30078,-0.0257896,0.216047,0.764517
1853,58,3.30292,-0.0199863,0.214606,0.763446
1855,56,3.30189,-0.0232443,0.215046,0.763281
1857,54,3.30257,-0.0284496,0.214161,0.762646
1859,52,3.30031,-0.0318472,0.215042,0.762214
1861,50,3.30241,-0.0282752,0.214041,0.761373
1863,48,3.30227,-0.0201599,0.214042,0.76101
1865,46,3.30233,-0.0278342,0.214089,0.760525
1867,44,3.30078,-0.0311148,0.214485,0.76015
1869,42,3.3015,-0.0249727,0.213158,0.759276
1871,40,3.3034,-0.0260567,0.212596,0.759039
1873,38,3.30241,-0.0223074,0.212152,0.758086
1875,36,3.30296,-0.0208364,0.211713,0.757602
1877,34,3.30074,-0.029,0.213478,0.757531
1879,32,3.30084,-0.0274368,0.213031,0.757066
1881,30,3.3031,-0.0192683,0.211145,0.755789
1883,28,3.30253,-0.0201638,0.211145,0.755475
1885,26,3.30213,-0.0301088,0.211141,0.755201
1887,24,3.30137,-0.0220631,0.21158,0.754553
1889,22,3.29992,-0.0298194,0.211577,0.753805
1891,20,3.30265,-0.0193636,0.210571,0.753378
1893,18,3.30176,-0.029534,0.210583,0.753049
1895,16,3.30172,-0.0256912,0.210131,0.752126
1897,14,3.30037,-0.029263,0.211012,0.751659
1899,12,3.30033,-0.0276967,0.21057,0.751196
1901,10,3.30218,-0.0239056,0.209115,0.750864
1903,8,3.30188,-0.0251344,0.20956,0.74997
1905,6,3.30156,-0.0236117,0.209119,0.749474
1907,4,3.30075,-0.0267401,0.209553,0.749398
1908,3,3.30112,-0.0244266,0.209597,0.749188