File: hust_correlation_analysis/matrices/HUST_3-8_cycle_feature_matrix.csv
cycle_number,rul,voltage,current,capacity,charge_capacity
1,2344,3.32722,0.0145234,0.268475,1.02767
4,2341,3.30889,-0.0254071,0.284668,1.0026
7,2338,3.31221,-0.0230068,0.282562,1.00766
10,2335,3.31346,-0.0233637,0.281393,1.01097
13,2332,3.31539,-0.0211923,0.279643,1.01301
16,2329,3.31585,-0.0217969,0.279391,1.01563
19,2326,3.31812,-0.0201797,0.277789,1.01745
22,2323,3.31793,-0.0221932,0.278298,1.01888
25,2320,3.31828,-0.022039,0.277451,1.0195
28,2317,3.31857,-0.0207441,0.276612,1.02061
31,2314,3.32022,-0.0211841,0.275763,1.02092
34,2311,3.32066,-0.0205414,0.275336,1.02144
37,2308,3.31978,-0.0212264,0.275333,1.02112
40,2305,3.32093,-0.0211362,0.274499,1.02168
43,2302,3.32136,-0.021131,0.274497,1.02167
46,2299,3.32051,-0.0217582,0.274493,1.02138
49,2296,3.3209,-0.0217005,0.274076,1.02163
52,2293,3.32148,-0.0217144,0.274073,1.02188
55,2290,3.32328,-0.0189586,0.272212,1.02135
58,2287,3.32245,-0.0192374,0.272619,1.02096
61,2284,3.32324,-0.019676,0.272151,1.02103
64,2281,3.32305,-0.0196514,0.272207,1.02102
67,2278,3.32246,-0.0204578,0.272616,1.02039
70,2275,3.323,-0.0209555,0.272201,1.02041
73,2272,3.32258,-0.0210818,0.272894,1.02009
76,2269,3.32189,-0.0217218,0.2726,1.01976
79,2266,3.32367,-0.0191045,0.27115,1.01917
82,2263,3.32401,-0.0191544,0.271162,1.01917
85,2260,3.3235,-0.0197439,0.271164,1.01893
88,2257,3.32259,-0.0205357,0.27168,1.0183
91,2254,3.32317,-0.0211023,0.271565,1.01802
94,2251,3.32287,-0.0210356,0.272112,1.01804
97,2248,3.32222,-0.0218826,0.271968,1.01738
100,2245,3.32262,-0.0217237,0.271554,1.0177
103,2242,3.32435,-0.0185192,0.270511,1.01711
106,2239,3.32353,-0.019923,0.271038,1.01623
109,2236,3.32336,-0.0199035,0.270941,1.01628
112,2233,3.32381,-0.0205811,0.270938,1.01597
115,2230,3.32304,-0.0205221,0.271217,1.01599
118,2227,3.32224,-0.0212045,0.27134,1.01538
121,2224,3.32259,-0.0218918,0.271337,1.01508
124,2221,3.32205,-0.0219368,0.271748,1.01478
127,2218,3.32365,-0.0192661,0.270842,1.01418
130,2215,3.32341,-0.0193009,0.270292,1.01417
133,2212,3.32384,-0.0200432,0.270714,1.01362
136,2209,3.32342,-0.0199618,0.270713,1.01366
139,2206,3.32248,-0.0207582,0.271128,1.01304
142,2203,3.32295,-0.0207031,0.27071,1.01331
145,2200,3.32262,-0.0213674,0.27112,1.01273
148,2197,3.32209,-0.0212951,0.271115,1.01274
151,2194,3.32133,-0.0220761,0.271528,1.01212
154,2191,3.32177,-0.021952,0.27111,1.01243
157,2188,3.32334,-0.0194675,0.270485,1.01125
160,2185,3.32241,-0.0202547,0.270909,1.01067
163,2182,3.32246,-0.0202362,0.270912,1.01069
166,2179,3.32302,-0.0207496,0.270911,1.01046
169,2176,3.32204,-0.0208793,0.271753,1.01015
172,2173,3.32136,-0.0216774,0.271744,1.00951
175,2170,3.32135,-0.021587,0.271327,1.00982
178,2167,3.3217,-0.0215776,0.271329,1.00982
181,2164,3.32101,-0.0222853,0.271747,1.0095
184,2161,3.3216,-0.0197506,0.271119,1.00806
187,2158,3.32217,-0.019625,0.270702,1.00839
190,2155,3.32245,-0.0196471,0.27071,1.00839
193,2152,3.3221,-0.0203808,0.271128,1.00636
196,2149,3.32091,-0.0204595,0.27155,1.00752
199,2146,3.32124,-0.0211046,0.27155,1.00722
202,2143,3.3214,-0.0210728,0.27197,1.00723
205,2140,3.32112,-0.02175,0.271548,1.00693
208,2137,3.32011,-0.0217618,0.271963,1.00664
211,2134,3.31989,-0.0218641,0.271967,1.00661
214,2131,3.32029,-0.022439,0.271972,1.00638
217,2128,3.3202,-0.0223273,0.271953,1.00636
220,2125,3.32151,-0.0198759,0.270908,1.0054
223,2122,3.32153,-0.0198462,0.270912,1.00542
226,2119,3.32173,-0.020437,0.27091,1.00516
229,2116,3.32132,-0.0204979,0.271334,1.00486
232,2113,3.3214,-0.0204203,0.270908,1.00517
235,2110,3.31987,-0.0212926,0.271758,1.00425
238,2107,3.32052,-0.0212005,0.271332,1.00456
241,2104,3.32034,-0.0219092,0.272183,1.00398
244,2101,3.31996,-0.0219208,0.271762,1.00398
247,2098,3.31943,-0.022712,0.272182,1.00335
250,2095,3.31919,-0.0226807,0.272178,1.00336
253,2092,3.32001,-0.0225291,0.271747,1.0035
256,2089,3.32186,-0.0192361,0.270684,1.00301
259,2086,3.3214,-0.0197609,0.270667,1.00274
262,2083,3.32028,-0.019897,0.271091,1.00239
265,2080,3.32041,-0.020095,0.271092,1.0023
268,2077,3.32103,-0.0197232,0.27106,1.00238
271,2074,3.32075,-0.0204173,0.27163,1.0021
274,2071,3.32043,-0.0205475,0.271078,1.00232
277,2068,3.31975,-0.0213647,0.271508,1.00146
280,2065,3.32044,-0.0212331,0.271081,1.00161
283,2062,3.3199,-0.0220672,0.271933,1.00087
286,2059,3.31975,-0.0219106,0.271504,1.0012
289,2056,3.31929,-0.0219383,0.271492,1.00115
292,2053,3.31849,-0.0227786,0.271937,1.00057
295,2050,3.32125,-0.0198281,0.270033,1.00035
298,2047,3.32096,-0.0199135,0.270459,1.00004
301,2044,3.32101,-0.0206395,0.270457,0.999735
304,2041,3.31989,-0.020756,0.270882,0.999398
307,2038,3.31986,-0.0207761,0.270882,0.999392
310,2035,3.32046,-0.0213956,0.270875,0.99911
313,2032,3.32035,-0.0213565,0.271434,0.999108
316,2029,3.31993,-0.0213648,0.27087,0.999101
319,2026,3.31915,-0.0221983,0.27131,0.9985
322,2023,3.31829,-0.0228758,0.271746,0.997961
325,2020,3.31889,-0.0228914,0.271322,0.998243
328,2017,3.31933,-0.0228564,0.271318,0.998244
331,2014,3.32111,-0.0201002,0.270251,0.997357
334,2011,3.32038,-0.0201108,0.270176,0.997571
337,2008,3.32016,-0.020092,0.270245,0.997328
340,2005,3.32025,-0.0207402,0.270237,0.997022
343,2002,3.32018,-0.0207341,0.27024,0.997033
346,1999,3.31986,-0.0208594,0.271104,0.99674
349,1996,3.31944,-0.0215311,0.27068,0.996464
352,1993,3.31909,-0.021558,0.270787,0.996458
355,1990,3.31891,-0.0223429,0.271117,0.995677
358,1987,3.31946,-0.0221747,0.270683,0.996195
361,1984,3.31912,-0.0222995,0.271117,0.995869
364,1981,3.3188,-0.0228944,0.271112,0.995608
367,1978,3.31839,-0.0229733,0.271108,0.995553
370,1975,3.31744,-0.0230164,0.271539,0.99526
373,1972,3.31973,-0.0201897,0.270043,0.994677
376,1969,3.31992,-0.0203194,0.270059,0.994676
379,1966,3.31984,-0.0209219,0.270496,0.994152
382,1963,3.31997,-0.020929,0.270006,0.994417
385,1960,3.31896,-0.0210167,0.27049,0.994086
388,1957,3.31869,-0.0217864,0.270919,0.993484
391,1954,3.31889,-0.0217408,0.270486,0.993771
394,1951,3.31915,-0.0216945,0.270485,0.993779
397,1948,3.31873,-0.0223102,0.270912,0.99323
400,1945,3.31851,-0.0224714,0.270918,0.991902
403,1942,3.31767,-0.0232977,0.271467,0.992591
406,1939,3.3176,-0.0232809,0.271365,0.992609
409,1936,3.31761,-0.0232348,0.271367,0.992643
412,1933,3.32005,-0.020344,0.270145,0.992055
415,1930,3.31928,-0.0204884,0.2703,0.991726
418,1927,3.31925,-0.0210008,0.270299,0.991511
421,1924,3.31824,-0.0212483,0.270729,0.991106
424,1921,3.31858,-0.0211298,0.270294,0.991421
427,1918,3.31884,-0.0212128,0.270216,0.991416
430,1915,3.31879,-0.0218569,0.270738,0.990888
433,1912,3.3181,-0.0219937,0.27118,0.99056
436,1909,3.31805,-0.0227101,0.271179,0.990266
439,1906,3.31734,-0.0226656,0.271605,0.990274
442,1903,3.317,-0.0226866,0.271179,0.990264
445,1900,3.31692,-0.0226841,0.271275,0.990011
448,1897,3.31752,-0.0234057,0.27117,0.98994
451,1894,3.31717,-0.0234269,0.271607,0.989648
454,1891,3.31923,-0.0204942,0.270099,0.989065
457,1888,3.31875,-0.0206037,0.270106,0.989061
460,1885,3.31786,-0.020773,0.270555,0.988737
463,1882,3.31783,-0.0213939,0.27056,0.988494
466,1879,3.31766,-0.0214202,0.27056,0.988492
469,1876,3.318,-0.0214347,0.270564,0.988502
472,1873,3.31797,-0.0221745,0.271,0.9879
475,1870,3.31761,-0.0221546,0.270999,0.987899
478,1867,3.31729,-0.0220976,0.270987,0.987896
481,1864,3.3169,-0.0227896,0.270982,0.987578
484,1861,3.3163,-0.0229579,0.271436,0.987264
487,1858,3.31669,-0.022834,0.270997,0.987613
490,1855,3.31655,-0.0236292,0.271445,0.987032
493,1852,3.31612,-0.0236622,0.271883,0.986736
496,1849,3.31648,-0.0235951,0.271437,0.987004
499,1846,3.31795,-0.0208305,0.270355,0.986052
502,1843,3.31738,-0.0206874,0.270351,0.986097
505,1840,3.31775,-0.0206419,0.269907,0.986377
508,1837,3.31752,-0.0215077,0.270348,0.98575
511,1834,3.318,-0.0213849,0.269655,0.986061
514,1831,3.31752,-0.0213429,0.27035,0.985819
517,1828,3.31808,-0.0221815,0.270349,0.985469
520,1825,3.31749,-0.0221832,0.270349,0.985471
523,1822,3.3166,-0.022307,0.270791,0.985135
526,1819,3.31676,-0.0221845,0.270345,0.985455
529,1816,3.31652,-0.0229644,0.270786,0.984846
532,1813,3.31669,-0.022831,0.270342,0.985174
535,1810,3.31657,-0.022929,0.271065,0.984848
538,1807,3.31632,-0.0238122,0.271227,0.984202
541,1804,3.31651,-0.023662,0.270787,0.984554
544,1801,3.31799,-0.0208553,0.269998,0.983659
547,1798,3.31735,-0.0208635,0.269725,0.983681
550,1795,3.31728,-0.0208795,0.26972,0.983657
553,1792,3.31691,-0.0213776,0.270161,0.983171
556,1789,3.31749,-0.0215402,0.269714,0.983371
559,1786,3.31718,-0.0216282,0.270156,0.983048
562,1783,3.31703,-0.0224722,0.270601,0.982419
565,1780,3.31708,-0.0222873,0.270155,0.982774
568,1777,3.31679,-0.02241,0.27016,0.982746
571,1774,3.31564,-0.0231203,0.270612,0.982189
574,1771,3.31563,-0.0231824,0.270618,0.982179
577,1768,3.31582,-0.0231373,0.270614,0.982199
580,1765,3.31589,-0.0238128,0.270612,0.981909
583,1762,3.31612,-0.0238091,0.270601,0.982114
586,1759,3.31565,-0.0239037,0.271046,0.981546
589,1756,3.31769,-0.021053,0.269522,0.981162
592,1753,3.31714,-0.021007,0.269519,0.980927
595,1750,3.31674,-0.0210323,0.269621,0.980903
598,1747,3.31602,-0.0217681,0.269969,0.980339
601,1744,3.31634,-0.021911,0.269982,0.980334
604,1741,3.3165,-0.0225026,0.269986,0.980101
607,1738,3.31646,-0.0224465,0.269985,0.980131
610,1735,3.31644,-0.0225236,0.269974,0.980054
613,1732,3.31643,-0.0224395,0.269968,0.980062
616,1729,3.3158,-0.0232597,0.270414,0.979454
619,1726,3.3158,-0.0231871,0.269968,0.979754
622,1723,3.3152,-0.0233396,0.270414,0.979409
625,1720,3.31474,-0.0241843,0.270871,0.978815
628,1717,3.3144,-0.0241494,0.270887,0.978883
631,1714,3.31655,-0.0211444,0.26936,0.97831
634,1711,3.31651,-0.0211298,0.269365,0.978341
637,1708,3.31642,-0.021123,0.26964,0.978328
640,1705,3.31631,-0.0219012,0.269809,0.977722
643,1702,3.316,-0.0219297,0.26981,0.977707
646,1699,3.31567,-0.0218789,0.269808,0.977732
649,1696,3.31503,-0.0228171,0.27026,0.977073
652,1693,3.31432,-0.022748,0.27026,0.977098
655,1690,3.31425,-0.0228577,0.270266,0.977061
658,1687,3.31373,-0.0236228,0.27072,0.976462
661,1684,3.31433,-0.023454,0.270271,0.976845
664,1681,3.31453,-0.0241552,0.270425,0.976571
667,1678,3.31415,-0.0243353,0.270829,0.976223
670,1675,3.3139,-0.0242786,0.270728,0.976249
673,1672,3.31502,-0.0214469,0.269748,0.975308
676,1669,3.31443,-0.0213902,0.269643,0.975319
679,1666,3.31463,-0.0212915,0.26919,0.975645
682,1663,3.31499,-0.0221199,0.269408,0.975037
685,1660,3.31481,-0.0220975,0.270215,0.97503
688,1657,3.31482,-0.0221225,0.269642,0.975024
691,1654,3.31439,-0.0229298,0.270095,0.974418
694,1651,3.31446,-0.0229356,0.270376,0.974412
697,1648,3.31481,-0.0228552,0.269639,0.974718
700,1645,3.31523,-0.023341,0.269997,0.974528
703,1642,3.31476,-0.0236555,0.270091,0.974103
706,1639,3.31471,-0.0236466,0.270089,0.974107
709,1636,3.31446,-0.0243286,0.270088,0.973821
712,1633,3.31417,-0.0243026,0.270085,0.973832
715,1630,3.31606,-0.0206634,0.268548,0.973497
718,1627,3.31535,-0.0214627,0.269003,0.972898
721,1624,3.31528,-0.0215239,0.269576,0.972864
724,1621,3.31533,-0.0215009,0.269,0.972869
727,1618,3.31526,-0.0222019,0.268999,0.972577
730,1615,3.31497,-0.0221845,0.268997,0.972585
733,1612,3.31527,-0.022962,0.268995,0.972269
736,1609,3.31536,-0.0229801,0.268995,0.972254
739,1606,3.31501,-0.0230458,0.269447,0.971944
742,1603,3.31511,-0.0237435,0.269451,0.971665
745,1600,3.3147,-0.0237473,0.269451,0.971672
748,1597,3.31378,-0.0245498,0.269914,0.971089
751,1594,3.31341,-0.0245898,0.269908,0.971053
754,1591,3.31321,-0.0245675,0.269912,0.971074
757,1588,3.31521,-0.0216242,0.268822,0.970152
760,1585,3.31469,-0.0216708,0.268818,0.970118
763,1582,3.31502,-0.0214706,0.268361,0.970484
766,1579,3.31452,-0.0224488,0.268823,0.969829
769,1576,3.31448,-0.0223791,0.26881,0.969845
772,1573,3.3147,-0.0230899,0.268823,0.969581
775,1570,3.31483,-0.0231122,0.268826,0.969583
778,1567,3.31444,-0.0232235,0.26986,0.969258
781,1564,3.31417,-0.023834,0.269285,0.969009
784,1561,3.3141,-0.0238813,0.269286,0.968994
787,1558,3.3135,-0.0247177,0.269744,0.968374
790,1555,3.31358,-0.0246221,0.269283,0.968685
793,1552,3.31542,-0.021734,0.268192,0.967754
796,1549,3.31507,-0.0217164,0.268192,0.967743
799,1546,3.31458,-0.0215728,0.268176,0.967758
802,1543,3.3144,-0.0217303,0.268604,0.967683
805,1540,3.31388,-0.0225606,0.268634,0.967074
808,1537,3.31435,-0.0224155,0.268453,0.96741
811,1534,3.31409,-0.023366,0.268645,0.966787
814,1531,3.31384,-0.0233049,0.268647,0.966821
817,1528,3.31445,-0.023247,0.268186,0.96713
820,1525,3.31372,-0.0240258,0.268641,0.966526
823,1522,3.31384,-0.0239016,0.268637,0.966552
826,1519,3.31383,-0.0239948,0.268915,0.966506
829,1516,3.31353,-0.0248487,0.269092,0.965869
832,1513,3.3155,-0.0211986,0.26755,0.965542
835,1510,3.31528,-0.0218361,0.267546,0.965284
838,1507,3.31502,-0.0218063,0.267551,0.965307
841,1504,3.3143,-0.022598,0.268015,0.964729
844,1501,3.31413,-0.0226463,0.268013,0.964702
847,1498,3.31359,-0.0235171,0.268474,0.963821
850,1495,3.31328,-0.0234846,0.268472,0.964073
853,1492,3.31287,-0.0235052,0.26847,0.964298
856,1489,3.31296,-0.024195,0.268469,0.963769
859,1486,3.31273,-0.0241945,0.268463,0.963754
862,1483,3.31307,-0.0242415,0.26846,0.963732
865,1480,3.31284,-0.0249463,0.268464,0.963457
868,1477,3.3127,-0.0249412,0.268457,0.963455
871,1474,3.31499,-0.0219074,0.266904,0.962847
874,1471,3.31508,-0.0219213,0.266906,0.962845
877,1468,3.31506,-0.0219602,0.266897,0.962799
880,1465,3.31476,-0.0227017,0.267355,0.962202
883,1462,3.31452,-0.0226911,0.267631,0.962199
886,1459,3.31455,-0.0234962,0.267352,0.961872
889,1456,3.31407,-0.0234966,0.267356,0.961893
892,1453,3.31354,-0.0242874,0.267826,0.961328
895,1450,3.31364,-0.0244057,0.268263,0.961312
898,1447,3.31275,-0.025169,0.268299,0.96072
901,1444,3.31241,-0.0252342,0.26829,0.960661
904,1441,3.3119,-0.0250951,0.268284,0.960953
907,1438,3.31373,-0.0222358,0.267185,0.959716
910,1435,3.31409,-0.0221071,0.266717,0.960038
913,1432,3.31416,-0.0221681,0.266714,0.960009
916,1429,3.31348,-0.0229698,0.267179,0.959414
919,1426,3.31389,-0.0228488,0.266718,0.959754
922,1423,3.31316,-0.0236798,0.267188,0.95916
925,1420,3.31322,-0.0237078,0.267195,0.959179
928,1417,3.31327,-0.0244,0.267186,0.959129
931,1414,3.31322,-0.0244387,0.267192,0.959131
934,1411,3.31277,-0.0253162,0.267657,0.958255
937,1408,3.31224,-0.0252271,0.267652,0.958276
940,1405,3.31464,-0.0214325,0.266083,0.957929
943,1402,3.31422,-0.0223235,0.266547,0.957288
946,1399,3.31437,-0.0222946,0.266547,0.9573
949,1396,3.31399,-0.0230904,0.266556,0.957
952,1393,3.31348,-0.0238865,0.267026,0.956419
955,1390,3.31299,-0.0238488,0.267022,0.956427
958,1387,3.31341,-0.0246324,0.267025,0.956132
961,1384,3.31294,-0.0246737,0.267026,0.956116
964,1381,3.31254,-0.0246356,0.267024,0.956122
967,1378,3.31182,-0.0254826,0.267487,0.955736
970,1375,3.31148,-0.0254518,0.267486,0.955492
973,1372,3.31395,-0.0223508,0.265914,0.954877
976,1369,3.31321,-0.0224731,0.266383,0.954544
979,1366,3.3133,-0.0222539,0.265907,0.954893
982,1363,3.31273,-0.0232476,0.266382,0.954231
985,1360,3.31243,-0.0232649,0.266812,0.954228
988,1357,3.31184,-0.024091,0.266851,0.953626
991,1354,3.31259,-0.0239783,0.266386,0.953956
994,1351,3.31196,-0.0248303,0.266853,0.953347
997,1348,3.3123,-0.0247189,0.266377,0.953653
1000,1345,3.31202,-0.0247194,0.266374,0.953641
1003,1342,3.31178,-0.0255726,0.266845,0.953038
1006,1339,3.31206,-0.0254874,0.26637,0.953331
1009,1336,3.31393,-0.0223969,0.265254,0.952391
1012,1333,3.31365,-0.0226012,0.265847,0.952351
1015,1330,3.31334,-0.0233902,0.265735,0.951757
1018,1327,3.31327,-0.0233449,0.265732,0.951767
1021,1324,3.31285,-0.0242392,0.266213,0.951158
1024,1321,3.31266,-0.024207,0.266207,0.95115
1027,1318,3.31284,-0.0239905,0.265729,0.951498
1030,1315,3.31227,-0.0248909,0.266202,0.950873
1033,1312,3.31201,-0.0249314,0.266628,0.950845
1036,1309,3.31198,-0.0257097,0.266199,0.950545
1039,1306,3.31384,-0.0217858,0.264616,0.950229
1042,1303,3.31324,-0.0226258,0.265529,0.949655
1045,1300,3.31261,-0.0236006,0.265585,0.949027
1048,1297,3.31293,-0.0234184,0.265204,0.949371
1051,1294,3.31234,-0.0235464,0.265573,0.949004
1054,1291,3.31187,-0.0242829,0.265573,0.948722
1057,1288,3.31157,-0.024274,0.265573,0.948719
1060,1285,3.31103,-0.0251245,0.266041,0.948083
1063,1282,3.31143,-0.0250163,0.265563,0.948401
1066,1279,3.3109,-0.0259145,0.266036,0.947768
1069,1276,3.31067,-0.0259034,0.265621,0.947764
1072,1273,3.31281,-0.0220684,0.264449,0.947417
1075,1270,3.31244,-0.0229313,0.264934,0.94682
1078,1267,3.3127,-0.0236477,0.264936,0.946562
1081,1264,3.31227,-0.023609,0.264937,0.946574
1084,1261,3.31196,-0.023673,0.26493,0.946541
1087,1258,3.31187,-0.0244165,0.264928,0.946236
1090,1255,3.31199,-0.0251143,0.265506,0.945963
1093,1252,3.31173,-0.0251012,0.264921,0.94595
1096,1249,3.31173,-0.0251517,0.264918,0.94593
1099,1246,3.31096,-0.0260788,0.265395,0.945278
1102,1243,3.31099,-0.0260686,0.265392,0.94527
1105,1240,3.31285,-0.0230331,0.26428,0.944312
1108,1237,3.31271,-0.0229534,0.264275,0.944577
1111,1234,3.31264,-0.0236803,0.264278,0.944062
1114,1231,3.31178,-0.0238863,0.264765,0.943718
1117,1228,3.31175,-0.0245769,0.264763,0.943455
1120,1225,3.3118,-0.0254192,0.264767,0.941619
1123,1222,3.31156,-0.025379,0.264765,0.943157
1126,1219,3.31064,-0.0262695,0.265245,0.942526
1129,1216,3.31043,-0.0262617,0.265244,0.942531
1132,1213,3.31291,-0.0231459,0.263649,0.941892
1135,1210,3.31269,-0.0230891,0.263651,0.941919
1138,1207,3.31194,-0.0239969,0.26456,0.94129
1141,1204,3.31151,-0.0239995,0.264135,0.941306
1144,1201,3.31083,-0.0247929,0.264889,0.940695
1147,1198,3.31065,-0.0248475,0.264611,0.940666
1150,1195,3.3107,-0.0255938,0.264607,0.940365
1153,1192,3.31006,-0.0256133,0.264603,0.940342
1156,1189,3.30942,-0.0264663,0.265084,0.939722
1159,1186,3.30975,-0.0263125,0.264599,0.940061
1162,1183,3.3119,-0.0233331,0.263472,0.939071
1165,1180,3.31128,-0.0232944,0.26349,0.939116
1168,1177,3.31078,-0.024167,0.263973,0.938502
1171,1174,3.31051,-0.0242449,0.263979,0.938488
1174,1171,3.31077,-0.024925,0.263973,0.938214
1177,1168,3.31044,-0.0248565,0.263968,0.938221
1180,1165,3.31039,-0.0257091,0.263962,0.937885
1183,1162,3.30997,-0.0256886,0.263956,0.937863
1186,1159,3.30956,-0.0266206,0.264439,0.937226
1189,1156,3.30989,-0.0264606,0.264539,0.93757
1192,1153,3.31169,-0.0234237,0.262824,0.936565
1195,1150,3.31139,-0.0234019,0.262824,0.936572
1198,1147,3.31145,-0.0242059,0.262828,0.936276
1201,1144,3.31155,-0.0242141,0.262831,0.936286
1204,1141,3.31121,-0.0250126,0.262828,0.935974
1207,1138,3.31084,-0.0248556,0.262823,0.936026
1210,1135,3.31063,-0.0258686,0.263303,0.935343
1213,1132,3.31046,-0.025887,0.263301,0.93533
1216,1129,3.31049,-0.0265903,0.263299,0.935052
1219,1126,3.30996,-0.0265846,0.263299,0.935045
1222,1123,3.31187,-0.0234686,0.262169,0.934301
1225,1120,3.31193,-0.0235612,0.262167,0.934025
1228,1117,3.31116,-0.024406,0.262658,0.933438
1231,1114,3.31108,-0.0251735,0.262663,0.933162
1234,1111,3.31073,-0.0251325,0.262668,0.933198
1237,1108,3.31028,-0.0260467,0.263151,0.932548
1240,1105,3.30967,-0.0269722,0.263634,0.931892
1243,1102,3.30977,-0.0268647,0.263145,0.932221
1246,1099,3.31153,-0.023706,0.262285,0.931244
1249,1096,3.31115,-0.0236596,0.262008,0.931257
1252,1093,3.3115,-0.0245042,0.262009,0.930936
1255,1090,3.3108,-0.0245131,0.262005,0.930927
1258,1087,3.31013,-0.0254175,0.262497,0.930306
1261,1084,3.31,-0.0254243,0.262501,0.930319
1264,1081,3.31004,-0.0262314,0.262503,0.930021
1267,1078,3.30967,-0.0262182,0.262501,0.930027
1270,1075,3.30881,-0.0270914,0.262993,0.92941
1273,1072,3.31122,-0.0237594,0.261365,0.928773
1276,1069,3.31112,-0.0238083,0.261365,0.928755
1279,1066,3.31026,-0.0246427,0.261854,0.928148
1282,1063,3.30972,-0.0246862,0.261852,0.928127
1285,1060,3.30977,-0.0254841,0.261849,0.927817
1288,1057,3.30959,-0.0254994,0.26185,0.927813
1291,1054,3.30873,-0.0263595,0.26234,0.927195
1294,1051,3.30788,-0.0273459,0.262839,0.926548
1297,1048,3.30763,-0.027323,0.26293,0.926553
1300,1045,3.31007,-0.0240596,0.261211,0.925906
1303,1042,3.30965,-0.0239855,0.261795,0.925928
1306,1039,3.30955,-0.0247891,0.261205,0.925623
1309,1036,3.30943,-0.0247424,0.261205,0.925646
1312,1033,3.30892,-0.025753,0.261702,0.924978
1315,1030,3.30841,-0.0257484,0.2617,0.924985
1318,1027,3.30766,-0.0266496,0.262628,0.924363
1321,1024,3.30772,-0.0274077,0.262193,0.924063
1324,1021,3.30765,-0.0274735,0.262203,0.924072
1327,1018,3.30988,-0.0241695,0.260567,0.923419
1330,1015,3.30949,-0.0241227,0.260565,0.923436
1333,1012,3.30899,-0.0250543,0.261061,0.922798
1336,1009,3.30899,-0.0258627,0.261061,0.922499
1339,1006,3.30855,-0.0258719,0.26106,0.922494
1342,1003,3.30796,-0.0267981,0.261556,0.921858
1345,1000,3.30832,-0.0266416,0.261056,0.922211
1348,997,3.30779,-0.0276434,0.261553,0.921541
1351,994,3.30946,-0.0245406,0.26041,0.920751
1354,991,3.30906,-0.0244172,0.260411,0.920562
1357,988,3.30911,-0.0251899,0.26041,0.920283
1360,985,3.30858,-0.0261937,0.260913,0.919629
1363,982,3.30882,-0.026026,0.260415,0.919993
1366,979,3.30781,-0.026936,0.260914,0.919357
1369,976,3.30797,-0.0269762,0.260911,0.919348
1372,973,3.30773,-0.0276927,0.260909,0.919075
1375,970,3.30946,-0.0245228,0.259763,0.91806
1378,967,3.309255,-0.0245188,0.259762,0.918066
1381,964,3.30933,-0.0253352,0.259761,0.91776
1384,961,3.3091,-0.0253077,0.259759,0.917769
1387,958,3.30818,-0.0262375,0.26053,0.917134
1390,955,3.3082,-0.0270617,0.260259,0.916826
1393,952,3.30815,-0.0270821,0.260352,0.916828
1396,949,3.30715,-0.0280036,0.260763,0.916195
1399,946,3.30953,-0.0237938,0.25911,0.915855
1402,943,3.30946,-0.0246261,0.259112,0.915544
1405,940,3.30893,-0.0255417,0.259609,0.914898
1408,937,3.3084,-0.025594,0.259699,0.91488
1411,934,3.30817,-0.0262769,0.259606,0.91462
1414,931,3.30796,-0.0273722,0.260111,0.913922
1417,928,3.30754,-0.0273065,0.260108,0.913947
1420,925,3.30716,-0.0280728,0.260108,0.913663
1423,922,3.30927,-0.0247622,0.258955,0.912677
1426,919,3.30896,-0.0247891,0.258948,0.912645
1429,916,3.30895,-0.025711,0.258951,0.912323
1432,913,3.30845,-0.0256341,0.258949,0.912345
1435,910,3.30788,-0.0265906,0.259454,0.911707
1438,907,3.30782,-0.0274059,0.25988,0.911395
1441,904,3.30721,-0.0274144,0.259447,0.91138
1444,901,3.30657,-0.0284103,0.259954,0.910714
1447,898,3.30915,-0.0249292,0.258285,0.910067
1450,895,3.3087,-0.0249236,0.258284,0.910074
1453,892,3.30792,-0.0259408,0.258793,0.909407
1456,889,3.30786,-0.0267852,0.258798,0.909119
1459,886,3.30736,-0.0277447,0.259311,0.908497
1462,883,3.30672,-0.0277353,0.259309,0.908496
1465,880,3.30633,-0.0285257,0.259308,0.90821
1468,877,3.30849,-0.0251624,0.258148,0.907223
1471,874,3.30852,-0.0250077,0.257628,0.907545
1474,871,3.30775,-0.0260553,0.258136,0.906854
1477,868,3.30771,-0.0260984,0.258133,0.906843
1480,865,3.30735,-0.0268273,0.258126,0.906556
1483,862,3.30652,-0.0278327,0.258633,0.905886
1486,859,3.30593,-0.0277748,0.258629,0.905885
1489,856,3.30605,-0.0286553,0.258631,0.905337
1492,853,3.30775,-0.0253224,0.257469,0.904577
1495,850,3.30737,-0.0252639,0.257471,0.904607
1498,847,3.30677,-0.0262934,0.257986,0.90394
1501,844,3.30653,-0.0271115,0.258071,0.903638
1504,841,3.30611,-0.0273243,0.257982,0.903561
1507,838,3.30593,-0.027882,0.257977,0.903347
1510,835,3.30536,-0.0289328,0.258486,0.902652
1513,832,3.30484,-0.0289533,0.258482,0.902631
1516,829,3.30727,-0.0253489,0.256793,0.901987
1519,826,3.30684,-0.0262646,0.257312,0.901371
1522,823,3.30702,-0.0262726,0.256791,0.901665
1525,820,3.30612,-0.0272355,0.257308,0.901027
1528,817,3.30579,-0.0282953,0.257834,0.900372
1531,814,3.30538,-0.0291807,0.257836,0.900076
1534,811,3.30765,-0.0247374,0.256148,0.89974
1537,808,3.30745,-0.0255799,0.256147,0.899446
1540,805,3.30682,-0.0265729,0.256662,0.89878
1543,802,3.30706,-0.0264517,0.256141,0.899125
1546,799,3.30614,-0.0273585,0.256651,0.898475
1549,796,3.30643,-0.0282856,0.256654,0.898393
1552,793,3.30538,-0.0292912,0.257167,0.897488
1555,790,3.3077,-0.024838,0.255477,0.897146
1558,787,3.30716,-0.0258547,0.256,0.896498
1561,784,3.30688,-0.0266562,0.256001,0.894736
1564,781,3.30615,-0.0276695,0.256522,0.895562
1567,778,3.30552,-0.0288443,0.257057,0.894881
1570,775,3.30572,-0.0285328,0.256525,0.895268
1573,772,3.30479,-0.0294856,0.257045,0.894623
1576,769,3.30748,-0.0259937,0.255342,0.893923
1579,766,3.30715,-0.0260117,0.25534,0.893922
1582,763,3.30602,-0.0269457,0.255862,0.893288
1585,760,3.30591,-0.0278357,0.255861,0.892976
1588,757,3.30496,-0.0288477,0.256808,0.892304
1591,754,3.3044,-0.0288203,0.256382,0.89232
1594,751,3.3035,-0.0298586,0.256913,0.891653
1597,748,3.30603,-0.0261928,0.255209,0.891023
1600,745,3.30512,-0.0272796,0.255737,0.890343
1603,742,3.30471,-0.0272701,0.255741,0.890367
1606,739,3.30471,-0.0280203,0.255821,0.88992
1609,736,3.3038,-0.0291138,0.256262,0.889402
1612,733,3.30413,-0.0289554,0.255733,0.889761
1615,730,3.30635,-0.0255114,0.254544,0.888717
1618,727,3.30567,-0.0263389,0.254545,0.888428
1621,724,3.30515,-0.0274212,0.255336,0.887744
1624,721,3.30498,-0.0274501,0.25507,0.88773
1627,718,3.30466,-0.0282326,0.255068,0.88746
1630,715,3.30441,-0.0291264,0.255073,0.887166
1633,712,3.30368,-0.0301314,0.255604,0.886517
1636,709,3.30542,-0.0267289,0.254423,0.885482
1639,706,3.3055,-0.0275043,0.254417,0.885191
1642,703,3.30547,-0.0275489,0.254495,0.885166
1645,700,3.30435,-0.0285621,0.254944,0.884506
1648,697,3.3042,-0.0293987,0.254944,0.884222
1651,694,3.30387,-0.030334,0.254941,0.882492
1654,691,3.30541,-0.0267398,0.253746,0.882876
1657,688,3.3052,-0.0267394,0.253743,0.88287
1660,685,3.30408,-0.0277851,0.254276,0.882184
1663,682,3.30365,-0.0286983,0.254359,0.881878
1666,679,3.30274,-0.0297052,0.254816,0.881233
1669,676,3.30247,-0.0306619,0.254822,0.880929
1672,673,3.30408,-0.0270672,0.253637,0.879953
1675,670,3.30487,-0.0269112,0.253079,0.880252
1678,667,3.30381,-0.0280172,0.253603,0.87928
1681,664,3.30358,-0.0289391,0.253598,0.879189
1684,661,3.30297,-0.0298962,0.254136,0.878552
1687,658,3.30245,-0.030844,0.254137,0.878236
1690,655,3.30507,-0.0261584,0.25239,0.877868
1693,652,3.30502,-0.0270402,0.252388,0.87756
1696,649,3.30407,-0.0281301,0.253345,0.876868
1699,646,3.30384,-0.0289853,0.252924,0.876584
1702,643,3.30308,-0.030057,0.253471,0.876153
1705,640,3.30209,-0.0311039,0.254011,0.875239
1708,637,3.30477,-0.027348,0.252266,0.874576
1711,634,3.30397,-0.0283347,0.252806,0.873929
1714,631,3.30334,-0.0283098,0.252874,0.873906
1717,628,3.30336,-0.0293561,0.252802,0.873565
1720,625,3.30258,-0.030177,0.252794,0.873275
1723,622,3.30175,-0.0312159,0.253336,0.872604
1726,619,3.30437,-0.027495,0.251579,0.871892
1729,616,3.30328,-0.0285105,0.252123,0.871231
1732,613,3.30295,-0.0284947,0.252117,0.871228
1735,610,3.30252,-0.029468,0.252119,0.870907
1738,607,3.30133,-0.0305113,0.252666,0.870233
1741,604,3.30124,-0.0313774,0.252673,0.870194
1744,601,3.30301,-0.0278329,0.251464,0.86889
1747,598,3.30192,-0.0288524,0.252015,0.868243
1750,595,3.30199,-0.0297467,0.252015,0.86795
1753,592,3.30078,-0.0308225,0.252563,0.867256
1756,589,3.30048,-0.0308776,0.252556,0.867213
1759,586,3.30293,-0.0270337,0.250786,0.866527
1762,583,3.30184,-0.0280004,0.251334,0.865874
1765,580,3.30173,-0.0290027,0.251335,0.865548
1768,577,3.30067,-0.0300573,0.25189,0.865108
1771,574,3.30038,-0.0310446,0.251888,0.864553
1774,571,3.29963,-0.0318791,0.251887,0.864283
1777,568,3.30081,-0.0281471,0.250662,0.863215
1780,565,3.30025,-0.0293643,0.251217,0.862488
1783,562,3.30058,-0.0292264,0.250661,0.862856
1786,559,3.29996,-0.0302767,0.251214,0.862179
1789,556,3.29969,-0.0312311,0.251215,0.861867
1792,553,3.30156,-0.0274336,0.249983,0.860805
1795,550,3.30158,-0.0283428,0.249979,0.860503
1798,547,3.30049,-0.0295116,0.250533,0.859789
1801,544,3.3004,-0.0304477,0.250533,0.859487
1804,541,3.29909,-0.0314933,0.251346,0.858805
1807,538,3.30174,-0.027585,0.249295,0.858108
1810,535,3.30084,-0.0286755,0.249855,0.857413
1813,532,3.3002,-0.0296214,0.249809,0.857096
1816,529,3.29998,-0.0306013,0.249846,0.856772
1819,526,3.2988,-0.0316461,0.250406,0.856094
1822,523,3.30156,-0.0277591,0.248607,0.855377
1825,520,3.30049,-0.0288353,0.249242,0.8547
1828,517,3.30014,-0.0298244,0.24917,0.854227
1831,514,3.29947,-0.0318272,0.249734,0.85341
1834,511,3.29816,-0.0330811,0.250304,0.85268
1837,508,3.30124,-0.0290431,0.248494,0.852001
1840,505,3.30067,-0.0300497,0.248495,0.851679
1843,502,3.29976,-0.0311149,0.249063,0.851006
1846,499,3.29929,-0.0320508,0.249061,0.850706
1849,496,3.29819,-0.0332009,0.249631,0.850003
1852,493,3.30098,-0.0292165,0.247811,0.849274
1855,490,3.2998,-0.0303126,0.248382,0.848601
1858,487,3.29976,-0.0313179,0.248383,0.848301
1861,484,3.29841,-0.0324032,0.248954,0.847611
1864,481,3.30114,-0.0284413,0.24713,0.846883
1867,478,3.29972,-0.0295582,0.247336,0.846184
1870,475,3.29941,-0.0304801,0.247699,0.845897
1873,472,3.29871,-0.0315059,0.247696,0.845559
1876,469,3.29763,-0.0335404,0.248689,0.844562
1879,466,3.2995,-0.0297235,0.247012,0.843426
1882,463,3.29827,-0.0308178,0.247588,0.84274
1885,460,3.29811,-0.0318477,0.247587,0.842419
1888,457,3.29676,-0.0330254,0.248416,0.841696
1891,454,3.29649,-0.0337952,0.248164,0.841462
1894,451,3.2984,-0.0300694,0.246902,0.840285
1897,448,3.29841,-0.0311068,0.2469,0.839969
1900,445,3.29717,-0.0332532,0.247482,0.838948
1903,442,3.29738,-0.0315321,0.246898,0.838709
1906,439,3.29866,-0.0379937,0.2457,0.837598
1909,436,3.29871,-0.0362862,0.24505,0.837351
1912,433,3.29689,-0.0401436,0.24621,0.836593
1915,430,3.29659,-0.0411675,0.24621,0.836286
1918,427,3.29791,-0.0372112,0.244937,0.836564
1921,424,3.29706,-0.0393812,0.245522,0.834141
1924,421,3.29658,-0.0403364,0.245519,0.834058
1927,418,3.29601,-0.0361263,0.244933,0.833234
1930,415,3.29539,-0.0370962,0.244932,0.83294
1933,412,3.29745,-0.0330631,0.243652,0.831649
1936,409,3.29814,-0.0297846,0.24291,0.831305
1939,406,3.29682,-0.0309739,0.243072,0.830586
1942,403,3.2961,-0.0424395,0.243064,0.830281
1945,400,3.2997,-0.030227,0.239476,0.829669
1948,397,3.29863,-0.0315569,0.239697,0.82893
1951,394,3.29718,-0.0335836,0.24062,0.827968
1954,391,3.29714,-0.0318954,0.240048,0.827724
1957,388,3.29916,-0.0304103,0.23876,0.826951
1960,385,3.29808,-0.031634,0.239331,0.826223
1963,382,3.2967,-0.0337544,0.240145,0.825214
1966,379,3.29631,-0.0426173,0.239325,0.824973
1969,376,3.29836,-0.0358205,0.237458,0.82391
1972,373,3.29839,-0.0341819,0.236885,0.823626
1975,370,3.29795,-0.0351369,0.236869,0.823294
1978,367,3.29722,-0.0346942,0.236877,0.822329
1981,364,3.29968,-0.0278537,0.235016,0.821295
1984,361,3.29881,-0.0395268,0.235016,0.820982
1987,358,3.2981,-0.0389773,0.235019,0.820025
1990,355,3.29616,-0.0429492,0.236157,0.819298
1993,352,3.29951,-0.0359611,0.233721,0.818641
1996,349,3.29837,-0.0397872,0.234284,0.818266
1999,346,3.29767,-0.039063,0.234278,0.817331
2002,343,3.29573,-0.0432358,0.235412,0.816502
2005,340,3.29833,-0.0336512,0.232964,0.815467
2008,337,3.29768,-0.034681,0.232958,0.815157
2011,334,3.29686,-0.0331036,0.233016,0.814493
2014,331,3.29651,-0.0351159,0.232955,0.813899
2017,328,3.29908,-0.0283648,0.231078,0.812805
2020,325,3.29753,-0.041332,0.231647,0.811815
2023,322,3.29745,-0.0395093,0.23108,0.811581
2026,319,3.29972,-0.0327965,0.229203,0.81046
2029,316,3.29839,-0.0349227,0.229762,0.809477
2032,313,3.29795,-0.0360601,0.229761,0.809146
2035,310,3.29668,-0.039852,0.230727,0.808817
2038,307,3.29886,-0.0357118,0.229002,0.807686
2041,304,3.29733,-0.0369977,0.229565,0.806945
2044,301,3.29772,-0.0334156,0.228431,0.806455
2047,298,3.29617,-0.0346404,0.228991,0.805736
2050,295,3.29927,-0.027492,0.226541,0.805079
2053,292,3.29813,-0.0297915,0.227098,0.804047
2056,289,3.2978,-0.0389485,0.226539,0.803808
2059,286,3.29645,-0.0411454,0.227098,0.802821
2062,283,3.29896,-0.0342962,0.225209,0.801717
2065,280,3.29869,-0.0324768,0.224873,0.801496
2068,277,3.29703,-0.0376252,0.225769,0.800427
2071,274,3.29539,-0.0388387,0.226332,0.79973
2074,271,3.29828,-0.034464,0.224428,0.799005
2077,268,3.297083,-0.0328853,0.224426,0.798329
2080,265,3.29594,-0.0351567,0.225207,0.797319
2083,262,3.29862,-0.0389376,0.222518,0.796669
2086,259,3.29859,-0.0372795,0.221958,0.796358
2089,256,3.29751,-0.0394573,0.222509,0.795594
2092,253,3.297,-0.0350748,0.221945,0.794712
2095,250,3.29982,-0.0288708,0.219493,0.793748
2098,247,3.2983,-0.0329914,0.220592,0.792974
2101,244,3.29748,-0.0339609,0.22059,0.792708
2104,241,3.29604,-0.036351,0.221151,0.791679
2107,238,3.2979,-0.0320837,0.220181,0.790563
2110,235,3.29771,-0.0303401,0.219241,0.790302
2113,232,3.29591,-0.0437261,0.219795,0.789325
2116,229,3.29825,-0.039674,0.218433,0.788153
2119,226,3.29783,-0.0362821,0.217876,0.787212
2122,223,3.29743,-0.0372358,0.218253,0.78694
2125,220,3.29672,-0.0338597,0.21732,0.785996
2128,217,3.29885,-0.0322617,0.21616,0.78524
2131,214,3.29741,-0.033539,0.216499,0.784517
2134,211,3.29612,-0.0358429,0.217051,0.783502
2137,208,3.29518,-0.0369092,0.217048,0.783203
2140,205,3.29749,-0.0410586,0.21512,0.782107
2143,202,3.29621,-0.0434701,0.21567,0.781305
2146,199,3.29628,-0.0415521,0.215116,0.780863
2149,196,3.2985,-0.0354051,0.213184,0.779459
2152,193,3.29876,-0.0307325,0.212092,0.77924
2155,190,3.29795,-0.0318086,0.212087,0.778939
2158,187,3.29649,-0.0341819,0.21263,0.777923
2161,184,3.29797,-0.0326825,0.211789,0.776748
2164,181,3.29765,-0.0307783,0.211236,0.776508
2167,178,3.29606,-0.0445911,0.21178,0.775495
2170,175,3.29892,-0.0400538,0.209842,0.774786
2173,172,3.29876,-0.0365669,0.209298,0.77385
2176,169,3.2976,-0.0350387,0.209296,0.773142
2179,166,3.29631,-0.0374041,0.209835,0.772133
2182,163,3.2986,-0.032873,0.207897,0.771411
2185,160,3.29701,-0.0370673,0.208978,0.770653
2188,157,3.29622,-0.0337008,0.208668,0.769686
2191,154,3.29861,-0.040436,0.206485,0.769033
2194,151,3.29759,-0.0429398,0.207026,0.768004
2197,148,3.29742,-0.0410026,0.206483,0.767766
2200,145,3.29647,-0.0404216,0.206484,0.766809
2203,142,3.29911,-0.0359866,0.204534,0.766048
2206,139,3.29738,-0.0413464,0.205613,0.765009
2209,136,3.29558,-0.0427063,0.206151,0.764274
2212,133,3.29823,-0.0322384,0.203647,0.763212
2215,130,3.29824,-0.0314643,0.203108,0.762678
2218,127,3.29683,-0.0455612,0.203642,0.761669
2221,124,3.3,-0.0379171,0.201153,0.761001
2224,121,3.29851,-0.0404466,0.201681,0.759963
2227,118,3.29651,-0.0446149,0.202752,0.759253
2230,115,3.29482,-0.0472334,0.203289,0.758194
2233,112,3.29833,-0.0363786,0.200247,0.757599
2236,109,3.29746,-0.0359533,0.200249,0.756602
2239,106,3.29736,-0.0341007,0.199715,0.756345
2242,103,3.29915,-0.0424304,0.198279,0.754741
2245,100,3.29811,-0.0331712,0.198805,0.753898
2248,97,3.29728,-0.0343714,0.198806,0.753596
2251,94,3.29895,-0.0298624,0.197361,0.752439
2254,91,3.29777,-0.0411259,0.197937,0.751486
2257,88,3.29774,-0.0391763,0.196824,0.751235
2260,85,3.30022,-0.0326751,0.194847,0.749851
2263,82,3.29922,-0.0322582,0.194842,0.748839
2266,79,3.29745,-0.0394472,0.195894,0.748478
2269,76,3.29618,-0.0376172,0.195891,0.747827
2272,73,3.29826,-0.0431859,0.193903,0.746402
2275,70,3.29801,-0.0444611,0.193901,0.746089
2278,67,3.29745,-0.0406645,0.193372,0.745182
2281,64,3.30001,-0.0370344,0.191382,0.744166
2284,61,3.29854,-0.0384878,0.191902,0.74343
2287,58,3.29678,-0.0408914,0.192423,0.74244
2290,55,3.30035,-0.0301256,0.189396,0.74177
2293,52,3.29951,-0.0326361,0.189911,0.740773
2296,49,3.29776,-0.0439897,0.189909,0.739826
2299,46,3.29976,-0.040718,0.188429,0.738353
2302,43,3.29849,-0.0448771,0.188942,0.73806
2305,40,3.29709,-0.0442954,0.188942,0.737085
2308,37,3.30068,-0.036458,0.186422,0.73638
2311,34,3.30034,-0.0327299,0.185907,0.735447
2314,31,3.29856,-0.0351876,0.186416,0.734468
2317,28,3.30129,-0.0305558,0.184411,0.733691
2320,25,3.29953,-0.0328828,0.184917,0.73272
2323,22,3.29864,-0.0414094,0.184405,0.731771
2326,19,3.3015,-0.0366312,0.182397,0.731042
2329,16,3.3006,-0.0360326,0.182396,0.730086
2332,13,3.29903,-0.0387111,0.182904,0.729058
2335,10,3.30118,-0.0369479,0.181554,0.728321
2338,7,3.30056,-0.0331976,0.180889,0.727391
2341,4,3.29909,-0.0481417,0.181391,0.72638
2342,3,3.2992,-0.0461461,0.180887,0.726122