File: hust_correlation_analysis/matrices/HUST_1-7_cycle_feature_matrix.csv
cycle_number,rul,voltage,current,capacity,charge_capacity
1,1680,3.32001,-0.00922512,0.31315,1.0204
3,1678,3.30566,-0.013084,0.320418,1.01462
5,1676,3.30769,-0.0111146,0.319143,1.01374
7,1674,3.30727,-0.0123192,0.319137,1.01311
9,1672,3.30746,-0.0129001,0.319132,1.01281
11,1670,3.30777,-0.0128684,0.318671,1.01305
13,1668,3.30952,-0.0103886,0.317393,1.01242
15,1666,3.30946,-0.0110068,0.31808,1.01194
17,1664,3.30897,-0.0117217,0.317853,1.01153
19,1662,3.30928,-0.0116596,0.317386,1.01177
21,1660,3.30935,-0.0123165,0.31739,1.01143
23,1658,3.30918,-0.0129007,0.317389,1.01113
25,1656,3.30879,-0.0128807,0.317387,1.0114
27,1654,3.308,-0.0136551,0.317851,1.01053
29,1652,3.3083,-0.0136397,0.317381,1.01072
31,1650,3.31008,-0.0105035,0.316097,1.01045
33,1648,3.3103,-0.0112614,0.316096,1.01003
35,1646,3.31031,-0.0112835,0.316084,1.01
37,1644,3.3106,-0.0118479,0.315633,1.00993
39,1642,3.31062,-0.0118855,0.315632,1.00991
41,1640,3.31023,-0.0126003,0.316086,1.00931
43,1638,3.30986,-0.0126333,0.316086,1.0093
45,1636,3.30994,-0.012611,0.316085,1.00931
47,1634,3.31021,-0.0132758,0.316075,1.00893
49,1632,3.30981,-0.0133718,0.316764,1.00889
51,1630,3.30991,-0.0133276,0.316076,1.00891
53,1628,3.30959,-0.014011,0.316086,1.00857
55,1626,3.31104,-0.0109305,0.31503,1.00824
57,1624,3.31128,-0.0113501,0.314803,1.00803
59,1622,3.31127,-0.0114126,0.314893,1.00778
61,1620,3.31162,-0.0113234,0.314347,1.00827
63,1618,3.31118,-0.0120079,0.314801,1.00769
65,1616,3.31108,-0.0120428,0.314799,1.00767
67,1614,3.3109,-0.0120495,0.314799,1.00767
69,1612,3.31084,-0.0126899,0.314796,1.00757
71,1610,3.31088,-0.0127454,0.314792,1.00728
73,1608,3.31083,-0.0127565,0.314796,1.00729
75,1606,3.31066,-0.0133423,0.314798,1.00698
77,1604,3.31093,-0.0132312,0.314782,1.00702
79,1602,3.31044,-0.0140063,0.314802,1.00665
81,1600,3.31007,-0.0139441,0.314806,1.0067
83,1598,3.31236,-0.0107465,0.313531,1.00646
85,1596,3.31235,-0.0113789,0.313533,1.00638
87,1594,3.31208,-0.0113576,0.31353,1.00612
89,1592,3.312,-0.0113282,0.313523,1.00613
91,1590,3.31181,-0.0120929,0.313984,1.00552
93,1588,3.31186,-0.0120159,0.313525,1.00576
95,1586,3.31174,-0.0120137,0.313523,1.00576
97,1584,3.31206,-0.0120977,0.313526,1.00572
99,1582,3.31182,-0.0127178,0.313524,1.00538
101,1580,3.31112,-0.0127205,0.31398,1.0052
103,1578,3.31141,-0.0133637,0.313986,1.00487
105,1576,3.31112,-0.0132471,0.313993,1.00494
107,1574,3.31087,-0.0132807,0.313991,1.00493
109,1572,3.31127,-0.0138684,0.313988,1.00457
111,1570,3.31113,-0.0139289,0.313988,1.00483
113,1568,3.31063,-0.0139631,0.313987,1.00456
115,1566,3.31059,-0.0139058,0.313983,1.00458
117,1564,3.31269,-0.010779,0.312709,1.00429
119,1562,3.3125,-0.0114137,0.312706,1.00395
121,1560,3.31198,-0.0115461,0.31317,1.00368
123,1558,3.31253,-0.0114651,0.312708,1.00392
125,1556,3.31237,-0.011455,0.312709,1.00394
127,1554,3.31176,-0.0120671,0.313162,1.00341
129,1552,3.31193,-0.0120523,0.31317,1.00343
131,1550,3.31205,-0.0120443,0.313174,1.00345
133,1548,3.31187,-0.0127099,0.313171,1.00309
135,1546,3.31188,-0.0126303,0.313167,1.00313
137,1544,3.31215,-0.0126366,0.312714,1.00333
139,1542,3.31182,-0.0126133,0.312865,1.00333
141,1540,3.31177,-0.0132852,0.313164,1.00276
143,1538,3.31182,-0.0133492,0.313159,1.00272
145,1536,3.31149,-0.0133241,0.313159,1.00274
147,1534,3.31132,-0.0133399,0.313155,1.00271
149,1532,3.31147,-0.0133428,0.313158,1.00272
151,1530,3.31074,-0.0140181,0.313622,1.00216
153,1528,3.31046,-0.0139829,0.313626,1.00221
155,1526,3.31305,-0.0106456,0.311896,1.00224
157,1524,3.31276,-0.0114122,0.312356,1.00164
159,1522,3.31238,-0.011434,0.312355,1.00161
161,1520,3.31219,-0.0114038,0.312355,1.00163
163,1518,3.31268,-0.0113028,0.312576,1.00188
165,1516,3.31243,-0.0119487,0.31235,1.00133
167,1514,3.31232,-0.0119418,0.31235,1.00134
169,1512,3.31286,-0.0119712,0.311894,1.00154
171,1510,3.31227,-0.0120201,0.312354,1.00131
173,1508,3.31255,-0.0119741,0.311895,1.00154
175,1506,3.31222,-0.012634,0.312185,1.00123
177,1504,3.31223,-0.0126032,0.313039,1.001
179,1502,3.31198,-0.0126279,0.312366,1.00102
181,1500,3.31181,-0.0126577,0.312824,1.0008
183,1498,3.312,-0.0132493,0.312829,1.00051
185,1496,3.31159,-0.0132154,0.312823,1.00027
187,1494,3.31122,-0.0133177,0.312823,1.00045
189,1492,3.31128,-0.0132247,0.312813,1.00048
191,1490,3.31156,-0.0138859,0.312817,1.00014
193,1488,3.31125,-0.0139546,0.312812,1.00009
195,1486,3.31111,-0.0139902,0.312813,1.00006
197,1484,3.311145,-0.013973,0.312813,1.00008
199,1482,3.31102,-0.013952,0.312809,1.00009
201,1480,3.31061,-0.0139867,0.312809,1.00006
203,1478,3.31302,-0.0113803,0.311538,0.999494
205,1476,3.313,-0.0113782,0.311627,0.999504
207,1474,3.31285,-0.0113291,0.31153,0.999505
209,1472,3.31249,-0.011548,0.311977,0.999141
211,1470,3.31273,-0.0114918,0.311616,0.999421
213,1468,3.31278,-0.011929,0.31153,0.999191
215,1466,3.31257,-0.0121593,0.311531,0.999067
217,1464,3.31267,-0.0120911,0.311534,0.999124
219,1462,3.31268,-0.0121027,0.311535,0.999116
221,1460,3.31239,-0.0121152,0.311535,0.999113
223,1458,3.31248,-0.0120645,0.311531,0.999133
225,1456,3.31258,-0.0127164,0.31222,0.998794
227,1454,3.31243,-0.0126963,0.311535,0.998801
229,1452,3.31224,-0.0127241,0.311538,0.998792
231,1450,3.31237,-0.012623,0.311536,0.998856
233,1448,3.31218,-0.0133768,0.312223,0.998263
235,1446,3.312,-0.0133648,0.311994,0.998255
237,1444,3.31177,-0.0133748,0.311994,0.998257
239,1442,3.31212,-0.0133265,0.311532,0.99846
241,1440,3.31204,-0.0133339,0.311531,0.998458
243,1438,3.31184,-0.0133241,0.311523,0.998441
245,1436,3.31153,-0.0135004,0.311979,0.998132
247,1434,3.31216,-0.0134702,0.311515,0.99834
249,1432,3.31199,-0.0135018,0.311509,0.998313
251,1430,3.31149,-0.0142817,0.311972,0.997703
253,1428,3.31127,-0.013835,0.31197,0.997922
255,1426,3.31196,-0.0142682,0.311964,0.997931
257,1424,3.31124,-0.0143987,0.312409,0.997369
259,1422,3.31173,-0.0141905,0.311953,0.997689
261,1420,3.31325,-0.0113425,0.310688,0.997271
263,1418,3.3132,-0.0116598,0.310687,0.997101
265,1416,3.31293,-0.0116959,0.310688,0.9971
267,1414,3.31285,-0.0117059,0.310537,0.997102
269,1412,3.31293,-0.0117317,0.310693,0.997089
271,1410,3.31272,-0.0117031,0.311372,0.997103
273,1408,3.3129,-0.0123536,0.310686,0.996746
275,1406,3.31306,-0.0123856,0.310684,0.996722
277,1404,3.31313,-0.0124178,0.310686,0.996708
279,1402,3.31259,-0.0124342,0.31069,0.996726
281,1400,3.31257,-0.0130066,0.310697,0.996437
283,1398,3.31301,-0.0129062,0.310241,0.996706
285,1396,3.31238,-0.0129442,0.310858,0.996494
287,1394,3.31287,-0.0128519,0.310239,0.996738
289,1392,3.31261,-0.013541,0.310696,0.996163
291,1390,3.3132,-0.013486,0.310327,0.996398
293,1388,3.31248,-0.0135841,0.310693,0.996121
295,1386,3.31212,-0.0135639,0.31069,0.99614
297,1384,3.31221,-0.0135953,0.31069,0.99613
299,1382,3.31273,-0.0135382,0.310231,0.996354
301,1380,3.31226,-0.0142459,0.310688,0.995776
303,1378,3.31192,-0.0142747,0.310692,0.995765
305,1376,3.31243,-0.0140945,0.310234,0.996077
307,1374,3.31418,-0.0116077,0.309431,0.995256
309,1372,3.31377,-0.01153,0.30943,0.995312
311,1370,3.3136,-0.0115956,0.309428,0.995267
313,1368,3.31367,-0.0115699,0.309424,0.99527
315,1366,3.31364,-0.0115753,0.309421,0.995264
317,1364,3.31358,-0.0115904,0.30942,0.995255
319,1362,3.31366,-0.0122057,0.309418,0.99492
321,1360,3.31373,-0.0122645,0.309416,0.994874
323,1358,3.31363,-0.0122951,0.309411,0.994833
325,1356,3.3132,-0.0123249,0.309415,0.994838
327,1354,3.31334,-0.0122909,0.3095,0.994856
329,1352,3.31341,-0.0129124,0.309418,0.994547
331,1350,3.31326,-0.0128438,0.30942,0.994589
333,1348,3.3131,-0.0128353,0.309423,0.994599
335,1346,3.31279,-0.01351,0.309883,0.994052
337,1344,3.31321,-0.0134996,0.309424,0.994251
339,1342,3.31258,-0.0135829,0.309882,0.994004
341,1340,3.31224,-0.0136325,0.309883,0.993978
343,1338,3.3124,-0.0136276,0.310034,0.993975
345,1336,3.31254,-0.0142467,0.30988,0.993654
347,1334,3.31236,-0.0142196,0.310557,0.993647
349,1332,3.31207,-0.0142539,0.309875,0.993635
351,1330,3.31211,-0.0142348,0.309877,0.993651
353,1328,3.31474,-0.0110045,0.308141,0.993586
355,1326,3.31432,-0.011693,0.308607,0.993055
357,1324,3.31389,-0.0115913,0.30861,0.99312
359,1322,3.31406,-0.0121183,0.30861,0.992846
361,1320,3.31407,-0.0121498,0.308612,0.992828
363,1318,3.31397,-0.0121018,0.30876,0.992631
365,1316,3.31366,-0.0121383,0.308607,0.992818
367,1314,3.31372,-0.012153,0.308603,0.992809
369,1312,3.314,-0.0128715,0.308603,0.992412
371,1310,3.31389,-0.0128513,0.3086,0.992419
373,1308,3.31354,-0.0128625,0.308598,0.992419
375,1306,3.31339,-0.012865,0.308594,0.992397
377,1304,3.31367,-0.0133184,0.308595,0.992163
379,1302,3.31315,-0.0135779,0.309059,0.991634
381,1300,3.31316,-0.0134239,0.308608,0.992147
383,1298,3.31291,-0.0140989,0.309156,0.991597
385,1296,3.3129,-0.0141121,0.30907,0.9916
387,1294,3.31282,-0.0141295,0.30907,0.991589
389,1292,3.3129,-0.0140561,0.308615,0.991831
391,1290,3.31457,-0.0114834,0.307793,0.991019
393,1288,3.31451,-0.0114765,0.307791,0.991018
395,1286,3.31444,-0.0114793,0.30779,0.991005
397,1284,3.31417,-0.0114754,0.307791,0.99102
399,1282,3.314,-0.011548,0.30779,0.990976
401,1280,3.31422,-0.0115473,0.307784,0.99096
403,1278,3.31431,-0.0122306,0.307785,0.990607
405,1276,3.31414,-0.0121291,0.307791,0.990673
407,1274,3.31404,-0.0121046,0.307795,0.990702
409,1272,3.31372,-0.0127673,0.308264,0.990418
411,1270,3.31367,-0.0128512,0.308263,0.990148
413,1268,3.31331,-0.0127495,0.308265,0.990207
415,1266,3.31364,-0.0126966,0.307802,0.990425
417,1264,3.31321,-0.0133686,0.30826,0.989866
419,1262,3.31323,-0.0133754,0.308474,0.989836
421,1260,3.3138,-0.0134112,0.307788,0.989994
423,1258,3.31361,-0.0134655,0.30779,0.989972
425,1256,3.31339,-0.0134868,0.30794,0.98995
427,1254,3.31331,-0.0141816,0.308243,0.989385
429,1252,3.31316,-0.0142501,0.308244,0.989343
431,1250,3.31277,-0.0141772,0.308261,0.989429
433,1248,3.31476,-0.0113956,0.306985,0.98895
435,1246,3.31486,-0.0114058,0.306985,0.988935
437,1244,3.31487,-0.0114171,0.306987,0.988933
439,1242,3.31486,-0.0113513,0.307205,0.988964
441,1240,3.31476,-0.0120533,0.306987,0.988597
443,1238,3.31424,-0.0121034,0.307445,0.988367
445,1236,3.31474,-0.0120664,0.306986,0.988586
447,1234,3.31481,-0.0120794,0.306989,0.988589
449,1232,3.31469,-0.0120473,0.306989,0.988613
451,1230,3.31404,-0.0127412,0.307443,0.98803
453,1228,3.31388,-0.0127624,0.307439,0.988023
455,1226,3.31391,-0.013092,0.307434,0.987822
457,1224,3.31388,-0.0128022,0.307598,0.988008
459,1222,3.31369,-0.0134081,0.307443,0.987684
461,1220,3.3136,-0.0134023,0.307443,0.987689
463,1218,3.31383,-0.0133739,0.307447,0.98772
465,1216,3.31393,-0.0139373,0.307444,0.987404
467,1214,3.31365,-0.013998,0.307442,0.987369
469,1212,3.31338,-0.0141262,0.307514,0.987261
471,1210,3.31337,-0.0141187,0.307429,0.98727
473,1208,3.31377,-0.0141322,0.307648,0.987453
475,1206,3.31313,-0.0142261,0.307423,0.987195
477,1204,3.31331,-0.0142067,0.306961,0.987399
479,1202,3.315,-0.0115861,0.30614,0.986591
481,1200,3.31514,-0.0116466,0.306142,0.986575
483,1198,3.31571,-0.0115422,0.305691,0.98685
485,1196,3.31486,-0.0116268,0.306145,0.986589
487,1194,3.31479,-0.011687,0.306146,0.98657
489,1192,3.31477,-0.0122304,0.306143,0.98627
491,1190,3.31476,-0.0122999,0.306142,0.986237
493,1188,3.31465,-0.012314,0.306141,0.986226
495,1186,3.31454,-0.0123411,0.306143,0.986219
497,1184,3.31445,-0.0130527,0.306137,0.985821
499,1182,3.314,-0.0130479,0.306598,0.98563
501,1180,3.31443,-0.0129471,0.306819,0.985877
503,1178,3.31434,-0.0129327,0.306136,0.985886
505,1176,3.31435,-0.0136488,0.306137,0.985506
507,1174,3.31421,-0.0136033,0.306136,0.985518
509,1172,3.31421,-0.0136184,0.306137,0.985525
511,1170,3.31419,-0.0136414,0.306141,0.985519
513,1168,3.31363,-0.0142729,0.306602,0.985019
515,1166,3.31368,-0.01413,0.306148,0.9853
517,1164,3.31568,-0.0108702,0.304868,0.985022
519,1162,3.31542,-0.0117192,0.30532,0.984371
521,1160,3.31532,-0.0116906,0.30532,0.984375
523,1158,3.31518,-0.0116401,0.305316,0.9844
525,1156,3.3153,-0.0116382,0.304863,0.984608
527,1154,3.31502,-0.0117338,0.30532,0.984358
529,1152,3.3152,-0.0123356,0.30532,0.984037
531,1150,3.31564,-0.012296,0.304863,0.984264
533,1148,3.31548,-0.0123012,0.304872,0.984284
535,1146,3.3149,-0.0129429,0.305328,0.983749
537,1144,3.31484,-0.0128498,0.305336,0.98383
539,1142,3.31528,-0.0127925,0.304885,0.984073
541,1140,3.31496,-0.0134908,0.305338,0.983488
543,1138,3.31467,-0.0134777,0.305339,0.983489
545,1136,3.3143,-0.0135071,0.305325,0.983452
547,1134,3.31434,-0.0134852,0.306002,0.983439
549,1132,3.31446,-0.0135983,0.305313,0.983375
551,1130,3.31489,-0.0136281,0.304862,0.98356
553,1128,3.31446,-0.0143113,0.305538,0.982988
555,1126,3.31409,-0.0143174,0.305313,0.982988
557,1124,3.31397,-0.0143225,0.305309,0.982978
559,1122,3.31611,-0.0110282,0.303429,0.982739
561,1120,3.3162,-0.01167,0.304044,0.982426
563,1118,3.31603,-0.0115295,0.304057,0.982537
565,1116,3.31598,-0.0115844,0.30406,0.98253
567,1114,3.31583,-0.0121311,0.304054,0.982221
569,1112,3.31532,-0.0121469,0.305191,0.982013
571,1110,3.31569,-0.0122715,0.304039,0.982099
573,1108,3.31586,-0.0122157,0.304036,0.982113
575,1106,3.31522,-0.0129239,0.304489,0.981531
577,1104,3.31546,-0.0128575,0.304034,0.98177
579,1102,3.31502,-0.0129296,0.304486,0.981532
581,1100,3.31559,-0.0129531,0.304029,0.981711
583,1098,3.31521,-0.01368,0.304491,0.981142
585,1096,3.31497,-0.0137357,0.304506,0.981131
587,1094,3.31481,-0.0135792,0.304506,0.981237
589,1092,3.3143,-0.0142125,0.305053,0.980722
591,1090,3.3147,-0.0140889,0.30451,0.980984
593,1088,3.3165,-0.0115268,0.303693,0.980161
595,1086,3.31654,-0.0113632,0.303232,0.980438
597,1084,3.31619,-0.0114443,0.303448,0.980388
599,1082,3.31636,-0.0114535,0.303231,0.980385
601,1080,3.31546,-0.0121791,0.304142,0.979596
603,1078,3.31599,-0.0122227,0.30369,0.979785
605,1076,3.31601,-0.0121687,0.303685,0.979806
607,1074,3.31624,-0.0121263,0.303227,0.980019
609,1072,3.31549,-0.0128553,0.303689,0.979463
611,1070,3.31552,-0.0128093,0.303686,0.979465
613,1068,3.31561,-0.0127821,0.303688,0.979494
615,1066,3.31553,-0.0134848,0.303691,0.979116
617,1064,3.31571,-0.0134008,0.303689,0.979176
619,1062,3.31505,-0.0135039,0.303691,0.979117
621,1060,3.31496,-0.014098,0.30369,0.978802
623,1058,3.31471,-0.014054,0.30369,0.978827
625,1056,3.31485,-0.0140448,0.303691,0.978832
627,1054,3.31666,-0.01152,0.302978,0.97798
629,1052,3.31642,-0.01151,0.302872,0.977994
631,1050,3.31614,-0.0116006,0.302872,0.977939
633,1048,3.31587,-0.0116666,0.303088,0.977899
635,1046,3.31624,-0.0121782,0.302867,0.977615
637,1044,3.31617,-0.0122005,0.302469,0.977613
639,1042,3.31627,-0.012832,0.302866,0.977283
641,1040,3.31603,-0.0128886,0.302868,0.97724
643,1038,3.31582,-0.0128822,0.302867,0.977258
645,1036,3.31573,-0.0128661,0.302861,0.977248
647,1034,3.31578,-0.0128887,0.303086,0.977233
649,1032,3.31576,-0.0135598,0.302865,0.976886
651,1030,3.31558,-0.0135462,0.302865,0.976893
653,1028,3.31529,-0.0135969,0.302861,0.976873
655,1026,3.31524,-0.0142442,0.30286,0.976511
657,1024,3.31465,-0.0143395,0.303319,0.97627
659,1022,3.31465,-0.0142581,0.303316,0.976308
661,1020,3.31708,-0.0109647,0.301581,0.976246
663,1018,3.31677,-0.0116393,0.302035,0.975683
665,1016,3.3166,-0.0116272,0.302038,0.975706
667,1014,3.31683,-0.0116388,0.30158,0.975889
669,1012,3.31636,-0.0123313,0.302042,0.975342
671,1010,3.31636,-0.0122756,0.302034,0.975354
673,1008,3.31687,-0.0122792,0.301577,0.975545
675,1006,3.31641,-0.0129556,0.302039,0.975004
677,1004,3.31609,-0.0129809,0.302038,0.974979
679,1002,3.31586,-0.0130258,0.302035,0.974962
681,1000,3.31583,-0.0135975,0.302035,0.974652
683,998,3.31577,-0.013671,0.302038,0.974878
685,996,3.31577,-0.0137528,0.302044,0.974605
687,994,3.31522,-0.0144301,0.302499,0.97403
689,992,3.31497,-0.0143533,0.302483,0.974048
691,990,3.31496,-0.0144432,0.302499,0.974035
693,988,3.31669,-0.0111718,0.30122,0.973757
695,986,3.31685,-0.0116629,0.301214,0.973479
697,984,3.31701,-0.0117507,0.30122,0.97346
699,982,3.31673,-0.0123445,0.301213,0.973118
701,980,3.31656,-0.0122847,0.30121,0.973144
703,978,3.31638,-0.0123633,0.301212,0.973119
705,976,3.31597,-0.0130161,0.30167,0.972572
707,974,3.31637,-0.012979,0.301213,0.972788
709,972,3.31656,-0.013045,0.301364,0.972757
711,970,3.31593,-0.0137433,0.30167,0.972179
713,968,3.31613,-0.0136362,0.301206,0.972423
715,966,3.31593,-0.0136548,0.301362,0.972426
717,964,3.31545,-0.0143655,0.301674,0.971854
719,962,3.31729,-0.0109937,0.300394,0.971643
721,960,3.31691,-0.0117158,0.300859,0.971074
723,958,3.31719,-0.0116123,0.300396,0.971327
725,956,3.31711,-0.0115975,0.300398,0.971329
727,954,3.31657,-0.0123243,0.300857,0.970766
729,952,3.31644,-0.0122901,0.300853,0.970772
731,950,3.31606,-0.0129837,0.301314,0.970201
733,948,3.31639,-0.0130199,0.300856,0.970375
735,946,3.3164,-0.0130098,0.301002,0.97038
737,944,3.31632,-0.0136486,0.300851,0.97004
739,942,3.316,-0.0136829,0.300849,0.970026
741,940,3.31577,-0.0137002,0.300849,0.970015
743,938,3.31562,-0.0145107,0.301303,0.96936
745,936,3.31595,-0.0144472,0.300842,0.969607
747,934,3.31782,-0.0111442,0.299561,0.969341
749,932,3.3172,-0.0117876,0.300017,0.968795
751,930,3.31738,-0.0117506,0.299562,0.969012
753,928,3.31692,-0.0124126,0.300023,0.968486
755,926,3.31681,-0.0124043,0.300107,0.968483
757,924,3.3172,-0.0123264,0.299561,0.968715
759,922,3.31677,-0.0130894,0.300018,0.968103
761,920,3.31654,-0.0130802,0.300021,0.968124
763,918,3.31628,-0.0131149,0.30002,0.968102
765,916,3.31629,-0.0138429,0.300019,0.967705
767,914,3.3162,-0.0137587,0.30002,0.967759
769,912,3.31569,-0.0138535,0.300478,0.965992
771,910,3.31579,-0.014646,0.300477,0.967095
773,908,3.31566,-0.0144858,0.300479,0.96718
775,906,3.31763,-0.0118343,0.299198,0.966562
777,904,3.31731,-0.0118083,0.299195,0.966574
779,902,3.31691,-0.0126054,0.299812,0.965977
781,900,3.31722,-0.0123515,0.299201,0.966305
783,898,3.31728,-0.0124262,0.299199,0.96627
785,896,3.31723,-0.0130622,0.298577,0.965928
787,894,3.31664,-0.0131473,0.299661,0.965697
789,892,3.31646,-0.0138282,0.299656,0.965325
791,890,3.31611,-0.0138478,0.299658,0.965308
793,888,3.31578,-0.0145855,0.300121,0.964727
795,886,3.31563,-0.0145243,0.299459,0.964763
797,884,3.31598,-0.0145421,0.30034,0.964936
799,882,3.31804,-0.0118267,0.29837,0.964349
801,880,3.31774,-0.011817,0.298371,0.964351
803,878,3.31745,-0.0118741,0.298373,0.96433
805,876,3.31697,-0.0125581,0.298154,0.963782
807,874,3.31702,-0.0125118,0.298834,0.963809
809,872,3.31706,-0.0131855,0.298834,0.963452
811,870,3.31688,-0.0132043,0.298836,0.963453
813,868,3.31685,-0.0132742,0.298821,0.963364
815,866,3.31654,-0.0139416,0.298821,0.962996
817,864,3.31624,-0.013994,0.298822,0.962979
819,862,3.3159,-0.0147395,0.299281,0.962392
821,860,3.31629,-0.014662,0.298816,0.962619
823,858,3.31801,-0.0119944,0.298011,0.961858
825,856,3.31795,-0.0124581,0.298014,0.961619
827,854,3.31779,-0.012532,0.298014,0.961577
829,852,3.31741,-0.0124661,0.298019,0.961647
831,850,3.31692,-0.0131154,0.298481,0.9611
833,848,3.3169,-0.0131143,0.298471,0.961072
835,846,3.31688,-0.0133103,0.298472,0.960967
837,844,3.31675,-0.0139903,0.29916,0.960635
839,842,3.31693,-0.0139333,0.298008,0.960831
841,840,3.31622,-0.0140823,0.29915,0.960557
843,838,3.31594,-0.0147155,0.298466,0.960213
845,836,3.3178,-0.0113386,0.297172,0.959954
847,834,3.31746,-0.0120562,0.297648,0.9594
849,832,3.31786,-0.0119834,0.297185,0.958146
851,830,3.31748,-0.012657,0.29765,0.959107
853,828,3.31693,-0.0132871,0.298113,0.958568
855,826,3.31695,-0.0131654,0.297653,0.959084
857,824,3.3164,-0.0139272,0.298118,0.958251
859,822,3.31627,-0.0140048,0.298117,0.958205
861,820,3.31589,-0.0146737,0.298581,0.957653
863,818,3.31618,-0.0146498,0.298112,0.957852
865,816,3.31825,-0.0112207,0.296944,0.957621
867,814,3.31814,-0.0118842,0.296823,0.957265
869,812,3.31784,-0.0118781,0.296819,0.957262
871,810,3.3173,-0.0126353,0.297282,0.95666
873,808,3.31714,-0.0126122,0.297282,0.956679
875,806,3.31683,-0.0133526,0.297875,0.956092
877,804,3.31711,-0.0132514,0.297283,0.956348
879,802,3.31663,-0.0139785,0.297751,0.955778
881,800,3.31678,-0.0138538,0.297285,0.956038
883,798,3.31608,-0.0146775,0.297751,0.955411
885,796,3.3157,-0.0146325,0.297755,0.955451
887,794,3.31787,-0.0118805,0.296463,0.954845
889,792,3.31773,-0.0118565,0.296468,0.954854
891,790,3.31743,-0.0126908,0.297079,0.954226
893,788,3.31723,-0.0126414,0.296922,0.954225
895,786,3.31765,-0.0125971,0.296675,0.954449
897,784,3.31686,-0.0133484,0.296926,0.953868
899,782,3.31707,-0.0132898,0.296451,0.954074
901,780,3.31653,-0.0139966,0.297,0.953514
903,778,3.31653,-0.0139927,0.296918,0.952049
905,776,3.31643,-0.0147454,0.296921,0.953128
907,774,3.31805,-0.0120561,0.296094,0.952292
909,772,3.31788,-0.0119341,0.296098,0.952368
911,770,3.31764,-0.0119035,0.296099,0.952382
913,768,3.31739,-0.012695,0.296096,0.951958
915,766,3.31716,-0.0126807,0.296095,0.951967
917,764,3.31662,-0.0134212,0.296562,0.951384
919,762,3.31694,-0.0133285,0.296089,0.951619
921,760,3.31639,-0.0142496,0.296558,0.950934
923,758,3.31616,-0.0142651,0.296559,0.950933
925,756,3.3162,-0.0149097,0.297241,0.950589
927,754,3.31573,-0.0149141,0.296554,0.950584
929,752,3.31781,-0.0120862,0.295263,0.950013
931,750,3.31714,-0.0122828,0.295717,0.949678
933,748,3.31725,-0.0129193,0.295723,0.949611
935,746,3.31713,-0.0129624,0.295735,0.949381
937,744,3.31723,-0.0135506,0.29574,0.94907
939,742,3.3169,-0.0135267,0.295738,0.949087
941,740,3.31623,-0.014373,0.296202,0.948448
943,738,3.31603,-0.014915,0.2962,0.948152
945,736,3.31607,-0.0132055,0.295731,0.947988
947,734,3.31816,-0.00973476,0.294435,0.94774
949,732,3.31799,-0.0104674,0.294436,0.947372
951,730,3.31789,-0.0104769,0.29444,0.947374
953,728,3.31746,-0.0180639,0.294438,0.947069
955,726,3.31723,-0.0180567,0.294428,0.947054
957,724,3.31664,-0.018842,0.294904,0.946469
959,722,3.3159,-0.0196055,0.295372,0.945879
961,720,3.3159,-0.0195567,0.295377,0.945924
963,718,3.31563,-0.0184945,0.295387,0.945236
965,716,3.31823,-0.0137106,0.29315,0.944796
967,714,3.31783,-0.0155897,0.293615,0.944876
969,712,3.3179,-0.0144868,0.293141,0.944366
971,710,3.31779,-0.0144766,0.293142,0.944382
973,708,3.31721,-0.0153394,0.293753,0.943735
975,706,3.31727,-0.0152685,0.293287,0.943972
977,704,3.31661,-0.0160355,0.293602,0.943366
979,702,3.31665,-0.0142937,0.293135,0.943204
981,700,3.31616,-0.0150347,0.293601,0.942611
983,698,3.31845,-0.0115266,0.291837,0.942574
985,696,3.31852,-0.0103527,0.291363,0.940725
987,694,3.31804,-0.0105413,0.291841,0.941851
989,692,3.31797,-0.0111256,0.291843,0.941552
991,690,3.31726,-0.0118134,0.292313,0.941013
993,688,3.317,-0.0118541,0.292314,0.941002
995,686,3.31679,-0.0124589,0.292307,0.940661
997,684,3.31606,-0.0202777,0.292779,0.940097
999,682,3.31608,-0.0184683,0.292308,0.939942
1001,680,3.31823,-0.0157373,0.291012,0.939306
1003,678,3.31843,-0.0156585,0.290547,0.939539
1005,676,3.31787,-0.0164059,0.291011,0.938963
1007,674,3.31747,-0.0154024,0.29101,0.938223
1009,672,3.31781,-0.0152911,0.290544,0.938468
1011,670,3.31715,-0.0160681,0.291083,0.937891
1013,668,3.31692,-0.0161116,0.291009,0.937853
1015,666,3.31663,-0.016767,0.291227,0.937506
1017,664,3.31887,-0.0115023,0.289251,0.937126
1019,662,3.31813,-0.0121863,0.289715,0.936568
1021,660,3.31784,-0.0112258,0.289712,0.935793
1023,658,3.31786,-0.0129178,0.289859,0.936201
1025,656,3.31784,-0.0118155,0.289253,0.935699
1027,654,3.31734,-0.0125521,0.289715,0.935144
1029,652,3.31706,-0.0125481,0.289715,0.935151
1031,650,3.31624,-0.0132783,0.29018,0.934571
1033,648,3.31792,-0.0175494,0.288889,0.933986
1035,646,3.31834,-0.010419,0.288422,0.934184
1037,644,3.31783,-0.0111049,0.288886,0.93364
1039,642,3.31691,-0.0189908,0.289351,0.933041
1041,640,3.31699,-0.0171678,0.288891,0.932936
1043,638,3.31684,-0.0177452,0.28889,0.93264
1045,636,3.31685,-0.0184323,0.288888,0.932283
1047,634,3.31872,-0.0149724,0.287598,0.932027
1049,632,3.31834,-0.0139676,0.287605,0.931295
1051,630,3.31835,-0.0146062,0.2876,0.930956
1053,628,3.31822,-0.0128214,0.287137,0.930803
1055,626,3.31773,-0.0135898,0.287594,0.930205
1057,624,3.31733,-0.0135959,0.287593,0.930195
1059,622,3.31708,-0.0143604,0.287586,0.929798
1061,620,3.31678,-0.0143975,0.287587,0.929778
1063,618,3.31871,-0.011563,0.286295,0.92918
1065,616,3.31825,-0.0105537,0.286297,0.928441
1067,614,3.31795,-0.0182951,0.286297,0.928125
1069,612,3.31782,-0.0182585,0.286301,0.928167
1071,610,3.31731,-0.0189358,0.286908,0.927643
1073,608,3.31733,-0.0177746,0.286306,0.927165
1075,606,3.31712,-0.0184766,0.286302,0.926814
1077,604,3.3191,-0.0149615,0.285012,0.926559
1079,602,3.31847,-0.0157645,0.285475,0.925969
1081,600,3.31851,-0.0146392,0.285008,0.925454
1083,598,3.31831,-0.014702,0.285004,0.925411
1085,596,3.31821,-0.0135996,0.284541,0.924892
1087,594,3.3177,-0.0144035,0.284999,0.924292
1089,592,3.31775,-0.0143235,0.284538,0.924516
1091,590,3.31729,-0.0133947,0.284538,0.923737
1093,588,3.31917,-0.00984841,0.283251,0.923517
1095,586,3.31833,-0.0124802,0.284177,0.923066
1097,584,3.31827,-0.0113231,0.28371,0.922569
1099,582,3.31758,-0.0121122,0.284167,0.921968
1101,580,3.31735,-0.012099,0.284169,0.921985
1103,578,3.31687,-0.0198488,0.284308,0.921672
1105,576,3.31629,-0.0206259,0.284627,0.92109
1107,574,3.31886,-0.0152181,0.282424,0.920933
1109,572,3.31809,-0.015984,0.282881,0.920348
1111,570,3.3176,-0.0149595,0.282877,0.919604
1113,568,3.31753,-0.0156326,0.282872,0.919264
1115,566,3.31726,-0.0157053,0.282867,0.919196
1117,564,3.31712,-0.0163663,0.282859,0.918841
1119,562,3.31712,-0.0152559,0.282399,0.918316
1121,560,3.31863,-0.0124836,0.281568,0.917508
1123,558,3.31863,-0.0106791,0.281148,0.917354
1125,556,3.3187,-0.0113259,0.281123,0.91707
1127,554,3.31805,-0.0120326,0.281581,0.916523
1129,552,3.31765,-0.0198662,0.281585,0.916199
1131,550,3.31721,-0.0134665,0.282044,0.915629
1133,548,3.31893,-0.0170528,0.280746,0.915384
1135,546,3.31869,-0.0177429,0.280747,0.915033
1137,544,3.3182,-0.0167374,0.280745,0.914279
1139,542,3.31836,-0.0166425,0.280286,0.914505
1141,540,3.31766,-0.0174991,0.280746,0.914127
1143,538,3.31732,-0.0181353,0.280744,0.913568
1145,536,3.3168,-0.017109,0.280744,0.91284
1147,534,3.31845,-0.0153525,0.279909,0.91275
1149,532,3.31842,-0.0142245,0.279451,0.912244
1151,530,3.31822,-0.0149052,0.279451,0.911895
1153,528,3.31782,-0.0155721,0.279907,0.911365
1155,526,3.31688,-0.0164156,0.28037,0.910769
1157,524,3.31677,-0.0170839,0.28058,0.910431
1159,522,3.31875,-0.0116937,0.27862,0.910021
1161,520,3.31859,-0.0123752,0.278618,0.909683
1163,518,3.31786,-0.0131899,0.279074,0.909084
1165,516,3.31785,-0.0119587,0.278678,0.908619
1167,514,3.31687,-0.0200364,0.279071,0.908009
1169,512,3.31618,-0.0208355,0.279529,0.907376
1171,510,3.31866,-0.0153066,0.277324,0.907274
1173,508,3.31807,-0.0161199,0.277774,0.906665
1175,506,3.31781,-0.0168021,0.27778,0.906337
1177,504,3.31735,-0.0157709,0.277779,0.90559
1179,502,3.31704,-0.0164554,0.277777,0.905241
1181,500,3.31676,-0.0164755,0.277777,0.905238
1183,498,3.31891,-0.0117125,0.276034,0.904514
1185,496,3.31824,-0.0124818,0.276484,0.903931
1187,494,3.31753,-0.0132787,0.276941,0.90334
1189,492,3.31757,-0.0120547,0.276483,0.90288
1191,490,3.31662,-0.0201491,0.27694,0.902281
1193,488,3.31634,-0.0208033,0.276939,0.90196
1195,486,3.31836,-0.017229,0.275858,0.901701
1197,484,3.3181,-0.0179406,0.275649,0.901346
1199,482,3.31746,-0.0187383,0.276102,0.900762
1201,480,3.31724,-0.0175756,0.275644,0.900257
1203,478,3.3166,-0.0184345,0.276313,0.899652
1205,476,3.31636,-0.0191218,0.276101,0.899294
1207,474,3.31792,-0.0144342,0.274811,0.898334
1209,472,3.31795,-0.0150749,0.274809,0.898017
1211,470,3.3174,-0.0151089,0.274812,0.898003
1213,468,3.31684,-0.0140112,0.275021,0.897302
1215,466,3.31664,-0.0146482,0.274811,0.896974
1217,464,3.31827,-0.0100045,0.273518,0.895959
1219,462,3.31803,-0.0106809,0.27352,0.895634
1221,460,3.31725,-0.0114959,0.273974,0.895034
1223,458,3.31682,-0.0194998,0.273971,0.89471
1225,456,3.31619,-0.0203263,0.274428,0.894126
1227,454,3.31613,-0.0191612,0.273967,0.893608
1229,452,3.3176,-0.0162967,0.273344,0.892802
1231,450,3.31747,-0.0170153,0.273133,0.892445
1233,448,3.31721,-0.0170236,0.273132,0.892442
1235,446,3.317132,-0.0158676,0.272677,0.891939
1237,444,3.31639,-0.0166362,0.273133,0.890078
1239,442,3.31821,-0.0137592,0.271844,0.890764
1241,440,3.3174,-0.0145,0.272301,0.890225
1243,438,3.31707,-0.0151671,0.2723,0.889897
1245,436,3.31649,-0.0140203,0.272298,0.889194
1247,434,3.31625,-0.0147499,0.272355,0.888824
1249,432,3.31573,-0.0137244,0.272297,0.888066
1251,430,3.31697,-0.0182839,0.271462,0.887243
1253,428,3.31677,-0.018949,0.271456,0.887152
1255,426,3.31682,-0.0178169,0.271002,0.88613
1257,424,3.31616,-0.0186,0.271456,0.885811
1259,422,3.31583,-0.0192663,0.271459,0.885742
1261,420,3.31749,-0.0145382,0.270164,0.884504
1263,418,3.31766,-0.0144283,0.269707,0.88474
1265,416,3.31696,-0.0152804,0.270161,0.884133
1267,414,3.31658,-0.0159615,0.270161,0.883814
1269,412,3.31572,-0.0167984,0.270618,0.883217
1271,410,3.31732,-0.0138716,0.26978,0.882412
1273,408,3.31708,-0.0126811,0.269324,0.881924
1275,406,3.31677,-0.0133564,0.269323,0.881591
1277,404,3.31621,-0.012346,0.269321,0.880818
1279,402,3.31549,-0.0130832,0.269773,0.880264
1281,400,3.31713,-0.0175618,0.268481,0.879679
1283,398,3.31668,-0.0165524,0.268479,0.878895
1285,396,3.31639,-0.0171904,0.268476,0.878585
1287,394,3.31619,-0.0179463,0.268475,0.878206
1289,392,3.31564,-0.0168717,0.268473,0.877464
1291,390,3.31758,-0.0138749,0.26718,0.876876
1293,388,3.31686,-0.014693,0.267632,0.876294
1295,386,3.31647,-0.0153808,0.267634,0.875722
1297,384,3.31551,-0.0162481,0.268084,0.875603
1299,382,3.31542,-0.015049,0.267621,0.874836
1301,380,3.31464,-0.0158692,0.268081,0.874267
1303,378,3.31637,-0.0110548,0.266787,0.87328
1305,376,3.31618,-0.0117219,0.266787,0.872952
1307,374,3.31566,-0.0200039,0.266785,0.872598
1309,372,3.31523,-0.0188691,0.266783,0.871873
1311,370,3.31716,-0.0159547,0.26615,0.871237
1313,368,3.31687,-0.0166716,0.265485,0.870886
1315,366,3.31592,-0.0175417,0.266147,0.870288
1317,364,3.31597,-0.0163503,0.26549,0.869803
1319,362,3.31505,-0.017219,0.265945,0.869198
1321,360,3.31712,-0.012296,0.264195,0.868436
1323,358,3.31639,-0.0130715,0.264644,0.867871
1325,356,3.31604,-0.0137215,0.264644,0.867562
1327,354,3.31506,-0.0134125,0.265101,0.866265
1329,352,3.31488,-0.0140795,0.265229,0.86595
1331,350,3.31662,-0.018626,0.263808,0.865372
1333,348,3.31585,-0.0194118,0.26426,0.864812
1335,346,3.31578,-0.0181787,0.263805,0.864322
1337,344,3.31538,-0.018914,0.263801,0.863969
1339,342,3.31471,-0.0179073,0.263795,0.863167
1341,340,3.31607,-0.0150566,0.262954,0.862292
1343,338,3.31575,-0.0157376,0.262952,0.861975
1345,336,3.3152,-0.0146556,0.263614,0.861215
1347,334,3.31476,-0.0153785,0.262948,0.860871
1349,332,3.31658,-0.0105353,0.261651,0.859863
1351,330,3.31626,-0.0112954,0.261643,0.859468
1353,328,3.31578,-0.0196324,0.261645,0.859149
1355,326,3.31501,-0.020431,0.262095,0.858583
1357,324,3.31479,-0.0192318,0.261657,0.858109
1359,322,3.31607,-0.0182427,0.261269,0.857454
1361,320,3.31553,-0.0177722,0.261266,0.856401
1363,318,3.31517,-0.0184859,0.261264,0.856073
1365,316,3.31439,-0.0193387,0.26172,0.855503
1367,314,3.31447,-0.0161903,0.260811,0.854803
1369,312,3.31595,-0.0131972,0.25996,0.85397
1371,310,3.31583,-0.0120178,0.259699,0.853417
1373,308,3.31478,-0.0148483,0.260401,0.851469
1375,306,3.31466,-0.0136554,0.259946,0.852452
1377,304,3.31578,-0.0184945,0.259104,0.85158
1379,302,3.31527,-0.0190684,0.259102,0.851309
1381,300,3.31499,-0.0198068,0.259757,0.850972
1383,298,3.3145,-0.0194518,0.259097,0.849863
1385,296,3.3136,-0.0202832,0.259552,0.849297
1387,294,3.31533,-0.0153397,0.25826,0.848319
1389,292,3.31521,-0.0159969,0.258265,0.848281
1391,290,3.31513,-0.0147674,0.257813,0.847539
1393,288,3.31395,-0.0175404,0.258719,0.847154
1395,286,3.31622,-0.0125101,0.256975,0.846392
1397,284,3.31506,-0.0121971,0.257419,0.845056
1399,282,3.31472,-0.0129326,0.257421,0.844721
1401,280,3.3144,-0.0137373,0.257414,0.844345
1403,278,3.31555,-0.0184599,0.257223,0.843545
1405,276,3.31532,-0.0191541,0.256561,0.843207
1407,274,3.31437,-0.0200481,0.257022,0.842891
1409,272,3.31384,-0.0208309,0.257023,0.842272
1411,270,3.31382,-0.0195456,0.256563,0.841786
1413,268,3.31521,-0.0154174,0.255721,0.840201
1415,266,3.31496,-0.0161087,0.255718,0.839881
1417,264,3.31421,-0.0168907,0.256173,0.838068
1419,262,3.31396,-0.0156389,0.255718,0.838833
1421,260,3.31538,-0.0125862,0.254872,0.838026
1423,258,3.31449,-0.0141411,0.255332,0.837141
1425,256,3.31454,-0.0129246,0.254871,0.836606
1427,254,3.31374,-0.0137763,0.255324,0.836025
1429,252,3.31258,-0.0225358,0.255777,0.835424
1431,250,3.3147,-0.0193341,0.254474,0.834874
1433,248,3.31431,-0.0200764,0.254471,0.834534
1435,246,3.31381,-0.0208319,0.25447,0.834191
1437,244,3.31288,-0.0217144,0.254925,0.833604
1439,242,3.31468,-0.0174032,0.254277,0.832265
1441,240,3.31412,-0.0163625,0.253621,0.831475
1443,238,3.31412,-0.0150926,0.253167,0.830975
1445,236,3.31332,-0.0158698,0.253618,0.830428
1447,234,3.31522,-0.012669,0.252317,0.829861
1449,232,3.31468,-0.0134281,0.252318,0.829532
1451,230,3.31329,-0.0151012,0.253228,0.828387
1453,228,3.31316,-0.0138358,0.25277,0.82788
1455,226,3.31503,-0.0184377,0.251468,0.827396
1457,224,3.31436,-0.0194765,0.251957,0.826741
1459,222,3.31403,-0.0202178,0.25192,0.8264
1461,220,3.31322,-0.0190327,0.251917,0.825658
1463,218,3.3125,-0.0219834,0.252372,0.825415
1465,216,3.31419,-0.0174777,0.25172,0.824149
1467,214,3.31374,-0.016328,0.251064,0.823392
1469,212,3.31353,-0.0171404,0.251064,0.82303
1471,210,3.31346,-0.0158379,0.250608,0.822544
1473,208,3.31485,-0.0127456,0.249757,0.821704
1475,206,3.31438,-0.0135563,0.249756,0.821358
1477,204,3.31299,-0.0152716,0.250668,0.820199
1479,202,3.31278,-0.0139231,0.250211,0.819737
1481,200,3.31477,-0.0187989,0.248905,0.819136
1483,198,3.31411,-0.0183313,0.248913,0.818104
1485,196,3.3132,-0.019176,0.249365,0.817534
1487,194,3.31261,-0.02002,0.249363,0.817161
1489,192,3.31171,-0.0208859,0.249815,0.816575
1491,190,3.31406,-0.0156118,0.24805,0.815812
1493,188,3.31333,-0.0165241,0.248537,0.81522
1495,186,3.31331,-0.0152426,0.248047,0.814711
1497,184,3.31284,-0.0159701,0.248047,0.814386
1499,182,3.31419,-0.0128449,0.247189,0.813541
1501,180,3.31357,-0.0124609,0.24719,0.812452
1503,178,3.31326,-0.0132021,0.24719,0.812129
1505,176,3.31224,-0.0222086,0.247643,0.811552
1507,174,3.31422,-0.0189377,0.246334,0.810972
1509,172,3.3135,-0.0178251,0.246337,0.810206
1511,170,3.3125,-0.0193969,0.246798,0.80935
1513,168,3.31217,-0.0181162,0.246349,0.808855
1515,166,3.31461,-0.0133775,0.244583,0.807838
1517,164,3.31386,-0.0136213,0.245026,0.80776
1519,162,3.31356,-0.0144812,0.244992,0.807079
1521,160,3.31257,-0.0154462,0.245469,0.806478
1523,158,3.3124,-0.014164,0.245012,0.805962
1525,156,3.31395,-0.0110643,0.244158,0.805107
1527,154,3.31294,-0.020836,0.244609,0.804228
1529,152,3.31253,-0.0216067,0.244608,0.803891
1531,150,3.31162,-0.022619,0.245061,0.803266
1533,148,3.31396,-0.0172279,0.243295,0.802768
1535,146,3.31355,-0.0179719,0.243293,0.802189
1537,144,3.31266,-0.0189248,0.243746,0.801587
1539,142,3.31259,-0.0176031,0.243291,0.801078
1541,140,3.31159,-0.019307,0.243748,0.80017
1543,138,3.31321,-0.0161087,0.242892,0.799339
1545,136,3.31323,-0.0146985,0.242438,0.798882
1547,134,3.31235,-0.015615,0.24289,0.798302
1549,132,3.31152,-0.014437,0.242889,0.797526
1551,130,3.31357,-0.0110883,0.241572,0.796946
1553,128,3.31278,-0.0128142,0.242029,0.79602
1555,126,3.31215,-0.0219056,0.242024,0.795673
1557,124,3.31143,-0.0207473,0.242025,0.7949
1559,122,3.31077,-0.0236128,0.242478,0.794763
1561,120,3.31307,-0.0182346,0.240905,0.793975
1563,118,3.3124,-0.0170105,0.240709,0.79323
1565,116,3.31212,-0.0178028,0.240706,0.792887
1567,114,3.3113,-0.0187598,0.241158,0.792286
1569,112,3.31359,-0.0140655,0.239394,0.791211
1571,110,3.3125,-0.0150616,0.239849,0.790591
1573,108,3.31185,-0.0137615,0.239844,0.78987
1575,106,3.31167,-0.0145298,0.239849,0.789566
1577,104,3.31387,-0.0111701,0.23854,0.789002
1579,102,3.31286,-0.0128199,0.238992,0.788107
1581,100,3.31186,-0.0137707,0.239448,0.787525
1583,98,3.31116,-0.0227831,0.239444,0.787253
1585,96,3.31292,-0.0197055,0.238584,0.786354
1587,94,3.31287,-0.0183368,0.238126,0.785844
1589,92,3.31225,-0.0191486,0.238124,0.785506
1591,90,3.31117,-0.0201022,0.238576,0.784908
1593,88,3.31075,-0.0196128,0.238574,0.783846
1595,86,3.31321,-0.0142003,0.236808,0.783048
1597,84,3.31242,-0.0150791,0.237905,0.782478
1599,82,3.31183,-0.0159268,0.237258,0.782134
1601,80,3.3109,-0.0146371,0.237258,0.781404
1603,78,3.31331,-0.0112504,0.235945,0.780824
1605,76,3.31233,-0.0213615,0.236396,0.778564
1607,74,3.31216,-0.0200598,0.235941,0.779403
1609,72,3.31062,-0.0231769,0.23685,0.778997
1611,70,3.31025,-0.0238877,0.236845,0.778702
1613,68,3.31228,-0.0185207,0.235529,0.777652
1615,66,3.31194,-0.0193887,0.235528,0.777312
1617,64,3.31089,-0.0204278,0.235982,0.776688
1619,62,3.31048,-0.0189949,0.235716,0.776192
1621,60,3.31214,-0.0157588,0.234659,0.775342
1623,58,3.31208,-0.0131269,0.234207,0.774083
1625,56,3.31169,-0.014005,0.234203,0.773731
1627,54,3.31112,-0.0148369,0.2342,0.773376
1629,52,3.31021,-0.0157696,0.234655,0.772801
1631,50,3.31233,-0.0122593,0.233337,0.772249
1633,48,3.31179,-0.0216225,0.233335,0.771928
1635,46,3.31088,-0.022613,0.233785,0.771326
1637,44,3.31071,-0.0212212,0.233332,0.770819
1639,42,3.31239,-0.0158824,0.232016,0.76975
1641,40,3.312,-0.0166013,0.232016,0.769456
1643,38,3.31107,-0.0176803,0.232464,0.768814
1645,36,3.31071,-0.0184785,0.232465,0.768492
1647,34,3.31047,-0.0158745,0.23203,0.76723
1649,32,3.31199,-0.0124831,0.231151,0.766427
1651,30,3.31149,-0.0132379,0.231145,0.766113
1653,28,3.31122,-0.0140987,0.231157,0.765763
1655,26,3.31007,-0.0236812,0.231595,0.765174
1657,24,3.31217,-0.0203034,0.23028,0.764576
1659,22,3.31173,-0.0209657,0.230278,0.764304
1661,20,3.31103,-0.0196779,0.230276,0.763564
1663,18,3.31037,-0.0214998,0.230727,0.76263
1665,16,3.31017,-0.0201764,0.230275,0.762083
1667,14,3.31159,-0.016816,0.229407,0.761269
1669,12,3.31065,-0.0177601,0.22987,0.760681
1671,10,3.3106,-0.0163816,0.22936,0.760168
1673,8,3.31063,-0.0150457,0.229593,0.759641
1675,6,3.31247,-0.0136869,0.228088,0.759285
1677,4,3.31144,-0.014643,0.228538,0.758701
1678,3,3.31093,-0.0134054,0.228538,0.75793