File: hust_correlation_analysis/matrices/HUST_3-3_cycle_feature_matrix.csv
cycle_number,rul,voltage,current,capacity,charge_capacity
1,1651,3.32206,0.0128107,0.267248,1.01121
3,1649,3.30346,-0.0275287,0.283239,0.983909
5,1647,3.30513,-0.0280498,0.282423,0.986931
7,1645,3.30692,-0.0283455,0.282218,0.990022
9,1643,3.30839,-0.0287336,0.28084,0.993001
11,1641,3.31086,-0.0257595,0.279041,0.995353
13,1639,3.31042,-0.0270353,0.279289,0.997416
15,1637,3.31187,-0.0253943,0.277858,0.998931
17,1635,3.31241,-0.024789,0.277416,0.999454
19,1633,3.31238,-0.0266995,0.277579,1.00123
21,1631,3.31347,-0.0258959,0.276991,1.00212
23,1629,3.31488,-0.025044,0.275844,1.00301
25,1627,3.31541,-0.0243179,0.275414,1.0036
27,1625,3.31562,-0.0243446,0.274986,1.00386
29,1623,3.31508,-0.0244235,0.27499,1.00385
31,1621,3.31615,-0.0242416,0.274408,1.00441
33,1619,3.31661,-0.0235524,0.273692,1.00495
35,1617,3.31712,-0.0234565,0.273255,1.00519
37,1615,3.31716,-0.0235815,0.273256,1.00514
39,1613,3.31708,-0.0234678,0.273398,1.00543
41,1611,3.31689,-0.023569,0.272824,1.00538
43,1609,3.31759,-0.023456,0.272405,1.00568
45,1607,3.3178,-0.0234571,0.272395,1.00567
47,1605,3.31776,-0.0234439,0.272395,1.00566
49,1603,3.31799,-0.0233332,0.271973,1.00596
51,1601,3.3174,-0.0241576,0.272389,1.00532
53,1599,3.31774,-0.0241145,0.27197,1.00559
55,1597,3.31774,-0.0240738,0.271965,1.00561
57,1595,3.31791,-0.0241526,0.27197,1.00558
59,1593,3.31736,-0.0259133,0.271965,1.00597
61,1591,3.31682,-0.0265954,0.272491,1.00546
63,1589,3.31738,-0.0255004,0.271968,1.00494
65,1587,3.31758,-0.0253101,0.271646,1.00528
67,1585,3.31711,-0.027193,0.27238,1.00518
69,1583,3.31709,-0.0278731,0.272378,1.00486
71,1581,3.31866,-0.0246027,0.270925,1.00451
73,1579,3.31866,-0.0252005,0.270923,1.00423
75,1577,3.31873,-0.0251865,0.270922,1.00424
77,1575,3.31896,-0.0252164,0.270923,1.00422
79,1573,3.31836,-0.0258999,0.270919,1.0039
81,1571,3.31787,-0.0266774,0.271344,1.00331
83,1569,3.31786,-0.0267643,0.271441,1.00322
85,1567,3.31844,-0.0254915,0.270515,1.00314
87,1565,3.31807,-0.0255293,0.270934,1.00289
89,1563,3.31795,-0.0261779,0.270934,1.00259
91,1561,3.31952,-0.0228485,0.269481,1.00226
93,1559,3.31909,-0.0236154,0.269895,1.00165
95,1557,3.31932,-0.0252683,0.269895,1.00215
97,1555,3.31902,-0.0253094,0.270585,1.00188
99,1553,3.31882,-0.0260237,0.270308,1.00154
101,1551,3.31848,-0.02602,0.270302,1.00152
103,1549,3.3182,-0.0268089,0.270724,1.00091
105,1547,3.31858,-0.0265904,0.270302,1.00126
107,1545,3.31825,-0.0267258,0.270728,1.00098
109,1543,3.31816,-0.0274309,0.270737,1.00068
111,1541,3.31759,-0.0264373,0.270739,0.999899
113,1539,3.31729,-0.026416,0.270741,0.999919
115,1537,3.31974,-0.0237248,0.269286,0.999306
117,1535,3.3196,-0.0236383,0.269284,0.99934
119,1533,3.31941,-0.0235915,0.269381,0.99934
121,1531,3.31917,-0.0242786,0.269274,0.99901
123,1529,3.31819,-0.0261987,0.269573,0.998879
125,1527,3.31822,-0.0262546,0.270117,0.998874
127,1525,3.31852,-0.0267599,0.270114,0.99864
129,1523,3.31813,-0.0269226,0.270534,0.998303
131,1521,3.3178,-0.0275738,0.270805,0.997995
133,1519,3.31751,-0.0276151,0.270537,0.997985
135,1517,3.31782,-0.0258461,0.270119,0.997815
137,1515,3.31782,-0.0264746,0.270122,0.997536
139,1513,3.31957,-0.0231307,0.269086,0.996974
141,1511,3.31944,-0.0237423,0.269086,0.996702
143,1509,3.3189,-0.0237764,0.269085,0.996678
145,1507,3.3184,-0.0245534,0.269505,0.996069
147,1505,3.31845,-0.0246092,0.269505,0.996048
149,1503,3.3185,-0.0245671,0.269503,0.99606
151,1501,3.31804,-0.025281,0.269923,0.995476
153,1499,3.31763,-0.0270993,0.270348,0.995651
155,1497,3.31723,-0.0271031,0.270341,0.995631
157,1495,3.31735,-0.0276784,0.270337,0.995352
159,1493,3.31767,-0.0277489,0.27034,0.995335
161,1491,3.31722,-0.0278211,0.270772,0.995075
163,1489,3.31711,-0.0266453,0.270353,0.99462
165,1487,3.31908,-0.0233274,0.268893,0.994293
167,1485,3.31835,-0.0240167,0.269322,0.993746
169,1483,3.31823,-0.024069,0.269325,0.993731
171,1481,3.31862,-0.0246291,0.269323,0.993481
173,1479,3.31813,-0.0247566,0.270094,0.993158
175,1477,3.31801,-0.0246161,0.269318,0.993468
177,1475,3.31752,-0.0253948,0.269495,0.992858
179,1473,3.31745,-0.0253846,0.26974,0.992853
181,1471,3.3174,-0.0254476,0.269743,0.992838
183,1469,3.31788,-0.0260344,0.269742,0.992576
185,1467,3.31713,-0.0261642,0.270524,0.992276
187,1465,3.31689,-0.0261871,0.270173,0.992267
189,1463,3.31629,-0.026959,0.270606,0.991685
191,1461,3.3162,-0.0269468,0.27061,0.9917
193,1459,3.31852,-0.0241427,0.269142,0.991122
195,1457,3.31806,-0.0241637,0.26957,0.990861
197,1455,3.31793,-0.0241944,0.269569,0.99084
199,1453,3.31774,-0.0249088,0.269569,0.990522
201,1451,3.31738,-0.0249027,0.269569,0.990522
203,1449,3.31719,-0.0248447,0.269568,0.990545
205,1447,3.31702,-0.0255998,0.269997,0.989967
207,1445,3.31719,-0.0255623,0.269994,0.989962
209,1443,3.31696,-0.0256262,0.269999,0.989949
211,1441,3.31641,-0.026412,0.270426,0.989343
213,1439,3.31612,-0.0263481,0.270999,0.989363
215,1437,3.31606,-0.0263684,0.270698,0.989179
217,1435,3.31655,-0.0263202,0.269993,0.989625
219,1433,3.31635,-0.0270558,0.270427,0.989049
221,1431,3.31551,-0.0271114,0.27086,0.988776
223,1429,3.31567,-0.0270009,0.270405,0.989016
225,1427,3.31702,-0.0238254,0.269132,0.988332
227,1425,3.3171,-0.0243421,0.269373,0.988116
229,1423,3.31708,-0.0243551,0.269372,0.988125
231,1421,3.31746,-0.024332,0.269374,0.988144
233,1419,3.31689,-0.0250588,0.269807,0.987554
235,1417,3.31656,-0.0250825,0.269807,0.987562
237,1415,3.31607,-0.0259729,0.270242,0.986911
239,1413,3.31591,-0.0258651,0.270239,0.986948
241,1411,3.31595,-0.0258897,0.270241,0.986941
243,1409,3.3167,-0.0257615,0.270157,0.985855
245,1407,3.31566,-0.02661,0.270678,0.986373
247,1405,3.31572,-0.0265001,0.270244,0.98668
249,1403,3.3153,-0.0273922,0.27068,0.986041
251,1401,3.3148,-0.0272996,0.270676,0.986073
253,1399,3.31478,-0.0272711,0.270676,0.986081
255,1397,3.31498,-0.027341,0.270674,0.98605
257,1395,3.31732,-0.0244619,0.269186,0.985447
259,1393,3.31667,-0.0245422,0.26962,0.985153
261,1391,3.31699,-0.0244428,0.269176,0.985418
263,1389,3.31608,-0.0246111,0.269599,0.985054
265,1387,3.31586,-0.0263709,0.27003,0.985249
267,1385,3.31594,-0.026383,0.270022,0.985201
269,1383,3.31602,-0.0270921,0.270022,0.984888
271,1381,3.31595,-0.0269952,0.270441,0.98464
273,1379,3.31522,-0.027228,0.270454,0.984548
275,1377,3.31475,-0.0277186,0.270865,0.983983
277,1375,3.3143,-0.0271659,0.270863,0.984196
279,1373,3.31474,-0.0276239,0.270867,0.984049
281,1371,3.31422,-0.0281989,0.270889,0.983634
283,1369,3.3148,-0.028689,0.270885,0.983613
285,1367,3.3145,-0.0286783,0.270888,0.983627
287,1365,3.31426,-0.0287171,0.270884,0.983606
289,1363,3.31372,-0.0295001,0.271325,0.983006
291,1361,3.31335,-0.0295298,0.271326,0.982995
293,1359,3.31325,-0.0294745,0.271324,0.983022
295,1357,3.31611,-0.0258028,0.269394,0.983023
297,1355,3.3157,-0.0265579,0.26983,0.982425
299,1353,3.31553,-0.0265069,0.269831,0.982454
301,1351,3.31491,-0.0274727,0.270285,0.981828
303,1349,3.31466,-0.0274976,0.270288,0.981847
305,1347,3.31515,-0.0272536,0.269851,0.982224
307,1345,3.31467,-0.0280225,0.270293,0.981643
309,1343,3.31478,-0.0280306,0.270292,0.981448
311,1341,3.31511,-0.0280753,0.270291,0.981608
313,1339,3.31431,-0.0288504,0.270728,0.981006
315,1337,3.31442,-0.0287226,0.270285,0.981303
317,1335,3.31354,-0.0289097,0.270726,0.980967
319,1333,3.31373,-0.0295892,0.270723,0.980653
321,1331,3.31365,-0.0295521,0.270719,0.980661
323,1329,3.31367,-0.0295879,0.270716,0.98064
325,1327,3.31364,-0.0295725,0.270718,0.980639
327,1325,3.31555,-0.0268723,0.269674,0.979729
329,1323,3.31563,-0.0265496,0.269235,0.980159
331,1321,3.31453,-0.027602,0.270125,0.979214
333,1319,3.31492,-0.02745,0.269686,0.979551
335,1317,3.31485,-0.0275205,0.269687,0.979527
337,1315,3.31501,-0.0280856,0.269684,0.979501
339,1313,3.31507,-0.0280692,0.269679,0.979269
341,1311,3.31434,-0.0281945,0.270119,0.97894
343,1309,3.31435,-0.0283237,0.270117,0.978889
345,1307,3.31407,-0.0289262,0.270116,0.978611
347,1305,3.31338,-0.0290342,0.270558,0.978305
349,1303,3.31341,-0.0290692,0.271133,0.978266
351,1301,3.31394,-0.0289364,0.270107,0.978583
353,1299,3.31352,-0.0297352,0.270552,0.977979
355,1297,3.31333,-0.0297664,0.270558,0.977979
357,1295,3.31487,-0.0269813,0.269509,0.977107
359,1293,3.31527,-0.0268538,0.269067,0.977426
361,1291,3.31448,-0.0269829,0.269514,0.977124
363,1289,3.31445,-0.027556,0.269514,0.976874
365,1287,3.3146,-0.0276453,0.269514,0.976836
367,1285,3.31453,-0.0276512,0.269512,0.976847
369,1283,3.31491,-0.0280568,0.269511,0.976652
371,1281,3.31428,-0.028375,0.270535,0.976255
373,1279,3.31387,-0.028394,0.269955,0.976244
375,1277,3.31377,-0.0285081,0.269953,0.976193
377,1275,3.31293,-0.0292686,0.270395,0.975594
379,1273,3.31336,-0.0290179,0.269949,0.97595
381,1271,3.31331,-0.0291395,0.26995,0.975903
383,1269,3.3131,-0.0299398,0.26989,0.975316
385,1267,3.3132,-0.0300261,0.270402,0.975293
387,1265,3.31534,-0.024392,0.268462,0.974913
389,1263,3.31479,-0.0252487,0.268912,0.974307
391,1261,3.31468,-0.0253173,0.268912,0.974276
393,1259,3.31428,-0.0252782,0.268911,0.974293
395,1257,3.31436,-0.0259459,0.268909,0.974
397,1255,3.31436,-0.0259223,0.268908,0.974005
399,1253,3.31429,-0.0259316,0.268905,0.973992
401,1251,3.31444,-0.0278064,0.269347,0.974148
403,1249,3.31362,-0.0285318,0.269791,0.973583
405,1247,3.31391,-0.0284089,0.269618,0.973881
407,1245,3.31319,-0.0286106,0.269791,0.97353
409,1243,3.31273,-0.0294674,0.270238,0.972903
411,1241,3.31315,-0.0293331,0.269793,0.973222
413,1239,3.31334,-0.0274468,0.269352,0.973083
415,1237,3.31282,-0.0282017,0.269802,0.972519
417,1235,3.31301,-0.0282136,0.269806,0.972524
419,1233,3.31465,-0.0253892,0.26875,0.971627
421,1231,3.31487,-0.0252222,0.2683,0.971951
423,1229,3.31404,-0.0253819,0.268747,0.971621
425,1227,3.31399,-0.0254153,0.268749,0.971605
427,1225,3.31416,-0.0261046,0.269331,0.971311
429,1223,3.31395,-0.0261095,0.268749,0.97132
431,1221,3.31399,-0.0260969,0.268746,0.971322
433,1219,3.31369,-0.0268295,0.269542,0.970735
435,1217,3.3135,-0.0269104,0.269191,0.970692
437,1215,3.3132,-0.0269102,0.269189,0.970689
439,1213,3.31294,-0.0269472,0.269189,0.970674
441,1211,3.31246,-0.0277401,0.269649,0.968592
443,1209,3.3123,-0.0276836,0.269924,0.970138
445,1207,3.3125,-0.0284041,0.269652,0.969834
447,1205,3.31262,-0.0284357,0.269655,0.969845
449,1203,3.31244,-0.0283946,0.269657,0.969865
451,1201,3.31471,-0.0246721,0.267937,0.969578
453,1199,3.31419,-0.0255415,0.268596,0.96895
455,1197,3.31377,-0.0255891,0.268596,0.968941
457,1195,3.31357,-0.0255673,0.26859,0.968924
459,1193,3.31329,-0.0255828,0.26858,0.967462
461,1191,3.31332,-0.0261778,0.26858,0.968878
463,1189,3.3135,-0.0262404,0.268581,0.968606
465,1187,3.31333,-0.0262413,0.268577,0.968598
467,1185,3.31319,-0.02699,0.269028,0.968019
469,1183,3.31281,-0.02708,0.269035,0.967991
471,1181,3.31289,-0.0270417,0.269043,0.968047
473,1179,3.31221,-0.0279151,0.2695,0.967432
475,1177,3.3119,-0.0279271,0.269501,0.967426
477,1175,3.31207,-0.0286257,0.269509,0.967154
479,1173,3.31184,-0.0285654,0.269509,0.96719
481,1171,3.31184,-0.0284561,0.269513,0.967249
483,1169,3.31381,-0.0256944,0.268451,0.966303
485,1167,3.31427,-0.0255232,0.267994,0.966627
487,1165,3.31367,-0.0256822,0.268447,0.966284
489,1163,3.3134,-0.0256388,0.268441,0.966296
491,1161,3.31337,-0.0263831,0.268437,0.965964
493,1159,3.31256,-0.0265605,0.268888,0.965618
495,1157,3.31219,-0.0265711,0.268886,0.965592
497,1155,3.31252,-0.0272431,0.268882,0.965306
499,1153,3.3123,-0.0272772,0.268888,0.963835
501,1151,3.31248,-0.0272096,0.268895,0.96538
503,1149,3.31245,-0.0278497,0.268896,0.965106
505,1147,3.31195,-0.0280172,0.26936,0.964808
507,1145,3.312,-0.0287336,0.269718,0.964519
509,1143,3.31165,-0.0286702,0.269355,0.964514
511,1141,3.31149,-0.0287359,0.269347,0.964469
513,1139,3.31111,-0.0287629,0.269336,0.964407
515,1137,3.31083,-0.0287678,0.269336,0.964395
517,1135,3.31278,-0.0258685,0.268262,0.963471
519,1133,3.3125,-0.0258911,0.268262,0.963461
521,1131,3.31307,-0.0257764,0.267803,0.963771
523,1129,3.31307,-0.0257606,0.267897,0.963765
525,1127,3.31246,-0.0264973,0.268256,0.963182
527,1125,3.31245,-0.0265442,0.268254,0.963153
529,1123,3.31246,-0.0266555,0.268268,0.963145
531,1121,3.31186,-0.0273832,0.26872,0.962576
533,1119,3.31145,-0.0274502,0.268713,0.962529
535,1117,3.31143,-0.0274562,0.268715,0.962534
537,1115,3.31127,-0.0281279,0.268812,0.962253
539,1113,3.31116,-0.0281138,0.268712,0.962253
541,1111,3.31105,-0.0281242,0.268709,0.962231
543,1109,3.31084,-0.0290128,0.269168,0.961611
545,1107,3.31096,-0.0289687,0.269265,0.961615
547,1105,3.31058,-0.0289762,0.269166,0.96161
549,1103,3.31295,-0.0259225,0.267639,0.961021
551,1101,3.31252,-0.0259627,0.267636,0.960998
553,1099,3.31157,-0.0261412,0.268094,0.960653
555,1097,3.31172,-0.0268191,0.268093,0.960364
557,1095,3.31136,-0.0268038,0.268094,0.960371
559,1093,3.31158,-0.0268469,0.268099,0.960387
561,1091,3.31122,-0.0277321,0.268567,0.959775
563,1089,3.31177,-0.0275708,0.268113,0.96013
565,1087,3.3115,-0.0283296,0.268574,0.959558
567,1085,3.31119,-0.0282967,0.269159,0.959561
569,1083,3.3111,-0.0283425,0.268568,0.95953
571,1081,3.31085,-0.0283845,0.268566,0.959511
573,1079,3.31019,-0.0291993,0.269024,0.958895
575,1077,3.30981,-0.0292234,0.269025,0.958881
577,1075,3.31203,-0.0254293,0.267488,0.958577
579,1073,3.31195,-0.0261431,0.267484,0.958268
581,1071,3.311775,-0.0261458,0.267485,0.958269
583,1069,3.31189,-0.0262302,0.267485,0.95824
585,1067,3.31184,-0.0269176,0.267484,0.957961
587,1065,3.31152,-0.027104,0.267957,0.957464
589,1063,3.31143,-0.0270742,0.268231,0.957683
591,1061,3.31152,-0.0276961,0.267966,0.957434
593,1059,3.31151,-0.027691,0.267968,0.957443
595,1057,3.31072,-0.0285448,0.268434,0.956831
597,1055,3.31047,-0.0285863,0.268427,0.956805
599,1053,3.31003,-0.0285811,0.268427,0.956806
601,1051,3.30965,-0.0294712,0.268884,0.956146
603,1049,3.30979,-0.0293155,0.268416,0.956461
605,1047,3.30981,-0.029122,0.268766,0.956538
607,1045,3.31202,-0.0255602,0.266869,0.956113
609,1043,3.31164,-0.0263483,0.26733,0.955525
611,1041,3.3115,-0.0263136,0.267329,0.955531
613,1039,3.31147,-0.0263494,0.267328,0.955511
615,1037,3.31089,-0.0272404,0.267793,0.954872
617,1035,3.31114,-0.0270506,0.267329,0.954987
619,1033,3.3109,-0.0279667,0.267805,0.954625
621,1031,3.31043,-0.0280107,0.267811,0.954633
623,1029,3.31015,-0.0287777,0.26828,0.954056
625,1027,3.30969,-0.0287579,0.268284,0.954084
627,1025,3.30949,-0.0287748,0.268382,0.954091
629,1023,3.3096,-0.0295079,0.268277,0.953757
631,1021,3.30933,-0.0295076,0.268272,0.953737
633,1019,3.30951,-0.0296021,0.268269,0.953694
635,1017,3.3117,-0.0257739,0.266707,0.953382
637,1015,3.31187,-0.0264586,0.266723,0.953092
639,1013,3.31153,-0.0264511,0.266722,0.953092
641,1011,3.31108,-0.0272473,0.267186,0.952497
643,1009,3.31073,-0.0272716,0.267182,0.952477
645,1007,3.31034,-0.0272996,0.267184,0.952472
647,1005,3.31011,-0.0283224,0.267933,0.951822
649,1003,3.30975,-0.0282252,0.26767,0.951887
651,1001,3.30943,-0.0290567,0.268149,0.951314
653,999,3.30962,-0.0289016,0.267679,0.951649
655,997,3.30931,-0.0297359,0.268154,0.951061
657,995,3.30902,-0.0297186,0.268153,0.951074
659,993,3.31185,-0.0258254,0.266133,0.951043
661,991,3.31139,-0.0266982,0.266601,0.950427
663,989,3.31161,-0.0266013,0.266603,0.950461
665,987,3.31128,-0.0265818,0.2666,0.950457
667,985,3.31067,-0.0274576,0.267068,0.949829
669,983,3.31045,-0.0274278,0.267069,0.94985
671,981,3.31013,-0.0274946,0.267066,0.949817
673,979,3.30972,-0.0284264,0.267535,0.949166
675,977,3.30922,-0.0284344,0.267539,0.949176
677,975,3.30957,-0.0291823,0.267541,0.948875
679,973,3.30907,-0.029153,0.267547,0.948899
681,971,3.30888,-0.0290863,0.268138,0.948935
683,969,3.30841,-0.0299758,0.268018,0.948311
685,967,3.30836,-0.0299685,0.26802,0.948324
687,965,3.3108,-0.0269,0.266467,0.947699
689,963,3.31071,-0.0268367,0.266466,0.947723
691,961,3.31064,-0.026852,0.266561,0.94772
693,959,3.3101,-0.0277023,0.266937,0.947098
695,957,3.30995,-0.0277652,0.266939,0.947079
697,955,3.30979,-0.028443,0.266941,0.946805
699,953,3.30966,-0.0284786,0.266937,0.946788
701,951,3.30942,-0.0285174,0.266934,0.946774
703,949,3.3088,-0.0293896,0.267408,0.946146
705,947,3.30839,-0.029368,0.267501,0.946147
707,945,3.30843,-0.0293729,0.267404,0.946142
709,943,3.30814,-0.0301386,0.267505,0.945852
711,941,3.30811,-0.0301038,0.267407,0.945855
713,939,3.31036,-0.0262765,0.265848,0.945525
715,937,3.31057,-0.0269059,0.265848,0.945266
717,935,3.31032,-0.0268535,0.265844,0.94528
719,933,3.31004,-0.0277847,0.266316,0.944639
721,931,3.30981,-0.0278381,0.266315,0.944612
723,929,3.30966,-0.0278267,0.266315,0.944601
725,927,3.30919,-0.028722,0.266791,0.943978
727,925,3.30941,-0.028565,0.266313,0.944304
729,923,3.30895,-0.0294844,0.266783,0.943657
731,921,3.30838,-0.0294696,0.266783,0.94366
733,919,3.30832,-0.0295264,0.266782,0.943629
735,917,3.30794,-0.0294955,0.266781,0.943635
737,915,3.30742,-0.0304393,0.267257,0.942988
739,913,3.30717,-0.0304074,0.267257,0.942997
741,911,3.30981,-0.0272274,0.265692,0.942389
743,909,3.30941,-0.0272514,0.265693,0.942387
745,907,3.30962,-0.0280031,0.265696,0.942109
747,905,3.30947,-0.0279957,0.265963,0.9421
749,903,3.30958,-0.0280093,0.265698,0.94211
751,901,3.30959,-0.0286767,0.265692,0.941829
753,899,3.30901,-0.0288679,0.266169,0.941473
755,897,3.30881,-0.0295718,0.266167,0.941182
757,895,3.30841,-0.0295888,0.266167,0.941179
759,893,3.3082,-0.0294649,0.266161,0.94122
761,891,3.30764,-0.0305093,0.266641,0.940533
763,889,3.30735,-0.0305645,0.266732,0.940499
765,887,3.30948,-0.0266052,0.265069,0.940196
767,885,3.30944,-0.0273053,0.265067,0.939907
769,883,3.30905,-0.0272882,0.265066,0.939906
771,881,3.30882,-0.0282003,0.265551,0.939298
773,879,3.30837,-0.0282817,0.266145,0.939268
775,877,3.30878,-0.0290527,0.265553,0.93897
777,875,3.30854,-0.0290094,0.265554,0.939009
779,873,3.30879,-0.0289862,0.265558,0.939027
781,871,3.30798,-0.0297909,0.266034,0.938425
783,869,3.30791,-0.0298806,0.266034,0.938392
785,867,3.3078,-0.0306043,0.266034,0.938103
787,865,3.31021,-0.0266875,0.264459,0.93776
789,863,3.30949,-0.0275237,0.264936,0.935752
791,861,3.30915,-0.0276143,0.264935,0.937112
793,859,3.30911,-0.0283455,0.264934,0.936824
795,857,3.30888,-0.0283913,0.264935,0.936802
797,855,3.3085,-0.0283658,0.265531,0.936816
799,853,3.30817,-0.0292736,0.265416,0.936183
801,851,3.30761,-0.0292303,0.265417,0.936201
803,849,3.30761,-0.0300387,0.265421,0.935901
805,847,3.3075,-0.029996,0.265779,0.935936
807,845,3.30716,-0.0308914,0.26591,0.935318
809,843,3.30687,-0.0309302,0.265911,0.93531
811,841,3.30991,-0.0267709,0.263846,0.935323
813,839,3.30933,-0.0277102,0.264334,0.934698
815,837,3.30938,-0.0276909,0.264333,0.934707
817,835,3.30865,-0.0285885,0.264815,0.934067
819,833,3.30861,-0.0285848,0.264814,0.934066
821,831,3.30841,-0.0292883,0.264812,0.93379
823,829,3.30817,-0.0293621,0.264811,0.93376
825,827,3.30748,-0.0303428,0.265295,0.933101
827,825,3.3072,-0.0303964,0.265292,0.933072
829,823,3.30678,-0.0303562,0.265289,0.933073
831,821,3.30694,-0.0310409,0.265556,0.932805
833,819,3.3064,-0.0310324,0.265272,0.932751
835,817,3.30619,-0.0310401,0.265271,0.932741
837,815,3.30798,-0.0278859,0.26417,0.931814
839,813,3.30796,-0.0280352,0.264173,0.931758
841,811,3.30836,-0.0279071,0.263687,0.932085
843,809,3.30794,-0.0287658,0.264169,0.931472
845,807,3.30796,-0.0294847,0.264183,0.931243
847,805,3.30779,-0.0294321,0.264185,0.931266
849,803,3.30742,-0.030342,0.264664,0.930621
851,801,3.30716,-0.0304043,0.264933,0.930591
853,799,3.30715,-0.0310249,0.264666,0.93035
855,797,3.30686,-0.0311185,0.264664,0.930302
857,795,3.30888,-0.0271454,0.263073,0.929954
859,793,3.30826,-0.0280616,0.263557,0.929321
861,791,3.30801,-0.0281038,0.263557,0.929309
863,789,3.30745,-0.0290731,0.264043,0.928634
865,787,3.30704,-0.0289757,0.264032,0.928647
867,785,3.30673,-0.0290781,0.264045,0.928644
869,783,3.30679,-0.0297139,0.264044,0.928399
871,781,3.30669,-0.029755,0.264044,0.928389
873,779,3.30676,-0.0305436,0.264046,0.92808
875,777,3.3066,-0.0305611,0.26411,0.928079
877,775,3.306615,-0.0313096,0.264057,0.927841
879,773,3.30887,-0.0273047,0.262467,0.927502
881,771,3.30841,-0.0281378,0.262952,0.926892
883,769,3.30841,-0.0281644,0.262879,0.926874
885,767,3.30788,-0.0291303,0.263442,0.926227
887,765,3.3076,-0.0291204,0.263435,0.926224
889,763,3.30741,-0.0298792,0.2637,0.925914
891,761,3.30694,-0.0298919,0.26343,0.925896
893,759,3.30656,-0.030743,0.263921,0.925297
895,757,3.30629,-0.0307543,0.263923,0.925297
897,755,3.30583,-0.0308574,0.263911,0.925221
899,753,3.30548,-0.0316087,0.26391,0.924918
901,751,3.30531,-0.0316124,0.263912,0.924928
903,749,3.30726,-0.028484,0.262806,0.923961
905,747,3.30713,-0.0285202,0.262811,0.923972
907,745,3.30707,-0.0291354,0.2628,0.923719
909,743,3.30697,-0.029243,0.262806,0.923688
911,741,3.30698,-0.0300394,0.262805,0.923374
913,739,3.30688,-0.030075,0.262805,0.923361
915,737,3.30643,-0.0308954,0.263293,0.922753
917,735,3.30608,-0.0308962,0.263283,0.922726
919,733,3.30603,-0.0309741,0.263548,0.922685
921,731,3.30569,-0.0316575,0.263278,0.922409
923,729,3.30818,-0.0277169,0.261675,0.922023
925,727,3.30736,-0.0285743,0.262167,0.921407
927,725,3.30724,-0.029401,0.262168,0.921096
929,723,3.30677,-0.0293538,0.262169,0.921123
931,721,3.30636,-0.0305537,0.262681,0.920449
933,719,3.30609,-0.0303118,0.262674,0.920519
935,717,3.30531,-0.0312277,0.263181,0.919926
937,715,3.30579,-0.0310807,0.262777,0.920282
939,713,3.30495,-0.0320215,0.263187,0.919636
941,711,3.30742,-0.0279606,0.261563,0.919249
943,709,3.30728,-0.0287589,0.261563,0.918938
945,707,3.3073,-0.0287984,0.261562,0.918924
947,705,3.30642,-0.0296685,0.262056,0.918309
949,703,3.30684,-0.0293941,0.261553,0.918677
951,701,3.30645,-0.0304747,0.262048,0.91798
953,699,3.30629,-0.0304372,0.262042,0.917977
955,697,3.3057,-0.0313781,0.262539,0.917327
957,695,3.30523,-0.03137,0.262805,0.917333
959,693,3.3053,-0.032186,0.262544,0.917044
961,691,3.30747,-0.0280891,0.260929,0.916692
963,689,3.30683,-0.0291406,0.261527,0.916057
965,687,3.30663,-0.0298496,0.26144,0.915792
967,685,3.30624,-0.0298295,0.261445,0.915804
969,683,3.30565,-0.0307662,0.261951,0.915191
971,681,3.30541,-0.0305302,0.261941,0.915265
973,679,3.30528,-0.0316199,0.261946,0.91353
975,677,3.30501,-0.031556,0.261941,0.914882
977,675,3.30437,-0.0324628,0.262445,0.914259
979,673,3.30731,-0.0281739,0.26032,0.914248
981,671,3.3069,-0.0291669,0.260819,0.913581
983,669,3.3065,-0.0291856,0.260816,0.913581
985,667,3.30649,-0.0299247,0.260813,0.913287
987,665,3.30645,-0.0299011,0.26081,0.913284
989,663,3.30583,-0.0308453,0.261311,0.912638
991,661,3.30571,-0.0316415,0.261665,0.912343
993,659,3.30531,-0.0315673,0.261043,0.912378
995,657,3.30465,-0.0326232,0.261824,0.911719
997,655,3.30687,-0.0284705,0.260196,0.911376
999,653,3.30675,-0.0293039,0.260201,0.91107
1001,651,3.30598,-0.0302572,0.260702,0.910421
1003,649,3.30559,-0.0302693,0.260704,0.910659
1005,647,3.30505,-0.0311504,0.261208,0.909809
1007,645,3.30521,-0.0309989,0.26131,0.910154
1009,643,3.30454,-0.032042,0.261209,0.909478
1011,641,3.30416,-0.0319942,0.261206,0.909494
1013,639,3.30425,-0.0328085,0.261205,0.909181
1015,637,3.30394,-0.0327527,0.261198,0.90918
1017,635,3.30586,-0.029507,0.260071,0.908196
1019,633,3.3058,-0.0295489,0.260073,0.908184
1021,631,3.3056,-0.030344,0.260069,0.907882
1023,629,3.30575,-0.0304004,0.260069,0.907861
1025,627,3.30485,-0.0312621,0.260835,0.907247
1027,625,3.30478,-0.0321533,0.260574,0.905612
1029,623,3.30446,-0.0320345,0.26057,0.906943
1031,621,3.3037,-0.0331071,0.26108,0.906268
1033,619,3.30665,-0.028707,0.258938,0.906276
1035,617,3.3056,-0.0297615,0.259451,0.905608
1037,615,3.30549,-0.0297336,0.259528,0.905612
1039,613,3.30463,-0.0307279,0.259664,0.90494
1041,611,3.30456,-0.0315081,0.259949,0.904643
1043,609,3.30419,-0.0314339,0.25995,0.904689
1045,607,3.30339,-0.032464,0.260462,0.904022
1047,605,3.30327,-0.0324597,0.260807,0.90401
1049,603,3.30297,-0.0332775,0.260449,0.903682
1051,601,3.30532,-0.0290316,0.258807,0.903331
1053,599,3.30528,-0.0298066,0.258804,0.903032
1055,597,3.3047,-0.0309022,0.259314,0.90235
1057,595,3.30448,-0.0308927,0.259314,0.902352
1059,593,3.30439,-0.0315676,0.259298,0.902066
1061,591,3.30411,-0.031693,0.259297,0.902001
1063,589,3.30355,-0.0326258,0.259809,0.901371
1065,587,3.30334,-0.0327384,0.259826,0.901371
1067,585,3.30302,-0.0334887,0.259821,0.901093
1069,583,3.30478,-0.0301531,0.258687,0.900119
1071,581,3.30459,-0.0301742,0.258686,0.900109
1073,579,3.30443,-0.0309612,0.258239,0.8998
1075,577,3.30359,-0.0320123,0.259208,0.899172
1077,575,3.30325,-0.0320002,0.259204,0.899161
1079,573,3.30299,-0.0327723,0.2592,0.898861
1081,571,3.30282,-0.0327334,0.259194,0.898867
1083,569,3.30185,-0.0337545,0.259712,0.898201
1085,567,3.30423,-0.029498,0.258053,0.897824
1087,565,3.30428,-0.0303084,0.258054,0.897531
1089,563,3.30417,-0.0311478,0.258054,0.897223
1091,561,3.30399,-0.0311183,0.258048,0.89722
1093,559,3.30327,-0.0321305,0.259177,0.896574
1095,557,3.3032,-0.0328986,0.258562,0.896277
1097,555,3.30306,-0.032927,0.258573,0.896304
1099,553,3.30495,-0.029702,0.257441,0.895283
1101,551,3.30415,-0.0306851,0.257964,0.894656
1103,549,3.30432,-0.03138,0.257973,0.894435
1105,547,3.30379,-0.0322955,0.257967,0.894087
1107,545,3.30346,-0.0322842,0.257957,0.894063
1109,543,3.30259,-0.0332713,0.25847,0.893384
1111,541,3.30231,-0.0332797,0.258473,0.893402
1113,539,3.3019,-0.034118,0.258473,0.893089
1115,537,3.30416,-0.0297735,0.256804,0.89272
1117,535,3.30338,-0.0307766,0.257323,0.892053
1119,533,3.30345,-0.0315616,0.257316,0.891751
1121,531,3.30299,-0.0316304,0.257314,0.891962
1123,529,3.30221,-0.0326635,0.257837,0.891059
1125,527,3.3023,-0.0334483,0.257832,0.890766
1127,525,3.30182,-0.0334551,0.257831,0.89077
1129,523,3.30181,-0.0343099,0.257765,0.890439
1131,521,3.30412,-0.0299664,0.256148,0.890035
1133,519,3.30369,-0.0309101,0.256681,0.889443
1135,517,3.30357,-0.0317611,0.256691,0.889162
1137,515,3.30267,-0.0327928,0.257216,0.888513
1139,513,3.30199,-0.0338108,0.257743,0.88786
1141,511,3.30231,-0.0335667,0.257215,0.888239
1143,509,3.30103,-0.0346643,0.257743,0.887557
1145,507,3.30366,-0.0311463,0.256063,0.886873
1147,505,3.30334,-0.0310672,0.256405,0.886869
1149,503,3.30225,-0.0321036,0.256582,0.886202
1151,501,3.30206,-0.032114,0.256579,0.886195
1153,499,3.30185,-0.0329885,0.256581,0.885888
1155,497,3.30109,-0.0339612,0.257454,0.885221
1157,495,3.3009,-0.0340075,0.257103,0.885221
1159,493,3.30046,-0.0348617,0.257101,0.884903
1161,491,3.30258,-0.031419,0.255942,0.883879
1163,489,3.3025,-0.0322669,0.255942,0.883585
1165,487,3.30199,-0.0321889,0.255934,0.882345
1167,485,3.30211,-0.0331609,0.255935,0.883245
1169,483,3.30141,-0.0341636,0.256467,0.882592
1171,481,3.30038,-0.0352172,0.257002,0.881935
1173,479,3.30281,-0.0306806,0.25531,0.881589
1175,477,3.30266,-0.0315323,0.255304,0.881268
1177,475,3.30142,-0.0326449,0.255835,0.880578
1179,473,3.3014,-0.033584,0.255845,0.880278
1181,471,3.30098,-0.0334591,0.255844,0.880325
1183,469,3.30064,-0.0343747,0.255845,0.880011
1185,467,3.2996,-0.0353649,0.256379,0.879355
1187,465,3.30222,-0.030857,0.254686,0.878987
1189,463,3.30193,-0.0317113,0.254684,0.878701
1191,461,3.3012,-0.0327975,0.255216,0.878016
1193,459,3.30083,-0.0335831,0.255214,0.877735
1195,457,3.30041,-0.0347752,0.255751,0.877259
1197,455,3.30055,-0.0345589,0.255214,0.877403
1199,453,3.29976,-0.0355364,0.25575,0.876761
1201,451,3.30238,-0.0319118,0.254052,0.876086
1203,449,3.30163,-0.032994,0.254589,0.875405
1205,447,3.30143,-0.0337211,0.255207,0.875154
1207,445,3.30115,-0.0337997,0.25459,0.875131
1209,443,3.30015,-0.0349204,0.255131,0.874452
1211,441,3.30251,-0.031128,0.253678,0.873823
1213,439,3.30164,-0.0322361,0.253963,0.873126
1215,437,3.30144,-0.03315,0.253958,0.872798
1217,435,3.3009,-0.0331669,0.253956,0.872789
1219,433,3.30001,-0.0342012,0.254492,0.872118
1221,431,3.29962,-0.034959,0.254489,0.871832
1223,429,3.29885,-0.0361555,0.255029,0.871117
1225,427,3.30106,-0.0315323,0.253304,0.870728
1227,425,3.30082,-0.0323551,0.253305,0.870433
1229,423,3.30006,-0.033533,0.253848,0.869721
1231,421,3.29968,-0.0343976,0.253843,0.869416
1233,419,3.2994,-0.0343538,0.253841,0.869432
1235,417,3.29864,-0.0355108,0.254385,0.868728
1237,415,3.30106,-0.031758,0.252671,0.868072
1239,413,3.30091,-0.0326009,0.252675,0.8678
1241,411,3.29999,-0.0337589,0.253227,0.867128
1243,409,3.29992,-0.0345207,0.253227,0.866866
1245,407,3.29904,-0.0357721,0.253775,0.866138
1247,405,3.29865,-0.0366058,0.253776,0.865854
1249,403,3.30124,-0.0318627,0.252293,0.865504
1251,401,3.301,-0.032731,0.251836,0.865198
1253,399,3.30004,-0.0338573,0.252587,0.864498
1255,397,3.29991,-0.0347257,0.252575,0.864159
1257,395,3.29894,-0.0357573,0.253122,0.863495
1259,393,3.298375,-0.0358012,0.253115,0.86369
1261,391,3.30105,-0.0320547,0.251451,0.862745
1263,389,3.30015,-0.0330935,0.251924,0.86207
1265,387,3.29974,-0.0340893,0.251923,0.861733
1267,385,3.29886,-0.0351452,0.252471,0.861055
1269,383,3.29856,-0.0360242,0.252466,0.860974
1271,381,3.29735,-0.037137,0.253018,0.860047
1273,379,3.30003,-0.0333497,0.251276,0.859342
1275,377,3.2991,-0.0344035,0.251824,0.860011
1277,375,3.29883,-0.035365,0.251829,0.858356
1279,373,3.2979,-0.0363973,0.252382,0.85769
1281,371,3.29753,-0.0373652,0.25238,0.857355
1283,369,3.299975,-0.0326449,0.250636,0.856984
1285,367,3.29917,-0.0337102,0.251193,0.856312
1287,365,3.29867,-0.0344699,0.251189,0.856049
1289,363,3.29839,-0.0355638,0.251186,0.855675
1291,361,3.297556,-0.0366612,0.251742,0.854991
1293,359,3.29972,-0.0327084,0.249984,0.854307
1295,357,3.29895,-0.0339392,0.250538,0.853572
1297,355,3.2985,-0.0348061,0.250536,0.853267
1299,353,3.29758,-0.0359544,0.251092,0.85256
1301,351,3.29726,-0.0368416,0.251159,0.852254
1303,349,3.29609,-0.038026,0.251649,0.851542
1305,347,3.2988,-0.0341223,0.249885,0.850842
1307,345,3.29789,-0.0351966,0.250445,0.850157
1309,343,3.29741,-0.0361816,0.250441,0.850052
1311,341,3.29642,-0.0372935,0.251006,0.849135
1313,339,3.29585,-0.0382829,0.251005,0.848812
1315,337,3.29855,-0.0341104,0.249243,0.848216
1317,335,3.29765,-0.0354318,0.249814,0.847482
1319,333,3.29707,-0.0363933,0.249815,0.847172
1321,331,3.29625,-0.0375323,0.250385,0.84649
1323,329,3.29872,-0.0334932,0.248607,0.845818
1325,327,3.29758,-0.0346812,0.249173,0.845103
1327,325,3.29715,-0.0356083,0.249169,0.844784
1329,323,3.29594,-0.0367723,0.249737,0.84408
1331,321,3.29578,-0.0377619,0.249732,0.843736
1333,319,3.29741,-0.0338721,0.248586,0.842674
1335,317,3.2967,-0.034909,0.248513,0.84232
1337,315,3.29583,-0.0360158,0.249084,0.841621
1339,313,3.29547,-0.036978,0.249146,0.841299
1341,311,3.29455,-0.0381983,0.249653,0.840576
1343,309,3.29686,-0.0341045,0.247859,0.839888
1345,307,3.29662,-0.0351892,0.247858,0.839538
1347,305,3.29554,-0.0362641,0.248429,0.83908
1349,303,3.29467,-0.0384747,0.249002,0.837794
1351,301,3.29443,-0.03937,0.249005,0.837516
1353,299,3.29618,-0.0355619,0.247785,0.836411
1355,297,3.29653,-0.0338274,0.24721,0.836179
1357,295,3.2954,-0.0450177,0.247209,0.836132
1359,293,3.29461,-0.0471715,0.247786,0.834889
1361,291,3.29672,-0.0407044,0.245983,0.833837
1363,289,3.29607,-0.041661,0.245981,0.833534
1365,287,3.29503,-0.0427969,0.246559,0.832838
1367,285,3.29439,-0.0438525,0.246555,0.832502
1369,283,3.29331,-0.0450838,0.247135,0.831775
1371,281,3.29607,-0.0382602,0.244741,0.831128
1373,279,3.29493,-0.0394986,0.245662,0.830407
1375,277,3.29428,-0.0403652,0.245315,0.83012
1377,275,3.29355,-0.0389755,0.245308,0.82943
1379,273,3.29663,-0.0328019,0.242922,0.828586
1381,271,3.2951,-0.0447648,0.243496,0.827776
1383,269,3.29474,-0.045747,0.243494,0.82746
1385,267,3.29362,-0.0470179,0.244068,0.826728
1387,265,3.29665,-0.04017,0.241675,0.826082
1389,263,3.29605,-0.0396541,0.241675,0.825123
1391,261,3.29555,-0.040533,0.241672,0.82484
1393,259,3.29451,-0.0391579,0.241671,0.824155
1395,257,3.29712,-0.0349628,0.239856,0.823465
1397,255,3.29695,-0.0333566,0.239286,0.823179
1399,253,3.2958,-0.0353997,0.239854,0.822209
1401,251,3.29416,-0.0470512,0.240423,0.821525
1403,249,3.29378,-0.0376443,0.240421,0.82116
1405,247,3.29586,-0.0336441,0.239171,0.820295
1407,245,3.29484,-0.0451988,0.239168,0.819758
1409,243,3.29388,-0.0436472,0.239166,0.81912
1411,241,3.29317,-0.0431725,0.239165,0.818363
1413,239,3.29574,-0.0389263,0.237337,0.817442
1415,237,3.29546,-0.0400857,0.237338,0.817091
1417,235,3.29474,-0.0385096,0.237335,0.816464
1419,233,3.29407,-0.0380446,0.237335,0.815481
1421,231,3.29676,-0.0337766,0.235507,0.814794
1423,229,3.29591,-0.0452978,0.235504,0.814509
1425,227,3.29493,-0.0448843,0.235505,0.813518
1427,225,3.29361,-0.0460742,0.236071,0.812829
1429,223,3.29632,-0.0418392,0.234239,0.812131
1431,221,3.29483,-0.0431627,0.234802,0.811383
1433,219,3.29473,-0.0413454,0.234568,0.811148
1435,217,3.29321,-0.0426244,0.234803,0.810435
1437,215,3.29542,-0.0395763,0.233538,0.809039
1439,213,3.29516,-0.0378605,0.232968,0.808779
1441,211,3.29505,-0.0360916,0.232405,0.808537
1443,209,3.2939,-0.0383652,0.232968,0.807723
1445,207,3.2958,-0.0450046,0.231692,0.806424
1447,205,3.29538,-0.0433063,0.231127,0.806145
1449,203,3.29419,-0.045541,0.231689,0.80513
1451,201,3.2975,-0.0385244,0.229285,0.804474
1453,199,3.29637,-0.0368313,0.229283,0.803863
1455,197,3.29608,-0.0389566,0.229284,0.803225
1457,195,3.29504,-0.0373901,0.22928,0.802569
1459,193,3.29753,-0.0331679,0.228055,0.801837
1461,191,3.29559,-0.0371219,0.228554,0.801087
1463,189,3.29486,-0.0366712,0.228552,0.800092
1465,187,3.29374,-0.0484236,0.228597,0.799819
1467,185,3.29579,-0.044483,0.227255,0.798665
1469,183,3.29562,-0.0426273,0.226696,0.798439
1471,181,3.29501,-0.0421913,0.226695,0.797444
1473,179,3.29385,-0.0434419,0.227255,0.796744
1475,177,3.29681,-0.0363546,0.224845,0.796079
1477,175,3.29622,-0.0357483,0.224843,0.795133
1479,173,3.29524,-0.0476667,0.224844,0.794847
1481,171,3.29454,-0.0486703,0.224845,0.794556
1483,169,3.29691,-0.0427852,0.222996,0.793206
1485,167,3.29527,-0.0469424,0.224104,0.792427
1487,165,3.29443,-0.0479475,0.224103,0.792137
1489,163,3.29348,-0.0463497,0.224101,0.791478
1491,161,3.29551,-0.0432748,0.223412,0.79005
1493,159,3.29548,-0.0414993,0.222238,0.78979
1495,157,3.29423,-0.042748,0.222791,0.789079
1497,155,3.29387,-0.0394869,0.222232,0.788122
1499,153,3.29662,-0.0350949,0.220369,0.787422
1501,151,3.29578,-0.0471194,0.220366,0.787131
1503,149,3.29458,-0.0494207,0.220917,0.786119
1505,147,3.29684,-0.0424762,0.219052,0.785051
1507,145,3.29614,-0.0434944,0.219047,0.78474
1509,143,3.29497,-0.0447446,0.219639,0.784037
1511,141,3.29418,-0.0458331,0.219597,0.783715
1513,139,3.29332,-0.0452454,0.219596,0.782771
1515,137,3.29514,-0.0411843,0.218271,0.781609
1517,135,3.29515,-0.0391933,0.21772,0.781635
1519,133,3.29414,-0.0416924,0.21827,0.780339
1521,131,3.2974,-0.034415,0.215847,0.779687
1523,129,3.29571,-0.0478425,0.217003,0.778711
1525,127,3.2957,-0.0460471,0.215845,0.778447
1527,125,3.29379,-0.0501814,0.216942,0.777702
1529,123,3.29611,-0.0442275,0.215063,0.77631
1531,121,3.29522,-0.0452447,0.215061,0.776019
1533,119,3.2939,-0.0465681,0.215609,0.775297
1535,117,3.29335,-0.044681,0.215055,0.775049
1537,115,3.29611,-0.0386891,0.213169,0.773644
1539,113,3.29501,-0.0399924,0.213713,0.772927
1541,111,3.29493,-0.0382065,0.213165,0.772665
1543,109,3.29672,-0.0461925,0.211819,0.771283
1545,107,3.29654,-0.0443666,0.211583,0.771021
1547,105,3.29499,-0.0467323,0.211816,0.770001
1549,103,3.29359,-0.0480769,0.212965,0.769282
1551,101,3.29594,-0.0434966,0.210464,0.768584
1553,99,3.29524,-0.0429621,0.210461,0.767611
1555,97,3.29388,-0.0443069,0.211005,0.766886
1557,95,3.29374,-0.0425234,0.210455,0.766607
1559,93,3.29665,-0.03798,0.208561,0.765902
1561,91,3.29576,-0.048877,0.208558,0.76494
1563,89,3.29497,-0.0498342,0.208558,0.764684
1565,87,3.29403,-0.0492848,0.208556,0.763711
1567,85,3.29536,-0.0479265,0.207727,0.762516
1569,83,3.29501,-0.0461527,0.207182,0.762226
1571,81,3.29347,-0.0484187,0.20772,0.761242
1573,79,3.29598,-0.0412946,0.205816,0.760129
1575,77,3.2956,-0.0423452,0.205815,0.759843
1577,75,3.29528,-0.0389022,0.205275,0.759132
1579,73,3.29468,-0.0398758,0.205274,0.75864
1581,71,3.29644,-0.0481487,0.203903,0.757235
1583,69,3.29512,-0.0495904,0.204436,0.756488
1585,67,3.2942,-0.0506641,0.204431,0.756179
1587,65,3.2925,-0.0519305,0.204965,0.755484
1589,63,3.29466,-0.0488442,0.203586,0.753995
1591,61,3.29463,-0.0468991,0.20304,0.753749
1593,59,3.29381,-0.046317,0.203042,0.752789
1595,57,3.29735,-0.0387633,0.200587,0.752105
1597,55,3.29622,-0.0379398,0.200583,0.751202
1599,53,3.2956,-0.0392445,0.20058,0.750846
1601,51,3.2935,-0.0436092,0.201646,0.750074
1603,49,3.29583,-0.0361567,0.200314,0.748992
1605,47,3.29412,-0.0503571,0.200252,0.747996
1607,45,3.29437,-0.0485284,0.199718,0.747727
1609,43,3.297,-0.0421054,0.197789,0.746373
1611,41,3.29686,-0.0412588,0.197265,0.745848
1613,39,3.29497,-0.0457318,0.198324,0.745072
1615,37,3.2932,-0.0471242,0.198854,0.744351
1617,35,3.29615,-0.0423871,0.197512,0.743654
1619,33,3.29527,-0.0418379,0.196918,0.74268
1621,31,3.2955,-0.0399541,0.196386,0.742434
1623,29,3.29371,-0.0542221,0.196913,0.741452
1625,27,3.29702,-0.0465525,0.194444,0.740751
1627,25,3.29542,-0.0490068,0.194967,0.73974
1629,23,3.29374,-0.0504291,0.195488,0.739001
1631,21,3.29654,-0.0456055,0.193535,0.738279
1633,19,3.29507,-0.0471017,0.194649,0.737515
1635,17,3.29571,-0.0431775,0.193007,0.737041
1637,15,3.29474,-0.0425367,0.193001,0.736085
1639,13,3.29678,-0.0381212,0.191578,0.734917
1641,11,3.29508,-0.040535,0.192097,0.733918
1643,9,3.29416,-0.0416376,0.192089,0.733615
1645,7,3.29686,-0.0490292,0.190134,0.732879
1647,5,3.29608,-0.0484984,0.190411,0.7319
1649,3,3.29507,-0.0466627,0.190123,0.731238