File: hust_correlation_analysis/matrices/HUST_10-1_cycle_feature_matrix.csv
cycle_number,rul,voltage,current,capacity,charge_capacity
1,1704,3.32318,-0.0132871,0.278592,1.00167
3,1702,3.30431,-0.0166462,0.285554,0.996091
5,1700,3.30596,-0.0146417,0.28458,0.994915
7,1698,3.30591,-0.0153566,0.284582,0.994601
9,1696,3.30587,-0.0160751,0.284579,0.994284
11,1694,3.30594,-0.0167504,0.284579,0.993978
13,1692,3.30645,-0.0173823,0.284132,0.993932
15,1690,3.30815,-0.0140063,0.28271,0.993632
17,1688,3.3082,-0.0146456,0.282711,0.993348
19,1686,3.3082,-0.0152774,0.282708,0.993049
21,1684,3.30876,-0.0152383,0.282267,0.993323
23,1682,3.30791,-0.016056,0.282709,0.992708
25,1680,3.30856,-0.0160254,0.28218,0.992965
27,1678,3.30788,-0.0166619,0.282266,0.992678
29,1676,3.30783,-0.0165032,0.282264,0.992745
31,1674,3.30729,-0.0174205,0.282704,0.99208
33,1672,3.30776,-0.0173091,0.282352,0.992354
35,1670,3.3098,-0.0139074,0.280817,0.992052
37,1668,3.30978,-0.0145711,0.280835,0.991754
39,1666,3.30919,-0.0145584,0.28083,0.99175
41,1664,3.30939,-0.0152016,0.281044,0.991444
43,1662,3.30911,-0.015208,0.280828,0.991697
45,1660,3.30889,-0.0151991,0.280824,0.991438
47,1658,3.30871,-0.015995,0.281261,0.990822
49,1656,3.30899,-0.015871,0.280819,0.991113
51,1654,3.30887,-0.0159406,0.280816,0.991073
53,1652,3.3084,-0.0166504,0.281258,0.990512
55,1650,3.30868,-0.0165723,0.280815,0.990786
57,1648,3.30845,-0.016545,0.280815,0.990796
59,1646,3.30795,-0.0174284,0.281252,0.99014
61,1644,3.30802,-0.0172716,0.280815,0.990461
63,1642,3.31014,-0.0138645,0.279396,0.990172
65,1640,3.30997,-0.0145615,0.279833,0.9896
67,1638,3.31037,-0.0145466,0.279493,0.989848
69,1636,3.31004,-0.0144425,0.278982,0.989885
71,1634,3.30985,-0.0152608,0.279836,0.989278
73,1632,3.30989,-0.0152214,0.279396,0.989541
75,1630,3.30976,-0.0152819,0.279393,0.989506
77,1628,3.30945,-0.0159568,0.279831,0.988942
79,1626,3.30945,-0.0159806,0.279831,0.988941
81,1624,3.30927,-0.0159762,0.27983,0.988955
83,1622,3.3095,-0.0161514,0.279832,0.98886
85,1620,3.30937,-0.0167146,0.279835,0.98863
87,1618,3.3096,-0.0167136,0.279835,0.988635
89,1616,3.30945,-0.01731,0.279836,0.988358
91,1614,3.30899,-0.0174146,0.279835,0.988309
93,1612,3.30844,-0.0173361,0.279931,0.988335
95,1610,3.31087,-0.0139007,0.278415,0.988053
97,1608,3.31033,-0.0146718,0.278855,0.987459
99,1606,3.31099,-0.0146907,0.278804,0.987671
101,1604,3.31077,-0.0146088,0.278413,0.987713
103,1602,3.31097,-0.0146149,0.278409,0.987706
105,1600,3.3106,-0.0152402,0.278411,0.987416
107,1598,3.31038,-0.0152639,0.278413,0.987412
109,1596,3.31047,-0.0152846,0.278412,0.987417
111,1594,3.31016,-0.0161242,0.278855,0.9868
113,1592,3.30989,-0.016117,0.278857,0.98681
115,1590,3.30985,-0.0161289,0.278858,0.98681
117,1588,3.31016,-0.016728,0.278855,0.986523
119,1586,3.31025,-0.0167437,0.278854,0.986522
121,1584,3.30987,-0.0167256,0.279068,0.986531
123,1582,3.31038,-0.0166752,0.278379,0.986785
125,1580,3.30968,-0.0174544,0.279278,0.98617
127,1578,3.3096,-0.0174534,0.278852,0.986186
129,1576,3.3093,-0.0174048,0.278851,0.986201
131,1574,3.30925,-0.0173864,0.278848,0.986195
133,1572,3.31163,-0.0140472,0.27743,0.985881
135,1570,3.31179,-0.0146862,0.277436,0.985602
137,1568,3.31143,-0.0146528,0.277436,0.985612
139,1566,3.31138,-0.0146555,0.277437,0.985618
141,1564,3.31158,-0.015306,0.277436,0.985312
143,1562,3.31151,-0.0153757,0.277434,0.985274
145,1560,3.3112,-0.0153358,0.277431,0.985285
147,1558,3.31109,-0.0153804,0.277431,0.985262
149,1556,3.31061,-0.015319,0.277644,0.98529
151,1554,3.31068,-0.0160779,0.277869,0.983383
153,1552,3.3105,-0.016098,0.277867,0.984683
155,1550,3.31059,-0.016105,0.277869,0.984688
157,1548,3.31057,-0.0160683,0.277867,0.984708
159,1546,3.31063,-0.0161182,0.277869,0.984692
161,1544,3.31034,-0.0168078,0.277872,0.984171
163,1542,3.31011,-0.0168475,0.277879,0.984367
165,1540,3.31024,-0.0168407,0.277876,0.984632
167,1538,3.31037,-0.0175427,0.277881,0.984059
169,1536,3.30984,-0.017484,0.277877,0.984081
171,1534,3.30999,-0.0175065,0.27788,0.984067
173,1532,3.30978,-0.0175403,0.277877,0.984048
175,1530,3.30983,-0.0175021,0.277876,0.984066
177,1528,3.31187,-0.0148292,0.276895,0.983187
179,1526,3.31221,-0.0146811,0.276454,0.98349
181,1524,3.31212,-0.0147357,0.276455,0.983465
183,1522,3.31187,-0.0147286,0.276457,0.983468
185,1520,3.31143,-0.0154579,0.276893,0.982896
187,1518,3.31134,-0.0154756,0.276893,0.982884
189,1516,3.31118,-0.0155594,0.276896,0.982852
191,1514,3.31112,-0.0155264,0.276897,0.982864
193,1512,3.31126,-0.0155408,0.2769,0.982872
195,1510,3.31141,-0.0161071,0.276994,0.982602
197,1508,3.3111,-0.0162056,0.276901,0.982562
199,1506,3.31131,-0.0161241,0.276995,0.982598
201,1504,3.31102,-0.0162385,0.2769,0.98254
203,1502,3.31128,-0.0161753,0.276899,0.982581
205,1500,3.31145,-0.0168366,0.276897,0.98226
207,1498,3.31116,-0.016929,0.276901,0.982229
209,1496,3.31087,-0.0171017,0.276895,0.982135
211,1494,3.3106,-0.01689,0.276899,0.982248
213,1492,3.31047,-0.0168605,0.276893,0.982493
215,1490,3.31073,-0.0168335,0.27689,0.982251
217,1488,3.31021,-0.0175949,0.277333,0.981666
219,1486,3.3102,-0.0176324,0.277335,0.981657
221,1484,3.31004,-0.0176273,0.277334,0.981657
223,1482,3.31048,-0.0175994,0.276892,0.981898
225,1480,3.31012,-0.0175382,0.276883,0.981897
227,1478,3.31221,-0.0148055,0.275909,0.981059
229,1476,3.31237,-0.0148147,0.275904,0.981052
231,1474,3.31254,-0.01471,0.275466,0.981344
233,1472,3.31225,-0.0147056,0.275467,0.981346
235,1470,3.31159,-0.0148308,0.275905,0.98105
237,1468,3.31138,-0.0148186,0.275899,0.981043
239,1466,3.31173,-0.0154682,0.275902,0.980744
241,1464,3.31166,-0.0154812,0.2759,0.980739
243,1462,3.31141,-0.0154297,0.275905,0.980766
245,1460,3.31134,-0.0154469,0.276327,0.980747
247,1458,3.31145,-0.0154924,0.275904,0.980742
249,1456,3.31163,-0.0156469,0.275902,0.980673
251,1454,3.31168,-0.016203,0.275901,0.980402
253,1452,3.31184,-0.0162259,0.27579,0.980411
255,1450,3.31156,-0.0161628,0.275901,0.980432
257,1448,3.31169,-0.0162287,0.275903,0.980407
259,1446,3.31143,-0.0161952,0.275906,0.980434
261,1444,3.31144,-0.0167961,0.275895,0.98013
263,1442,3.31136,-0.0167961,0.275899,0.980122
265,1440,3.31125,-0.0168233,0.275893,0.980105
267,1438,3.3105,-0.0169,0.27633,0.979812
269,1436,3.31104,-0.0167922,0.275887,0.980095
271,1434,3.31078,-0.0166624,0.27588,0.980117
273,1432,3.31066,-0.0168387,0.275884,0.980043
275,1430,3.31041,-0.0165439,0.275871,0.980149
277,1428,3.31028,-0.0166936,0.275867,0.980062
279,1426,3.31036,-0.0166713,0.27587,0.980084
281,1424,3.31071,-0.0175329,0.27588,0.979715
283,1422,3.31063,-0.0175156,0.275877,0.979714
285,1420,3.31044,-0.0175369,0.276094,0.979716
287,1418,3.3104,-0.0177734,0.275842,0.979597
289,1416,3.31021,-0.0175105,0.275873,0.979713
291,1414,3.30988,-0.0175204,0.27588,0.979724
293,1412,3.31233,-0.0147483,0.274454,0.979104
295,1410,3.31215,-0.0147156,0.274451,0.979118
297,1408,3.31216,-0.0147864,0.274454,0.979085
299,1406,3.31194,-0.0149087,0.274458,0.979044
301,1404,3.31172,-0.0155564,0.274895,0.97851
303,1402,3.31157,-0.0155837,0.2749,0.978503
305,1400,3.31147,-0.0154756,0.274898,0.978819
307,1398,3.31164,-0.015548,0.274901,0.978538
309,1396,3.31211,-0.01548,0.274461,0.978799
311,1394,3.31152,-0.0155814,0.275292,0.978522
313,1392,3.31203,-0.0163015,0.274897,0.978179
315,1390,3.31156,-0.0162808,0.274891,0.978177
317,1388,3.31154,-0.0162467,0.275108,0.978192
319,1386,3.31129,-0.0162653,0.274894,0.978178
321,1384,3.31136,-0.0161815,0.27489,0.978217
323,1382,3.31162,-0.0167654,0.274984,0.977949
325,1380,3.31158,-0.0169504,0.27447,0.97787
327,1378,3.31129,-0.0169861,0.274897,0.977873
329,1376,3.31104,-0.0169371,0.274901,0.977915
331,1374,3.3115,-0.0168693,0.274459,0.978168
333,1372,3.31123,-0.0176369,0.274898,0.977585
335,1370,3.31099,-0.0176573,0.274899,0.977574
337,1368,3.3112,-0.0176572,0.274991,0.97757
339,1366,3.31083,-0.017636,0.274894,0.977569
341,1364,3.31085,-0.0176237,0.274896,0.977571
343,1362,3.3107,-0.0176928,0.274898,0.977551
345,1360,3.31044,-0.0176178,0.274889,0.977563
347,1358,3.31048,-0.0176542,0.274892,0.977547
349,1356,3.31291,-0.0148142,0.273468,0.976954
351,1354,3.31275,-0.014837,0.273468,0.976956
353,1352,3.31275,-0.0148865,0.273472,0.976941
355,1350,3.31251,-0.0156013,0.273908,0.976377
357,1348,3.31292,-0.0155409,0.273564,0.976644
359,1346,3.31274,-0.0155543,0.273473,0.97665
361,1344,3.31273,-0.0155231,0.273474,0.976666
363,1342,3.31255,-0.015566,0.273474,0.976644
365,1340,3.31262,-0.0155297,0.273475,0.976672
367,1338,3.31299,-0.0162185,0.273472,0.976336
369,1336,3.312644,-0.0162238,0.273681,0.976328
371,1334,3.31269,-0.0162417,0.273471,0.976326
373,1332,3.31245,-0.0162336,0.273861,0.976318
375,1330,3.31218,-0.0162257,0.273466,0.976312
377,1328,3.31181,-0.0169175,0.273902,0.975753
379,1326,3.31168,-0.0170415,0.273903,0.97569
381,1324,3.31164,-0.0170088,0.273904,0.975719
383,1322,3.31149,-0.0170917,0.274002,0.9757
385,1320,3.31163,-0.0170487,0.273912,0.975726
387,1318,3.31155,-0.0176871,0.273912,0.975432
389,1316,3.31115,-0.0176507,0.273913,0.975454
391,1314,3.31138,-0.0176783,0.273912,0.974144
393,1312,3.31116,-0.0177193,0.273912,0.975415
395,1310,3.31123,-0.0177383,0.273909,0.975402
397,1308,3.3135,-0.0142602,0.272481,0.975112
399,1306,3.31364,-0.0149312,0.272482,0.974796
401,1304,3.31337,-0.0149301,0.272482,0.974794
403,1302,3.31333,-0.0149272,0.272482,0.9748
405,1300,3.3131,-0.0148937,0.27248,0.974812
407,1298,3.31333,-0.0149093,0.272483,0.974811
409,1296,3.31333,-0.0155415,0.272485,0.974522
411,1294,3.31338,-0.0155887,0.272482,0.974496
413,1292,3.31322,-0.015599,0.272482,0.974491
415,1290,3.313,-0.0163319,0.27292,0.973924
417,1288,3.31269,-0.0163597,0.272926,0.97392
419,1286,3.31298,-0.016272,0.272484,0.974184
421,1284,3.31274,-0.0162361,0.27248,0.974199
423,1282,3.31254,-0.0170606,0.272924,0.973594
425,1280,3.31232,-0.0170618,0.273191,0.973582
427,1278,3.31223,-0.0170509,0.27292,0.973593
429,1276,3.31204,-0.0170258,0.272921,0.973608
431,1274,3.31204,-0.017067,0.272919,0.973587
433,1272,3.31203,-0.0177468,0.272917,0.973257
435,1270,3.312,-0.0178104,0.272919,0.973234
437,1268,3.31163,-0.0177725,0.272921,0.973262
439,1266,3.31376,-0.0142395,0.271496,0.972994
441,1264,3.31358,-0.0149978,0.271934,0.9724
443,1262,3.31321,-0.0150219,0.271933,0.97239
445,1260,3.31312,-0.0150431,0.271935,0.972384
447,1258,3.31321,-0.0150049,0.271934,0.972404
449,1256,3.31309,-0.0156957,0.271932,0.972074
451,1254,3.31286,-0.0155986,0.271933,0.97212
453,1252,3.31301,-0.0157513,0.271935,0.971882
455,1250,3.31269,-0.0157547,0.271934,0.97205
457,1248,3.31289,-0.0157032,0.271927,0.972066
459,1246,3.31305,-0.0163781,0.271928,0.971745
461,1244,3.31301,-0.0164242,0.271928,0.971732
463,1242,3.31276,-0.0164545,0.271929,0.971714
465,1240,3.31311,-0.0171835,0.271933,0.97139
467,1238,3.31275,-0.0171283,0.271933,0.971418
469,1236,3.31278,-0.017151,0.271939,0.971419
471,1234,3.31238,-0.0179316,0.272468,0.970821
473,1232,3.31229,-0.017905,0.272378,0.970842
475,1230,3.31212,-0.0179269,0.272378,0.970835
477,1228,3.31441,-0.0144475,0.270951,0.970541
479,1226,3.31434,-0.0151059,0.27095,0.970223
481,1224,3.31404,-0.0151107,0.270947,0.970225
483,1222,3.31388,-0.0151157,0.270948,0.970222
485,1220,3.31389,-0.0151389,0.270946,0.970209
487,1218,3.31383,-0.0150844,0.270943,0.970227
489,1216,3.31406,-0.0157431,0.270943,0.969914
491,1214,3.31375,-0.01582,0.270948,0.969888
493,1212,3.31381,-0.0157999,0.270951,0.969914
495,1210,3.31393,-0.0158228,0.27095,0.969908
497,1208,3.31374,-0.0165269,0.271043,0.969583
499,1206,3.31345,-0.0165102,0.270948,0.969588
501,1204,3.31342,-0.0164895,0.270953,0.969604
503,1202,3.3131,-0.0172587,0.271387,0.969004
505,1200,3.31277,-0.0172238,0.271383,0.969001
507,1198,3.3126,-0.017285,0.271381,0.968977
509,1196,3.31297,-0.0171557,0.270942,0.969261
511,1194,3.31265,-0.0171217,0.270939,0.969267
513,1192,3.31279,-0.0171629,0.271361,0.969254
515,1190,3.31225,-0.0179988,0.271374,0.968629
517,1188,3.31257,-0.0178216,0.270935,0.968942
519,1186,3.31189,-0.0180046,0.271377,0.968619
521,1184,3.31428,-0.0146145,0.269946,0.968536
523,1182,3.31424,-0.015153,0.269941,0.968022
525,1180,3.31409,-0.0151814,0.269938,0.968003
527,1178,3.31395,-0.0151199,0.269939,0.968036
529,1176,3.31394,-0.015151,0.269939,0.968029
531,1174,3.31319,-0.0159026,0.270377,0.967433
533,1172,3.31374,-0.0157946,0.269941,0.96772
535,1170,3.31336,-0.0158084,0.269941,0.967722
537,1168,3.31336,-0.0157336,0.269939,0.966249
539,1166,3.3137,-0.0158851,0.26994,0.967694
541,1164,3.31355,-0.0164795,0.270023,0.967388
543,1162,3.31347,-0.0164928,0.269936,0.967382
545,1160,3.31319,-0.016481,0.269933,0.967387
547,1158,3.31305,-0.0164921,0.269932,0.967383
549,1156,3.31276,-0.0172723,0.270375,0.966799
551,1154,3.3126,-0.0173082,0.270377,0.966795
553,1152,3.31258,-0.0173021,0.270378,0.966798
555,1150,3.3128,-0.0180186,0.270377,0.966464
557,1148,3.31252,-0.0179625,0.270379,0.966484
559,1146,3.31241,-0.017972,0.270583,0.966478
561,1144,3.31198,-0.017972,0.270375,0.966477
563,1142,3.312,-0.0180016,0.270373,0.966473
565,1140,3.31427,-0.0150941,0.26894,0.96588
567,1138,3.31415,-0.0151378,0.268938,0.965864
569,1136,3.31398,-0.0150729,0.268942,0.965902
571,1134,3.31405,-0.0151745,0.268942,0.965853
573,1132,3.31418,-0.0158335,0.268938,0.965536
575,1130,3.31414,-0.0158514,0.268942,0.965543
577,1128,3.31416,-0.0158823,0.268946,0.965537
579,1126,3.31358,-0.0166421,0.269384,0.964954
581,1124,3.31357,-0.0166136,0.269385,0.96497
583,1122,3.31355,-0.0166744,0.269384,0.964944
585,1120,3.31305,-0.0166322,0.269381,0.964953
587,1118,3.31345,-0.0173496,0.269381,0.964617
589,1116,3.3132,-0.0173834,0.26938,0.964607
591,1114,3.31324,-0.0173888,0.269381,0.964596
593,1112,3.31303,-0.0173885,0.269377,0.964596
595,1110,3.31331,-0.0172925,0.268936,0.964863
597,1108,3.31284,-0.0180099,0.269374,0.964293
599,1106,3.31263,-0.01799,0.269369,0.964293
601,1104,3.31252,-0.017962,0.269371,0.964308
603,1102,3.3125,-0.0180836,0.269003,0.964275
605,1100,3.31464,-0.0151727,0.268332,0.963686
607,1098,3.31513,-0.0152743,0.267947,0.963654
609,1096,3.31474,-0.0152626,0.267946,0.963666
611,1094,3.31434,-0.0160386,0.268385,0.963077
613,1092,3.31453,-0.0158988,0.26795,0.963373
615,1090,3.31426,-0.015893,0.267943,0.963357
617,1088,3.31405,-0.015865,0.267943,0.963369
619,1086,3.31398,-0.0167881,0.268385,0.962722
621,1084,3.31376,-0.0167243,0.26838,0.961494
623,1082,3.31419,-0.0165162,0.267941,0.963077
625,1080,3.31412,-0.0166146,0.267939,0.963019
627,1078,3.31421,-0.0166466,0.26794,0.963012
629,1076,3.3134,-0.0173711,0.268377,0.962435
631,1074,3.31349,-0.0174445,0.268774,0.96242
633,1072,3.31347,-0.0174474,0.268385,0.962424
635,1070,3.31358,-0.018084,0.268385,0.962126
637,1068,3.31331,-0.0182026,0.268389,0.962081
639,1066,3.3133,-0.0181291,0.268387,0.962122
641,1064,3.31497,-0.0153335,0.267386,0.961238
643,1062,3.31488,-0.0154242,0.267395,0.961206
645,1060,3.31524,-0.0153332,0.266952,0.961483
647,1058,3.3152,-0.0153409,0.266956,0.961488
649,1056,3.31472,-0.0160709,0.26781,0.960718
651,1054,3.3148,-0.0161546,0.267393,0.960875
653,1052,3.31434,-0.0161012,0.267385,0.960888
655,1050,3.31508,-0.0160186,0.266953,0.961172
657,1048,3.31462,-0.0167953,0.267387,0.960561
659,1046,3.31452,-0.0167907,0.267387,0.960565
661,1044,3.31434,-0.0168077,0.267389,0.960566
663,1042,3.31468,-0.0167345,0.266955,0.960846
665,1040,3.31413,-0.0175233,0.267472,0.960233
667,1038,3.31408,-0.0175252,0.26739,0.96024
669,1036,3.31398,-0.0174843,0.267386,0.960256
671,1034,3.31416,-0.0182034,0.26739,0.959924
673,1032,3.31389,-0.0181024,0.267387,0.959967
675,1030,3.31407,-0.0181972,0.267392,0.959939
677,1028,3.31608,-0.0146297,0.265627,0.959648
679,1026,3.31568,-0.0153488,0.266392,0.959087
681,1024,3.3161,-0.0153303,0.265954,0.959325
683,1022,3.3159,-0.0152722,0.266343,0.959355
685,1020,3.31529,-0.0161036,0.266391,0.958736
687,1018,3.31522,-0.0161044,0.266389,0.958733
689,1016,3.31512,-0.0161593,0.26639,0.958713
691,1014,3.31512,-0.0161678,0.266392,0.958719
693,1012,3.31496,-0.0168149,0.266391,0.958415
695,1010,3.31513,-0.0167304,0.266391,0.95845
697,1008,3.31497,-0.0168311,0.26639,0.958401
699,1006,3.31501,-0.0175515,0.266387,0.958055
701,1004,3.31466,-0.0175661,0.266389,0.95806
703,1002,3.31457,-0.017567,0.266385,0.958044
705,1000,3.31444,-0.0175782,0.266386,0.958044
707,998,3.314,-0.0183144,0.266826,0.95747
709,996,3.31356,-0.0183303,0.266824,0.957713
711,994,3.3136,-0.0183266,0.266825,0.957458
713,992,3.31573,-0.0154949,0.26538,0.956814
715,990,3.31567,-0.0154162,0.265381,0.956856
717,988,3.31546,-0.0154707,0.265381,0.956839
719,986,3.3153,-0.0154223,0.265378,0.956851
721,984,3.31528,-0.0161323,0.265382,0.956521
723,982,3.31475,-0.0162209,0.265819,0.956248
725,980,3.31503,-0.016183,0.265801,0.956508
727,978,3.31466,-0.0168909,0.265821,0.95575
729,976,3.31497,-0.0168203,0.265378,0.956199
731,974,3.31508,-0.016795,0.265379,0.956219
733,972,3.31446,-0.017688,0.265812,0.955557
735,970,3.31412,-0.0176589,0.265813,0.955573
737,968,3.31442,-0.0175492,0.265377,0.955871
739,966,3.3141,-0.0183794,0.265813,0.955252
741,964,3.31379,-0.0183613,0.266019,0.955263
743,962,3.31382,-0.0183972,0.265813,0.955239
745,960,3.31641,-0.0147271,0.263935,0.955219
747,958,3.31646,-0.0154205,0.264373,0.954672
749,956,3.31615,-0.0155012,0.264375,0.954633
751,954,3.31631,-0.0154962,0.264789,0.954641
753,952,3.31603,-0.0161241,0.264371,0.954338
755,950,3.3158,-0.0161685,0.264376,0.954326
757,948,3.31549,-0.0169831,0.264809,0.953711
759,946,3.31515,-0.0169292,0.264811,0.953742
761,944,3.31525,-0.0169894,0.264814,0.953726
763,942,3.31514,-0.0176491,0.264813,0.953412
765,940,3.31505,-0.0178032,0.264812,0.953341
767,938,3.31499,-0.0176692,0.265229,0.953405
769,936,3.31453,-0.018579,0.265251,0.952752
771,934,3.31416,-0.018496,0.26525,0.952782
773,932,3.31395,-0.0185249,0.264843,0.95278
775,930,3.31619,-0.0154996,0.26381,0.952221
777,928,3.31577,-0.0155911,0.263808,0.952175
779,926,3.31598,-0.0155501,0.26381,0.952198
781,924,3.31515,-0.0162721,0.264452,0.951635
783,922,3.31506,-0.0163246,0.264248,0.951618
785,920,3.31557,-0.0162326,0.263808,0.951892
787,918,3.315,-0.0171187,0.26425,0.951263
789,916,3.31472,-0.0171691,0.264248,0.951233
791,914,3.31488,-0.0178012,0.26395,0.950941
793,912,3.31483,-0.0178402,0.264335,0.950922
795,910,3.31445,-0.0177562,0.264249,0.950966
797,908,3.31483,-0.0185265,0.264248,0.950598
799,906,3.31463,-0.0186181,0.26433,0.950549
801,904,3.3166,-0.014859,0.262796,0.950323
803,902,3.31665,-0.0154941,0.26279,0.950002
805,900,3.31633,-0.0154992,0.262794,0.950015
807,898,3.31607,-0.0154132,0.262791,0.950044
809,896,3.31577,-0.016355,0.263232,0.949391
811,894,3.31565,-0.0163316,0.263231,0.949395
813,892,3.31525,-0.0164211,0.263233,0.949135
815,890,3.31554,-0.0170694,0.263234,0.949063
817,888,3.31556,-0.0170431,0.263234,0.949086
819,886,3.31494,-0.0179344,0.263676,0.948445
821,884,3.31484,-0.0179222,0.263676,0.94845
823,882,3.31445,-0.0186425,0.263677,0.94811
825,880,3.31417,-0.0186265,0.263672,0.948108
827,878,3.314,-0.0186473,0.263673,0.948107
829,876,3.31554,-0.0157491,0.262664,0.947241
831,874,3.31535,-0.015671,0.262656,0.947257
833,872,3.31561,-0.0156265,0.26222,0.947521
835,870,3.3158,-0.0164731,0.262667,0.946912
837,868,3.31561,-0.0164138,0.262421,0.947167
839,866,3.31555,-0.0172276,0.262665,0.946567
841,864,3.31517,-0.017156,0.262665,0.946605
843,862,3.31551,-0.0179318,0.262665,0.946246
845,860,3.31513,-0.0179487,0.262665,0.946239
847,858,3.31513,-0.0179767,0.262665,0.946233
849,856,3.31453,-0.018694,0.263498,0.945522
851,854,3.31447,-0.0188007,0.263108,0.945623
853,852,3.31657,-0.0157599,0.261655,0.945047
855,850,3.31642,-0.0157216,0.261654,0.945064
857,848,3.3163,-0.0157564,0.261653,0.945051
859,846,3.31573,-0.0167242,0.262093,0.944368
861,844,3.3153,-0.0165796,0.262091,0.944427
863,842,3.31564,-0.016515,0.261653,0.944691
865,840,3.3149,-0.017291,0.26209,0.9441
867,838,3.31505,-0.0172881,0.262091,0.944105
869,836,3.31454,-0.0181678,0.262538,0.943469
871,834,3.31495,-0.0181408,0.26209,0.943715
873,832,3.31418,-0.0187666,0.262537,0.943202
875,830,3.3145,-0.0187213,0.262092,0.943451
877,828,3.31606,-0.0151696,0.261078,0.942867
879,826,3.31582,-0.0158311,0.261074,0.942796
881,824,3.31628,-0.0156906,0.260629,0.942849
883,822,3.31558,-0.0165529,0.261072,0.942222
885,820,3.31584,-0.0165553,0.261071,0.942224
887,818,3.31558,-0.0165677,0.261069,0.942224
889,816,3.31569,-0.0172543,0.261072,0.941908
891,814,3.31556,-0.0172229,0.261067,0.94191
893,812,3.31522,-0.0181789,0.261522,0.941273
895,810,3.31487,-0.018238,0.261519,0.941244
897,808,3.31487,-0.0188451,0.261524,0.940975
899,806,3.31674,-0.0151135,0.260065,0.940698
901,804,3.31615,-0.0158741,0.260508,0.940111
903,802,3.31594,-0.0159495,0.260509,0.940087
905,800,3.31553,-0.0168342,0.260951,0.939442
907,798,3.31562,-0.0166195,0.260498,0.939754
909,796,3.31571,-0.0167252,0.260505,0.939723
911,794,3.31534,-0.017381,0.260499,0.939406
913,792,3.31518,-0.017409,0.260497,0.939393
915,790,3.31465,-0.0182485,0.260945,0.938789
917,788,3.31462,-0.0183199,0.261336,0.938753
919,786,3.31456,-0.0188972,0.260943,0.93849
921,784,3.31477,-0.0190537,0.260951,0.938443
923,782,3.31697,-0.015936,0.25949,0.937874
925,780,3.31676,-0.0159742,0.25949,0.937858
927,778,3.3164,-0.0168051,0.259933,0.937256
929,776,3.31581,-0.0167574,0.259932,0.93727
931,774,3.31588,-0.017413,0.259933,0.93697
933,772,3.3151,-0.0176411,0.26038,0.936641
935,770,3.31516,-0.0183588,0.260378,0.93631
937,768,3.31484,-0.0183365,0.260378,0.936323
939,766,3.31481,-0.018445,0.260377,0.93628
941,764,3.31426,-0.0190125,0.260373,0.935997
943,762,3.31675,-0.0153861,0.258915,0.935676
945,760,3.31608,-0.016257,0.259356,0.93504
947,758,3.316,-0.0161591,0.259358,0.93509
949,756,3.31589,-0.0168557,0.259358,0.934773
951,754,3.31571,-0.0168804,0.259358,0.934766
953,752,3.31571,-0.0175453,0.259356,0.934462
955,750,3.31552,-0.0175756,0.259359,0.934453
957,748,3.31517,-0.0184397,0.259805,0.933827
959,746,3.31487,-0.0184235,0.259804,0.93384
961,744,3.31548,-0.0183782,0.259357,0.934082
963,742,3.31453,-0.0191427,0.259801,0.93351
965,740,3.31681,-0.0153947,0.258338,0.933215
967,738,3.31608,-0.0162916,0.258788,0.932591
969,736,3.31606,-0.0162255,0.258785,0.932612
971,734,3.31591,-0.0170672,0.258865,0.932227
973,732,3.31552,-0.0170239,0.258784,0.932256
975,730,3.31534,-0.0176881,0.258784,0.931941
977,728,3.3151,-0.0176718,0.258781,0.931944
979,726,3.31428,-0.0184483,0.259226,0.931352
981,724,3.31433,-0.0184882,0.259225,0.931341
983,722,3.31444,-0.019256,0.259228,0.930995
985,720,3.31427,-0.0192913,0.259228,0.930993
987,718,3.3167,-0.0160975,0.257756,0.930432
989,716,3.3164,-0.01622,0.257756,0.930366
991,714,3.31639,-0.0163221,0.257757,0.93033
993,712,3.31567,-0.0170705,0.258287,0.929768
995,710,3.3157,-0.0178072,0.258208,0.929428
997,708,3.31491,-0.0177832,0.258205,0.929431
999,706,3.31478,-0.0186736,0.258654,0.928795
1001,704,3.31418,-0.0186548,0.258648,0.92879
1003,702,3.31402,-0.0186626,0.258649,0.928789
1005,700,3.31378,-0.0193228,0.258645,0.928484
1007,698,3.3135,-0.0194266,0.25865,0.928442
1009,696,3.31572,-0.0162282,0.257167,0.927869
1011,694,3.31554,-0.0163372,0.257564,0.927826
1013,692,3.31569,-0.0170566,0.257174,0.927514
1015,690,3.31584,-0.0170216,0.257172,0.927536
1017,688,3.31536,-0.0178945,0.257626,0.926914
1019,686,3.31505,-0.0178297,0.257622,0.926751
1021,684,3.31471,-0.0187116,0.258078,0.926321
1023,682,3.31425,-0.0195171,0.258078,0.925954
1025,680,3.31399,-0.019508,0.258073,0.925953
1027,678,3.31541,-0.0165033,0.257049,0.925067
1029,676,3.3151,-0.0164696,0.257046,0.925067
1031,674,3.31523,-0.0172863,0.257125,0.924704
1033,672,3.31494,-0.0172253,0.257044,0.924728
1035,670,3.31496,-0.0179678,0.257044,0.924404
1037,668,3.31479,-0.0180125,0.257042,0.924373
1039,666,3.31467,-0.0180818,0.257047,0.924362
1041,664,3.31474,-0.0187798,0.257048,0.924053
1043,662,3.31408,-0.0196605,0.257503,0.923428
1045,660,3.31658,-0.0157735,0.256024,0.923182
1047,658,3.31631,-0.0164487,0.256022,0.922869
1049,656,3.31613,-0.0164144,0.255751,0.922877
1051,654,3.3152,-0.0173158,0.256469,0.922229
1053,652,3.31517,-0.0174064,0.256473,0.922199
1055,650,3.31451,-0.0181151,0.256474,0.921875
1057,648,3.31427,-0.018962,0.256927,0.921057
1059,646,3.31366,-0.0189162,0.256926,0.921286
1061,644,3.31383,-0.0197104,0.256924,0.920926
1063,642,3.31358,-0.0197182,0.25692,0.920917
1065,640,3.31598,-0.0168894,0.255433,0.920406
1067,638,3.31571,-0.0165179,0.255435,0.920331
1069,636,3.31554,-0.0171788,0.255622,0.920011
1071,634,3.31551,-0.0173018,0.255431,0.919967
1073,632,3.31494,-0.018174,0.255891,0.919362
1075,630,3.31436,-0.0190112,0.256346,0.918761
1077,628,3.314,-0.0190039,0.256345,0.918759
1079,626,3.31382,-0.0195047,0.256344,0.918545
1081,624,3.31571,-0.0159003,0.254857,0.918124
1083,622,3.31502,-0.0167737,0.255392,0.917515
1085,620,3.31537,-0.0164645,0.254853,0.917874
1087,618,3.31476,-0.0175663,0.255313,0.917159
1089,616,3.31492,-0.0183432,0.255311,0.916803
1091,614,3.31453,-0.0182797,0.255309,0.916835
1093,612,3.3142,-0.0190387,0.255768,0.916271
1095,610,3.31449,-0.0189675,0.255308,0.916529
1097,608,3.31295,-0.0199535,0.256226,0.915628
1099,606,3.31537,-0.0167027,0.254729,0.915027
1101,604,3.31488,-0.0168445,0.254729,0.914969
1103,602,3.31499,-0.0175854,0.254732,0.914646
1105,600,3.3146,-0.0175444,0.25473,0.914674
1107,598,3.31374,-0.0183857,0.25519,0.914064
1109,596,3.31359,-0.0191873,0.255587,0.913703
1111,594,3.31332,-0.0192283,0.255189,0.913701
1113,592,3.31294,-0.0200247,0.255652,0.913115
1115,590,3.31559,-0.016061,0.253693,0.913069
1117,588,3.31519,-0.0169335,0.254551,0.912449
1119,586,3.31512,-0.017666,0.254154,0.912126
1121,584,3.31479,-0.0176672,0.254152,0.912136
1123,582,3.31403,-0.0185694,0.254612,0.911498
1125,580,3.31357,-0.0193025,0.25461,0.911165
1127,578,3.31348,-0.0192919,0.254611,0.911171
1129,576,3.3127,-0.0200424,0.255067,0.910591
1131,574,3.31448,-0.0171125,0.254035,0.909642
1133,572,3.31474,-0.0169726,0.253572,0.909933
1135,570,3.31451,-0.0177572,0.253569,0.909587
1137,568,3.31397,-0.0186095,0.254032,0.908981
1139,566,3.31384,-0.0186717,0.254033,0.90896
1141,564,3.31381,-0.0193559,0.254033,0.908654
1143,562,3.31316,-0.020306,0.254494,0.908013
1145,560,3.31543,-0.0163093,0.253062,0.907722
1147,558,3.31493,-0.0170631,0.25299,0.907388
1149,556,3.31412,-0.0179198,0.253451,0.906773
1151,554,3.31371,-0.0179997,0.253452,0.906745
1153,552,3.31286,-0.0187902,0.253913,0.906155
1155,550,3.31271,-0.0196187,0.254313,0.905793
1157,548,3.31267,-0.0195092,0.253909,0.90583
1159,546,3.31216,-0.0203689,0.253906,0.905454
1161,544,3.3147,-0.0171748,0.252404,0.904821
1163,542,3.31444,-0.0171711,0.252402,0.904827
1165,540,3.31402,-0.0180068,0.252869,0.904238
1167,538,3.31379,-0.01878,0.25287,0.903892
1169,536,3.31326,-0.0197054,0.253337,0.903265
1171,534,3.31304,-0.0204327,0.253334,0.903168
1173,532,3.31483,-0.0164372,0.251821,0.902641
1175,530,3.31391,-0.0173223,0.252289,0.902005
1177,528,3.3133,-0.0182044,0.252757,0.901379
1179,526,3.31299,-0.0181804,0.25275,0.901388
1181,524,3.31292,-0.0190233,0.252702,0.901024
1183,522,3.31242,-0.0198255,0.252746,0.900899
1185,520,3.31218,-0.0198565,0.252749,0.900666
1187,518,3.31203,-0.0204577,0.252746,0.900395
1189,516,3.31376,-0.0174194,0.251699,0.899421
1191,514,3.31414,-0.0161383,0.251231,0.899007
1193,512,3.31362,-0.0161196,0.251226,0.899013
1195,510,3.31288,-0.0170145,0.251765,0.898388
1197,508,3.31244,-0.0178091,0.251699,0.898045
1199,506,3.31131,-0.0268563,0.252161,0.89745
1201,504,3.31367,-0.0236267,0.250648,0.896813
1203,502,3.31342,-0.0153523,0.250639,0.896813
1205,500,3.31317,-0.0244381,0.25061,0.896456
1207,498,3.31236,-0.0252442,0.251111,0.895874
1209,496,3.3126,-0.0251376,0.251039,0.896138
1211,494,3.31216,-0.0240226,0.250634,0.895419
1213,492,3.3137,-0.0208014,0.249581,0.894519
1215,490,3.31373,-0.0196034,0.249116,0.894065
1217,488,3.31285,-0.0204333,0.24958,0.893471
1219,486,3.3128,-0.0191215,0.249112,0.893061
1221,484,3.3121,-0.0211937,0.249574,0.893127
1223,482,3.31201,-0.021944,0.249574,0.892808
1225,480,3.31139,-0.020796,0.249576,0.892102
1227,478,3.31425,-0.0154844,0.247594,0.891384
1229,476,3.31342,-0.0163386,0.248061,0.890778
1231,474,3.31272,-0.0253853,0.248058,0.890456
1233,472,3.31202,-0.0262963,0.248528,0.889845
1235,470,3.31159,-0.0271007,0.248522,0.889496
1237,468,3.31386,-0.0230358,0.247002,0.889197
1239,466,3.31354,-0.023785,0.247002,0.888869
1241,464,3.31288,-0.0226504,0.247,0.888145
1243,462,3.31282,-0.0233114,0.246996,0.887841
1245,460,3.31221,-0.0221247,0.24699,0.887144
1247,458,3.31249,-0.0208472,0.246925,0.886723
1249,456,3.31442,-0.0167475,0.245004,0.886423
1251,454,3.31406,-0.0174487,0.245003,0.886117
1253,452,3.31304,-0.0184901,0.245467,0.885439
1255,450,3.31202,-0.0214518,0.246397,0.8849
1257,448,3.31201,-0.0202103,0.245931,0.884471
1259,446,3.31236,-0.0189149,0.245467,0.884052
1261,444,3.31398,-0.0155694,0.244407,0.883201
1263,442,3.31367,-0.024788,0.24441,0.88285
1265,440,3.31268,-0.0257223,0.244873,0.88223
1267,438,3.31236,-0.0242941,0.244404,0.88185
1269,436,3.31202,-0.0243498,0.244409,0.881829
1271,434,3.31339,-0.0233025,0.243806,0.880962
1273,432,3.31323,-0.0240942,0.244201,0.880634
1275,430,3.3131,-0.0226957,0.243338,0.880242
1277,428,3.31263,-0.0215223,0.243338,0.879531
1279,426,3.31259,-0.0201658,0.24306,0.87914
1281,424,3.31176,-0.0210891,0.243335,0.878503
1283,422,3.3134,-0.017893,0.242271,0.877573
1285,420,3.3135,-0.0177826,0.241806,0.877849
1287,418,3.3126,-0.0186974,0.242269,0.877237
1289,416,3.3125,-0.0173475,0.241803,0.876834
1291,414,3.31178,-0.026617,0.242265,0.876241
1293,412,3.31383,-0.0233651,0.240735,0.875563
1295,410,3.31295,-0.02431,0.241199,0.874941
1297,408,3.3125,-0.0250103,0.241196,0.874643
1299,406,3.31154,-0.025981,0.24166,0.874007
1301,404,3.31187,-0.0246584,0.241198,0.873599
1303,402,3.31153,-0.0254359,0.241195,0.873267
1305,400,3.31358,-0.0200483,0.239665,0.872275
1307,398,3.31293,-0.0208008,0.239663,0.871955
1309,396,3.31212,-0.0196648,0.239665,0.871215
1311,394,3.31184,-0.0204306,0.23966,0.871134
1313,392,3.31124,-0.0213168,0.240122,0.870291
1315,390,3.31352,-0.0175723,0.238586,0.869804
1317,388,3.31389,-0.0166283,0.238186,0.869226
1319,386,3.31267,-0.0175482,0.238584,0.868601
1321,384,3.31119,-0.0270104,0.239044,0.867979
1323,382,3.31093,-0.0277836,0.239041,0.867652
1325,380,3.31262,-0.024567,0.23797,0.866724
1327,378,3.31288,-0.0231582,0.237569,0.866341
1329,376,3.31248,-0.0241556,0.237508,0.865931
1331,374,3.31189,-0.0227409,0.237506,0.865305
1333,372,3.31072,-0.0236885,0.237966,0.864674
1335,370,3.31321,-0.0202836,0.236429,0.864037
1337,368,3.31279,-0.0211322,0.236426,0.863684
1339,366,3.31294,-0.0197483,0.235968,0.863288
1341,364,3.31207,-0.0184707,0.235965,0.862605
1343,362,3.31065,-0.0215827,0.236882,0.862048
1345,360,3.31344,-0.0160283,0.234883,0.861082
1347,358,3.31255,-0.0169806,0.235342,0.860687
1349,356,3.31208,-0.0263999,0.235343,0.860374
1351,354,3.31176,-0.0249645,0.234883,0.859987
1353,352,3.31071,-0.0258868,0.235338,0.859364
1355,350,3.31234,-0.022524,0.234254,0.85846
1357,348,3.31235,-0.0235224,0.234469,0.858067
1359,346,3.31202,-0.0242406,0.234255,0.857775
1361,344,3.31206,-0.0228963,0.234178,0.857364
1363,342,3.31117,-0.0216204,0.233796,0.856666
1365,340,3.31275,-0.0182257,0.232711,0.855766
1367,338,3.31264,-0.0191647,0.232713,0.855398
1369,336,3.31267,-0.0177059,0.232254,0.855032
1371,334,3.31162,-0.0187741,0.232709,0.85435
1373,332,3.31354,-0.0239379,0.231167,0.853744
1375,330,3.31244,-0.0247738,0.23162,0.853167
1377,328,3.31232,-0.0257098,0.231621,0.852793
1379,326,3.31171,-0.0266215,0.232077,0.852191
1381,324,3.31141,-0.0251606,0.231615,0.851798
1383,322,3.31286,-0.0219399,0.230526,0.850816
1385,320,3.31174,-0.0228227,0.23098,0.850221
1387,318,3.31212,-0.0215134,0.230919,0.849796
1389,316,3.31173,-0.0222498,0.230523,0.849488
1391,314,3.3113,-0.0218835,0.230524,0.848435
1393,312,3.31244,-0.0185185,0.2296,0.847508
1395,310,3.31218,-0.0193598,0.22943,0.847171
1397,308,3.31177,-0.0180551,0.22943,0.846489
1399,306,3.3111,-0.0276308,0.229431,0.84618
1401,304,3.31254,-0.0243692,0.228333,0.845213
1403,302,3.3124,-0.0251939,0.228334,0.844885
1405,300,3.31138,-0.0260348,0.228788,0.844312
1407,298,3.31148,-0.024728,0.22833,0.843859
1409,296,3.31032,-0.0256441,0.228784,0.843249
1411,294,3.31257,-0.0221792,0.227235,0.842607
1413,292,3.31257,-0.0207037,0.226776,0.843548
1415,290,3.31146,-0.0204591,0.22723,0.840863
1417,288,3.31087,-0.0212905,0.227225,0.840529
1419,286,3.3098,-0.0222681,0.227682,0.839905
1421,284,3.31253,-0.0164929,0.225674,0.8392
1423,282,3.31203,-0.0261266,0.225671,0.838897
1425,280,3.31075,-0.0271242,0.226122,0.838257
1427,278,3.31088,-0.0191344,0.226123,0.837905
1429,276,3.31223,-0.0244852,0.225018,0.837031
1431,274,3.31186,-0.0231554,0.224561,0.836574
1433,272,3.31099,-0.024131,0.225018,0.83596
1435,270,3.31056,-0.0249455,0.225014,0.835637
1437,268,3.31052,-0.0222457,0.224561,0.834532
1439,266,3.31214,-0.0188792,0.22362,0.833577
1441,264,3.31138,-0.0196822,0.223452,0.83325
1443,262,3.31111,-0.0205026,0.223447,0.832921
1445,260,3.31054,-0.0192188,0.223446,0.83222
1447,258,3.31288,-0.0155681,0.221566,0.831614
1449,256,3.31143,-0.0255798,0.222334,0.830959
1451,254,3.31137,-0.0173117,0.222334,0.830679
1453,252,3.31003,-0.0273072,0.222783,0.830044
1455,250,3.30993,-0.02599,0.222335,0.829597
1457,248,3.31167,-0.02339,0.221264,0.828336
1459,246,3.3114,-0.0220758,0.221224,0.827654
1461,244,3.31064,-0.0228984,0.221223,0.827335
1463,242,3.30967,-0.0239085,0.221675,0.8267
1465,240,3.31232,-0.0203671,0.220109,0.826055
1467,238,3.31146,-0.0190101,0.220113,0.82538
1469,236,3.31085,-0.0186191,0.220113,0.824328
1471,234,3.310525,-0.0193762,0.220108,0.824028
1473,232,3.3121,-0.0159637,0.218991,0.823072
1475,230,3.31146,-0.0258132,0.218988,0.822779
1477,228,3.31034,-0.026837,0.219439,0.822139
1479,226,3.30968,-0.0276845,0.219431,0.821798
1481,224,3.3098,-0.0262514,0.218983,0.821386
1483,222,3.3119,-0.020428,0.217414,0.820392
1485,220,3.31084,-0.02226,0.217859,0.81944
1487,218,3.30972,-0.0232888,0.218668,0.818796
1489,216,3.30933,-0.0241263,0.218303,0.818471
1491,214,3.3094,-0.0227104,0.217855,0.818048
1493,212,3.3107,-0.0191379,0.216728,0.817131
1495,210,3.31087,-0.0177732,0.216279,0.816692
1497,208,3.30991,-0.0187231,0.216721,0.816082
1499,206,3.30857,-0.0296527,0.217174,0.815164
1501,204,3.31002,-0.0262648,0.216049,0.814194
1503,202,3.31008,-0.0271988,0.216054,0.813863
1505,200,3.30997,-0.0255985,0.215599,0.8135
1507,198,3.3088,-0.0266916,0.216048,0.812838
1509,196,3.31112,-0.02295,0.214686,0.812229
1511,194,3.31134,-0.0215782,0.214021,0.811791
1513,192,3.30957,-0.0211531,0.214466,0.810491
1515,190,3.30843,-0.0222761,0.214917,0.809825
1517,188,3.31106,-0.0185457,0.21333,0.809195
1519,186,3.31107,-0.0170295,0.212882,0.808812
1521,184,3.30984,-0.0180271,0.213327,0.808177
1523,182,3.30925,-0.0188771,0.213359,0.807849
1525,180,3.30824,-0.0300378,0.213773,0.806918
1527,178,3.31077,-0.023927,0.211741,0.806214
1529,176,3.30972,-0.0250606,0.212186,0.805549
1531,174,3.30924,-0.0259074,0.212182,0.80547
1533,172,3.30872,-0.0245239,0.212183,0.804544
1535,170,3.31078,-0.0195075,0.210601,0.803184
1537,168,3.30959,-0.0205818,0.211046,0.802544
1539,166,3.30896,-0.0237964,0.211497,0.802318
1541,164,3.30912,-0.022264,0.211047,0.80193
1543,162,3.31088,-0.0163575,0.20946,0.800897
1545,160,3.31057,-0.0172731,0.209456,0.800549
1547,158,3.30944,-0.0284639,0.209902,0.799646
1549,156,3.30829,-0.0294843,0.210345,0.799021
1551,154,3.31086,-0.0233977,0.208314,0.798289
1553,152,3.30942,-0.0268449,0.209201,0.797727
1555,150,3.30953,-0.0252327,0.208754,0.798639
1557,148,3.30822,-0.0264145,0.209197,0.796685
1559,146,3.30764,-0.0259443,0.209199,0.795648
1561,144,3.31021,-0.02214,0.207603,0.79503
1563,142,3.30941,-0.0207887,0.207601,0.794319
1565,140,3.30863,-0.0216391,0.207598,0.794238
1567,138,3.30782,-0.022743,0.208045,0.793352
1569,136,3.31088,-0.0174601,0.20601,0.792325
1571,134,3.30955,-0.0184978,0.206455,0.791702
1573,132,3.3082,-0.0289963,0.206895,0.791096
1575,130,3.30791,-0.0299482,0.206896,0.790763
1577,128,3.31059,-0.022278,0.204851,0.789356
1579,126,3.3089,-0.0258549,0.20574,0.788774
1581,124,3.30824,-0.0267461,0.205738,0.788449
1583,122,3.30872,-0.0251858,0.205291,0.788054
1585,120,3.31059,-0.0190834,0.203691,0.787043
1587,118,3.30882,-0.0225932,0.204576,0.786474
1589,116,3.30915,-0.0219833,0.20413,0.785747
1591,114,3.30872,-0.0205156,0.20413,0.785074
1593,112,3.30692,-0.0216447,0.20457,0.784404
1595,110,3.30959,-0.0178455,0.202964,0.783754
1597,108,3.309,-0.0282744,0.203105,0.783491
1599,106,3.30795,-0.029419,0.20341,0.782833
1601,104,3.30674,-0.03141,0.203852,0.781873
1603,102,3.3096,-0.0250689,0.201798,0.781171
1605,100,3.30876,-0.0261325,0.202241,0.780538
1607,98,3.30834,-0.0245773,0.201793,0.780371
1609,96,3.30707,-0.0281734,0.202681,0.779567
1611,94,3.30931,-0.0228414,0.20107,0.778239
1613,92,3.30901,-0.0213372,0.200625,0.777826
1615,90,3.30896,-0.0222748,0.200623,0.777501
1617,88,3.30799,-0.0233412,0.201067,0.776884
1619,86,3.3097,-0.0170647,0.199451,0.775864
1621,84,3.30868,-0.0191425,0.199892,0.77488
1623,82,3.30819,-0.0297493,0.200027,0.7746
1625,80,3.30755,-0.0307011,0.199886,0.774263
1627,78,3.3091,-0.0270015,0.19871,0.773302
1629,76,3.30895,-0.0278924,0.198709,0.772999
1631,74,3.30887,-0.0249031,0.198267,0.772133
1633,72,3.3073,-0.0260477,0.198708,0.771237
1635,70,3.30978,-0.0221425,0.197086,0.770593
1637,68,3.31006,-0.0204973,0.196645,0.770217
1639,66,3.30867,-0.0216181,0.197084,0.769568
1641,64,3.30805,-0.0225568,0.197079,0.76924
1643,62,3.30767,-0.0220488,0.197083,0.768226
1645,60,3.30925,-0.0182822,0.195897,0.767263
1647,58,3.30935,-0.0193156,0.195897,0.766908
1649,56,3.30807,-0.0203232,0.196336,0.766314
1651,54,3.30689,-0.0297522,0.196339,0.765292
1653,52,3.30944,-0.0258372,0.19471,0.764644
1655,50,3.30904,-0.0266941,0.194707,0.76435
1657,48,3.30813,-0.025305,0.194705,0.763619
1659,46,3.30745,-0.0262741,0.194834,0.763285
1661,44,3.31034,-0.0223249,0.193078,0.762653
1663,42,3.30952,-0.0217967,0.193078,0.761636
1665,40,3.30837,-0.0229092,0.193513,0.760987
1667,38,3.30846,-0.0213525,0.193072,0.760574
1669,36,3.31011,-0.0174101,0.191877,0.75989
1671,34,3.3088,-0.0185777,0.192313,0.758995
1673,32,3.30844,-0.0304234,0.192437,0.758389
1675,30,3.30732,-0.031543,0.192748,0.757758
1677,28,3.30654,-0.0324862,0.192747,0.757438
1679,26,3.30861,-0.0286309,0.191545,0.75649
1681,24,3.30917,-0.0245848,0.190673,0.755969
1683,22,3.3076,-0.0282823,0.191545,0.755417
1685,20,3.30751,-0.0275585,0.191105,0.754714
1687,18,3.30951,-0.0236761,0.189904,0.753779
1689,16,3.30848,-0.0224146,0.189899,0.752991
1691,14,3.30945,-0.0234009,0.189705,0.752704
1693,12,3.30761,-0.0227493,0.189902,0.751706
1695,10,3.30978,-0.0187524,0.188261,0.751036
1697,8,3.30911,-0.0298113,0.188564,0.750727
1699,6,3.30804,-0.0309492,0.18907,0.750096
1701,4,3.30735,-0.0318322,0.188687,0.749793
1702,3,3.30708,-0.0319459,0.188683,0.749759