File: hust_correlation_analysis/matrices/HUST_1-2_cycle_feature_matrix.csv
cycle_number,rul,voltage,current,capacity,charge_capacity
1,2680,3.31552,-0.00614179,0.329367,1.05461
4,2677,3.30578,-0.0080784,0.334883,1.04868
7,2674,3.3072,-0.00631732,0.333768,1.04782
10,2671,3.30664,-0.00747767,0.334185,1.04714
13,2668,3.30679,-0.00806838,0.334179,1.04651
16,2665,3.30657,-0.00854411,0.334179,1.04618
19,2662,3.30813,-0.00633682,0.333066,1.04564
22,2659,3.30806,-0.00690989,0.333068,1.04526
25,2656,3.30773,-0.00742541,0.333061,1.0449
28,2653,3.30726,-0.00814818,0.333455,1.04418
31,2650,3.30739,-0.00815254,0.333033,1.04433
34,2647,3.30677,-0.00881149,0.333449,1.04375
37,2644,3.30671,-0.00934949,0.33345,1.04338
40,2641,3.30836,-0.00657741,0.332324,1.04314
43,2638,3.30825,-0.00711594,0.332321,1.04281
46,2635,3.30815,-0.007655,0.332324,1.04245
49,2632,3.30785,-0.00828046,0.332742,1.04186
52,2629,3.30777,-0.00824316,0.332741,1.04191
55,2626,3.30752,-0.00881941,0.332736,1.04151
58,2623,3.30775,-0.00880569,0.332314,1.04168
61,2620,3.30715,-0.00940151,0.332731,1.04111
64,2617,3.30835,-0.00724934,0.332129,1.04034
67,2614,3.30878,-0.00708597,0.331603,1.04058
70,2611,3.30859,-0.00767522,0.331636,1.04026
73,2608,3.3082,-0.0082801,0.332183,1.03969
76,2605,3.30803,-0.00826451,0.332048,1.0397
79,2602,3.30815,-0.00883932,0.332792,1.03931
82,2599,3.30788,-0.00886165,0.332041,1.03929
85,2596,3.3077,-0.008925,0.33204,1.03924
88,2593,3.30749,-0.00943049,0.332046,1.03894
91,2590,3.30921,-0.00713853,0.331032,1.03844
94,2587,3.30933,-0.00763653,0.330949,1.03813
97,2584,3.30915,-0.00763293,0.330945,1.03812
100,2581,3.30888,-0.00773027,0.33094,1.03804
103,2578,3.3086,-0.00831022,0.33136,1.0375
106,2575,3.30846,-0.00835838,0.331357,1.03746
109,2572,3.3088,-0.00830584,0.330936,1.03767
112,2569,3.30833,-0.00887047,0.331366,1.03716
115,2566,3.30854,-0.00936363,0.331368,1.03684
118,2563,3.30835,-0.0093364,0.331367,1.03685
121,2560,3.30812,-0.00934282,0.331362,1.03683
124,2557,3.30945,-0.00719305,0.33067,1.03605
127,2554,3.30938,-0.00719972,0.33067,1.03604
130,2551,3.30924,-0.00719756,0.330666,1.03604
133,2548,3.30916,-0.0077804,0.330668,1.03568
136,2545,3.30923,-0.00828458,0.330684,1.03537
139,2542,3.30902,-0.00829143,0.330683,1.03537
142,2539,3.30898,-0.00824261,0.330683,1.0354
145,2536,3.30915,-0.00879537,0.330684,1.0353
148,2533,3.30892,-0.00877506,0.330684,1.03505
151,2530,3.30851,-0.00885511,0.331106,1.03485
154,2527,3.30844,-0.00933233,0.331109,1.03454
157,2524,3.30811,-0.00931627,0.33112,1.03459
160,2521,3.30944,-0.00721055,0.330435,1.0338
163,2518,3.30971,-0.00718034,0.330024,1.03399
166,2515,3.30923,-0.00718346,0.330431,1.03379
169,2512,3.30968,-0.00711635,0.330001,1.03397
172,2509,3.30972,-0.00766516,0.33,1.03361
175,2506,3.30958,-0.0076635,0.329996,1.03219
178,2503,3.30961,-0.0076988,0.330003,1.0336
181,2500,3.3092,-0.00827913,0.330404,1.03299
184,2497,3.30899,-0.0083761,0.330416,1.03296
187,2494,3.30883,-0.0083466,0.330417,1.03299
190,2491,3.30904,-0.00885663,0.331166,1.03265
193,2488,3.30891,-0.00883865,0.330412,1.03267
196,2485,3.30872,-0.008855,0.330417,1.03266
199,2482,3.30887,-0.00941075,0.330425,1.03231
202,2479,3.30863,-0.009353,0.330426,1.03236
205,2476,3.30802,-0.0094481,0.330844,1.03212
208,2473,3.30786,-0.00951763,0.330835,1.03207
211,2470,3.30971,-0.00722569,0.32972,1.03152
214,2467,3.30966,-0.00728328,0.329711,1.03142
217,2464,3.30959,-0.00731131,0.329697,1.03138
220,2461,3.30925,-0.00874699,0.330118,1.03156
223,2458,3.30929,-0.00865498,0.330093,1.03154
226,2455,3.30938,-0.00856687,0.330093,1.0316
229,2452,3.30941,-0.00788304,0.329689,1.03097
232,2449,3.30918,-0.00792085,0.32969,1.03096
235,2446,3.30912,-0.00791808,0.329689,1.03096
238,2443,3.30905,-0.00791422,0.329687,1.03095
241,2440,3.3092,-0.00792404,0.329685,1.03096
244,2437,3.30905,-0.00846266,0.329701,1.03064
247,2434,3.30894,-0.00895729,0.329705,1.03033
250,2431,3.30879,-0.00897305,0.329703,1.03032
253,2428,3.30874,-0.00897642,0.329702,1.03032
256,2425,3.30866,-0.00905851,0.3297,1.03027
259,2422,3.30868,-0.00903888,0.329692,1.03025
262,2419,3.30838,-0.00959409,0.330115,1.02972
265,2416,3.30842,-0.00953829,0.329701,1.02996
268,2413,3.31031,-0.00725227,0.328602,1.02944
271,2410,3.31023,-0.00724361,0.3286,1.02943
274,2407,3.31013,-0.00719884,0.328592,1.02945
277,2404,3.30985,-0.00727845,0.328591,1.02937
280,2401,3.30986,-0.00732985,0.328588,1.02933
283,2398,3.3094,-0.00797183,0.329006,1.02876
286,2395,3.30966,-0.00786437,0.328589,1.029
289,2392,3.30954,-0.00845192,0.329019,1.02849
292,2389,3.30985,-0.0083177,0.3286,1.02874
295,2386,3.30974,-0.00833335,0.328736,1.02872
298,2383,3.30942,-0.00898908,0.329015,1.02813
301,2380,3.30918,-0.00897595,0.329014,1.02814
304,2377,3.30952,-0.00896982,0.328588,1.02828
307,2374,3.30891,-0.00897498,0.328921,1.02813
310,2371,3.30901,-0.00954792,0.329025,1.0292
313,2368,3.30878,-0.00944009,0.329029,1.02789
316,2365,3.31052,-0.00666615,0.32792,1.0274
319,2362,3.31071,-0.00726439,0.327914,1.02726
322,2359,3.31061,-0.00724866,0.328658,1.02724
325,2356,3.31033,-0.00726478,0.327908,1.02723
328,2353,3.31022,-0.00730506,0.327907,1.02719
331,2350,3.31033,-0.00785673,0.327921,1.02688
334,2347,3.31032,-0.00776132,0.328055,1.02695
337,2344,3.30995,-0.00837718,0.328346,1.0264
340,2341,3.31019,-0.0083383,0.327926,1.02659
343,2338,3.31007,-0.00836013,0.328054,1.02657
346,2335,3.31009,-0.00833648,0.32792,1.02658
349,2332,3.31002,-0.00837365,0.328047,1.02653
352,2329,3.30996,-0.00896826,0.328058,1.02595
355,2326,3.30979,-0.00882743,0.327941,1.02631
358,2323,3.30956,-0.00947897,0.328504,1.02576
361,2320,3.30943,-0.00947316,0.328363,1.02574
364,2317,3.30936,-0.00943167,0.328359,1.02575
367,2314,3.30963,-0.00946967,0.327923,1.02584
370,2311,3.3095,-0.00943801,0.327918,1.02585
373,2308,3.31089,-0.00726184,0.327231,1.02506
376,2305,3.31126,-0.00713696,0.326841,1.02541
379,2302,3.3109,-0.00781728,0.32727,1.02482
382,2299,3.31082,-0.00768384,0.327316,1.0249
385,2296,3.31067,-0.00773498,0.327268,1.02488
388,2293,3.31081,-0.00825355,0.327264,1.02452
391,2290,3.31081,-0.00830332,0.32727,1.02451
394,2287,3.31058,-0.00829155,0.327258,1.02447
397,2284,3.31042,-0.00830147,0.32726,1.02449
400,2281,3.31047,-0.00888606,0.327264,1.02411
403,2278,3.31034,-0.00883228,0.327273,1.02417
406,2275,3.30996,-0.00884503,0.327684,1.02398
409,2272,3.30973,-0.00905482,0.327667,1.02379
412,2269,3.31002,-0.00891374,0.327235,1.02401
415,2266,3.31016,-0.00892404,0.327361,1.02399
418,2263,3.30974,-0.00950546,0.327654,1.02346
421,2260,3.30942,-0.00954658,0.327656,1.02343
424,2257,3.30966,-0.00950716,0.327232,1.02362
427,2254,3.31115,-0.00727174,0.326546,1.02286
430,2251,3.31096,-0.00727402,0.326544,1.02285
433,2248,3.31095,-0.00734109,0.326541,1.02131
436,2245,3.31137,-0.00723107,0.326261,1.02303
439,2242,3.31101,-0.00731198,0.326538,1.02282
442,2239,3.31087,-0.00787949,0.326546,1.02246
445,2236,3.31074,-0.00791297,0.326692,1.02247
448,2233,3.3107,-0.0083889,0.32656,1.02218
451,2230,3.31055,-0.00839763,0.326547,1.02214
454,2227,3.31056,-0.00840538,0.327292,1.02212
457,2224,3.31056,-0.00838505,0.326542,1.02215
460,2221,3.31063,-0.009005,0.326548,1.02173
463,2218,3.31049,-0.00900318,0.326553,1.02176
466,2215,3.31023,-0.00951752,0.326997,1.02134
469,2212,3.3099,-0.00956803,0.326997,1.02131
472,2209,3.31037,-0.00949508,0.32657,1.0215
475,2206,3.31021,-0.00949523,0.326548,1.02144
478,2203,3.31,-0.00956772,0.326544,1.02137
481,2200,3.31149,-0.00727554,0.325982,1.02065
484,2197,3.3118,-0.00718968,0.32543,1.02085
487,2194,3.31116,-0.00733384,0.32586,1.02063
490,2191,3.31177,-0.00780366,0.325535,1.02053
493,2188,3.31141,-0.00784049,0.32588,1.02037
496,2185,3.31154,-0.00775127,0.326182,1.02051
499,2182,3.31129,-0.00781951,0.325435,1.02045
502,2179,3.31136,-0.00783234,0.325436,1.02071
505,2176,3.31093,-0.00841156,0.325851,1.0199
508,2173,3.31087,-0.00851347,0.325873,1.0199
511,2170,3.31108,-0.00890844,0.325885,1.01967
514,2167,3.31104,-0.00895356,0.325891,1.01967
517,2164,3.31093,-0.00939081,0.32589,1.01937
520,2161,3.31083,-0.00948841,0.325886,1.0193
523,2158,3.31053,-0.00949329,0.325882,1.01929
526,2155,3.31053,-0.00945068,0.326632,1.01932
529,2152,3.31193,-0.00724745,0.325202,1.01855
532,2149,3.31238,-0.0071277,0.324789,1.01881
535,2146,3.31227,-0.00706861,0.324921,1.01886
538,2143,3.31178,-0.00778013,0.325204,1.01822
541,2140,3.31203,-0.00770603,0.32479,1.01845
544,2137,3.3117,-0.00775566,0.325113,1.01825
547,2134,3.31167,-0.0083593,0.325207,1.01787
550,2131,3.31135,-0.00837989,0.325209,1.01784
553,2128,3.3113,-0.00836992,0.325213,1.01763
556,2125,3.31154,-0.00828625,0.324782,1.01831
559,2122,3.31133,-0.00888292,0.325207,1.01752
562,2119,3.31127,-0.00887694,0.325201,1.01752
565,2116,3.3116,-0.00882558,0.324779,1.01769
568,2113,3.31095,-0.00892305,0.325196,1.01747
571,2110,3.31125,-0.00894751,0.324775,1.01786
574,2107,3.31093,-0.00957079,0.325199,1.01704
577,2104,3.31092,-0.00954854,0.325197,1.01705
580,2101,3.31125,-0.00943011,0.324773,1.01728
583,2098,3.31257,-0.00715643,0.324094,1.01656
586,2095,3.3124,-0.00724187,0.324091,1.0165
589,2092,3.31236,-0.00728463,0.324089,1.01648
592,2089,3.31234,-0.00724934,0.324096,1.01652
595,2086,3.31258,-0.0072145,0.323663,1.01668
598,2083,3.31203,-0.00787779,0.324081,1.01605
601,2080,3.312,-0.00790353,0.324093,1.01607
604,2077,3.3123,-0.00839025,0.324095,1.01577
607,2074,3.31221,-0.00833199,0.324089,1.0158
610,2071,3.31197,-0.0083635,0.324215,1.01577
613,2068,3.312,-0.00839091,0.324087,1.01575
616,2065,3.31188,-0.00894951,0.324089,1.01538
619,2062,3.3118,-0.00895468,0.324224,1.01538
622,2059,3.31148,-0.00898277,0.324092,1.01537
625,2056,3.31171,-0.00950335,0.324102,1.01507
628,2053,3.31119,-0.00952255,0.32452,1.0149
631,2050,3.31336,-0.00658641,0.322996,1.01492
634,2047,3.31295,-0.00718946,0.323329,1.01436
637,2044,3.31316,-0.00710731,0.322989,1.01456
640,2041,3.31315,-0.00710099,0.322987,1.01456
643,2038,3.31246,-0.00719174,0.323402,1.01431
646,2035,3.3128,-0.0073296,0.32298,1.01439
649,2032,3.31255,-0.00790361,0.323404,1.01385
652,2029,3.31235,-0.00794625,0.323545,1.01384
655,2026,3.31262,-0.00834107,0.323401,1.01357
658,2023,3.31228,-0.00839805,0.323406,1.01354
661,2020,3.31276,-0.00834362,0.322981,1.01373
664,2017,3.31231,-0.00845227,0.323407,1.01351
667,2014,3.31252,-0.00841327,0.322979,1.01366
670,2011,3.31219,-0.00898908,0.323402,1.01314
673,2008,3.31198,-0.00907836,0.323407,1.01311
676,2005,3.31199,-0.00950962,0.32341,1.01284
679,2002,3.31193,-0.0094883,0.323326,1.01284
682,1999,3.31186,-0.0094867,0.323405,1.01282
685,1996,3.31175,-0.00957744,0.323402,1.01278
688,1993,3.31348,-0.00719656,0.322296,1.01224
691,1990,3.3135,-0.00729044,0.322295,1.01219
694,1987,3.31345,-0.00723196,0.322299,1.01225
697,1984,3.3129,-0.00788049,0.322718,1.01166
700,1981,3.31331,-0.00782662,0.322296,1.01185
703,1978,3.31299,-0.00786216,0.322272,1.01174
706,1975,3.31294,-0.00789258,0.322275,1.01173
709,1972,3.31248,-0.00830698,0.322691,1.0113
712,1969,3.31255,-0.00857859,0.322725,1.01147
715,1966,3.31305,-0.00843961,0.322303,1.01147
718,1963,3.31297,-0.008844,0.322395,1.01123
721,1960,3.31292,-0.00891485,0.322295,1.01113
724,1957,3.31276,-0.00902201,0.322373,1.01107
727,1954,3.31267,-0.00895573,0.322281,1.01107
730,1951,3.3126,-0.00962909,0.322279,1.01061
733,1948,3.31206,-0.00969716,0.322713,1.01026
736,1945,3.31385,-0.0072949,0.321618,1.01
739,1942,3.31377,-0.0072268,0.32163,1.01007
742,1939,3.31421,-0.00719913,0.321201,1.01021
745,1936,3.3138,-0.00776434,0.321616,1.00968
748,1933,3.3137,-0.00785561,0.321614,1.00961
751,1930,3.31404,-0.00775495,0.32119,1.00982
754,1927,3.31373,-0.00837436,0.321606,1.00926
757,1924,3.31347,-0.00831797,0.321614,1.00931
760,1921,3.31332,-0.00839314,0.321616,1.00928
763,1918,3.31349,-0.00893217,0.321623,1.00895
766,1915,3.31315,-0.00895832,0.32162,1.00891
769,1912,3.31301,-0.00895883,0.321618,1.00892
772,1909,3.31304,-0.00897881,0.321608,1.00886
775,1906,3.31274,-0.00954241,0.322105,1.00834
778,1903,3.3126,-0.00957544,0.321364,1.00832
781,1900,3.3128,-0.0094907,0.321608,1.00853
784,1897,3.31444,-0.00726718,0.32093,1.00777
787,1894,3.31453,-0.00716646,0.32051,1.00656
790,1891,3.31393,-0.00727055,0.320929,1.00777
793,1888,3.3141,-0.00785391,0.320921,1.00737
796,1885,3.31394,-0.00783882,0.32092,1.00735
799,1882,3.31383,-0.00788933,0.32092,1.00734
802,1879,3.31345,-0.00800511,0.320899,1.00719
805,1876,3.31358,-0.00796808,0.320926,1.0073
808,1873,3.31376,-0.00849017,0.320927,1.00696
811,1870,3.31349,-0.00842402,0.320923,1.00699
814,1867,3.31322,-0.00909814,0.321342,1.00639
817,1864,3.31372,-0.00901469,0.320933,1.00663
820,1861,3.31338,-0.00898176,0.320925,1.00663
823,1858,3.31329,-0.00907064,0.320928,1.00658
826,1855,3.31301,-0.00993409,0.321348,1.00587
829,1852,3.31503,-0.00716313,0.319838,1.0058
832,1849,3.31452,-0.00722835,0.320244,1.00555
835,1846,3.31474,-0.00719351,0.31982,1.00573
838,1843,3.31459,-0.00728724,0.319816,1.0043
841,1840,3.31421,-0.00784167,0.320235,1.00512
844,1837,3.31396,-0.00792078,0.320234,1.00507
847,1834,3.31395,-0.00789989,0.320213,1.00502
850,1831,3.31375,-0.00852473,0.320658,1.00453
853,1828,3.31387,-0.00843881,0.320248,1.00476
856,1825,3.31394,-0.00845886,0.320247,1.00476
859,1822,3.31393,-0.0089774,0.320241,1.0044
862,1819,3.31338,-0.00908527,0.320658,1.00417
865,1816,3.31365,-0.0090435,0.320233,1.00432
868,1813,3.31338,-0.00963771,0.320781,1.00379
871,1810,3.3132,-0.00960759,0.320652,1.00381
874,1807,3.31337,-0.00962939,0.32023,1.00394
877,1804,3.31469,-0.0073639,0.319547,1.00319
880,1801,3.31458,-0.00724975,0.31963,1.00329
883,1798,3.31404,-0.00798008,0.319867,1.00265
886,1795,3.31403,-0.00789539,0.320721,1.0027
889,1792,3.31444,-0.0078484,0.319559,1.00289
892,1789,3.31387,-0.00854897,0.319981,1.0023
895,1786,3.3144,-0.00832067,0.319568,1.00261
898,1783,3.31382,-0.00903655,0.319995,1.00202
901,1780,3.31367,-0.00897217,0.319988,1.00204
904,1777,3.31362,-0.00903754,0.319985,1.00199
907,1774,3.31364,-0.00955332,0.319976,1.00162
910,1771,3.31343,-0.00963409,0.319976,1.00156
913,1768,3.3134,-0.00966856,0.319969,1.00152
916,1765,3.31466,-0.00746665,0.319307,1.00078
919,1762,3.31455,-0.00789867,0.319317,1.00052
922,1759,3.31458,-0.00789484,0.31931,1.00051
925,1756,3.3144,-0.00782562,0.319304,1.00053
928,1753,3.31434,-0.00788273,0.319291,1.00047
931,1750,3.31436,-0.00792204,0.319286,1.00043
934,1747,3.31426,-0.00850104,0.31929,1.00005
937,1744,3.3138,-0.00857181,0.31972,0.999879
940,1741,3.31418,-0.00851944,0.319287,1.00003
943,1738,3.31364,-0.00918693,0.319714,0.999457
946,1735,3.31341,-0.00913478,0.319708,0.999726
949,1732,3.31369,-0.00910781,0.319273,0.999611
952,1729,3.31324,-0.0096923,0.3197,0.999322
955,1726,3.3129,-0.00977894,0.31969,0.99898
958,1723,3.31472,-0.00685093,0.318707,0.998801
961,1720,3.31434,-0.00750812,0.319028,0.998271
964,1717,3.31444,-0.00806195,0.319028,0.997922
967,1714,3.31472,-0.00786803,0.318619,0.998233
970,1711,3.31432,-0.00847783,0.319029,0.997651
973,1708,3.31419,-0.00855601,0.319029,0.997603
976,1705,3.31413,-0.00855545,0.319026,0.997855
979,1702,3.31409,-0.00855782,0.319024,0.997583
982,1699,3.31408,-0.00855228,0.319022,0.997593
985,1696,3.31347,-0.00914955,0.31945,0.997064
988,1693,3.31329,-0.0098031,0.319454,0.996651
991,1690,3.31322,-0.00975223,0.319456,0.996679
994,1687,3.31482,-0.00678113,0.318344,0.996515
997,1684,3.31479,-0.00740563,0.318344,0.996092
1000,1681,3.31476,-0.00734439,0.318346,0.996138
1003,1678,3.31427,-0.00800959,0.318772,0.995556
1006,1675,3.3146,-0.0079974,0.318346,0.995704
1009,1672,3.31404,-0.00850881,0.318773,0.995241
1012,1669,3.31382,-0.00857932,0.318774,0.995181
1015,1666,3.31397,-0.00913355,0.318771,0.99483
1018,1663,3.31381,-0.00911578,0.318903,0.994825
1021,1660,3.31362,-0.009173,0.31877,0.994803
1024,1657,3.31353,-0.00975263,0.318766,0.994409
1027,1654,3.31281,-0.00990684,0.319197,0.994166
1030,1651,3.31487,-0.0074468,0.31809,0.993661
1033,1648,3.31452,-0.00737634,0.318095,0.993725
1036,1645,3.31462,-0.00798791,0.318218,0.993317
1039,1642,3.31454,-0.00795007,0.3181,0.993355
1042,1639,3.31438,-0.00798774,0.318094,0.993316
1045,1636,3.31403,-0.00860161,0.318521,0.993034
1048,1633,3.31383,-0.00858864,0.318515,0.992775
1051,1630,3.31382,-0.00920771,0.318519,0.992379
1054,1627,3.31364,-0.00919635,0.318527,0.992401
1057,1624,3.31317,-0.00981199,0.318959,0.991873
1060,1621,3.31343,-0.00967905,0.318536,0.992109
1063,1618,3.31505,-0.00680358,0.317422,0.991858
1066,1615,3.31503,-0.00738522,0.31742,0.991471
1069,1612,3.3149,-0.00733049,0.317427,0.991521
1072,1609,3.31438,-0.00808363,0.317848,0.990867
1075,1606,3.31432,-0.00801626,0.31785,0.991168
1078,1603,3.3139,-0.00865623,0.318282,0.990358
1081,1600,3.3141,-0.0085693,0.3186,0.990562
1084,1597,3.31376,-0.00915062,0.318282,0.990048
1087,1594,3.31362,-0.00923723,0.318277,0.98997
1090,1591,3.31363,-0.00977662,0.318276,0.989628
1093,1588,3.3134,-0.00983433,0.318273,0.98958
1096,1585,3.3132,-0.00981638,0.318271,0.989574
1099,1582,3.3145,-0.00751493,0.317597,0.98882
1102,1579,3.31487,-0.00741664,0.317153,0.989007
1105,1576,3.31418,-0.00763425,0.317586,0.988715
1108,1573,3.31432,-0.00816357,0.317587,0.988371
1111,1570,3.31409,-0.00811432,0.317584,0.988382
1114,1567,3.31414,-0.00818976,0.317582,0.986992
1117,1564,3.31384,-0.00876336,0.31877,0.987842
1120,1561,3.31407,-0.00874284,0.31758,0.987964
1123,1558,3.31353,-0.00935478,0.318012,0.98744
1126,1555,3.31376,-0.00927484,0.317587,0.987658
1129,1552,3.31317,-0.00985041,0.318024,0.987153
1132,1549,3.31498,-0.00747191,0.316911,0.986564
1135,1546,3.31486,-0.0075313,0.316899,0.986481
1138,1543,3.31463,-0.00756172,0.316899,0.986457
1141,1540,3.3146,-0.00751817,0.316896,0.98648
1144,1537,3.31407,-0.0082095,0.317307,0.985818
1147,1534,3.31388,-0.00822262,0.317315,0.985843
1150,1531,3.31385,-0.0088805,0.317339,0.985479
1153,1528,3.31377,-0.00883035,0.317329,0.985506
1156,1525,3.31323,-0.00943836,0.317769,0.984974
1159,1522,3.31337,-0.0093202,0.317306,0.985118
1162,1519,3.31293,-0.0100795,0.317737,0.984453
1165,1516,3.31274,-0.0100446,0.317734,0.984472
1168,1513,3.31438,-0.00708509,0.316621,0.984515
1171,1510,3.3144,-0.00773344,0.316626,0.983854
1174,1507,3.31439,-0.00826138,0.31666,0.983602
1177,1504,3.31416,-0.00878509,0.317088,0.983126
1180,1501,3.31371,-0.0088849,0.317081,0.98303
1183,1498,3.31369,-0.0094103,0.317079,0.982678
1186,1495,3.31352,-0.00938494,0.316961,0.982663
1189,1492,3.31344,-0.00936431,0.317077,0.98271
1192,1489,3.31356,-0.00855928,0.316646,0.982096
1195,1486,3.3153,-0.00540175,0.315541,0.981778
1198,1483,3.31483,-0.00607061,0.315973,0.981452
1201,1480,3.31499,-0.00588246,0.315543,0.981728
1204,1477,3.31463,-0.0066872,0.315971,0.981036
1207,1474,3.31429,-0.00663131,0.315971,0.981071
1210,1471,3.31401,-0.00734523,0.316402,0.980474
1213,1468,3.31378,-0.00730878,0.316402,0.980496
1216,1465,3.31356,-0.0138694,0.316403,0.980152
1219,1462,3.31328,-0.0139119,0.316409,0.980159
1222,1459,3.31354,-0.0128973,0.315979,0.979668
1225,1456,3.31326,-0.0129158,0.31598,0.979649
1228,1453,3.31482,-0.0105063,0.315302,0.978923
1231,1450,3.31516,-0.0105549,0.31487,0.979045
1234,1447,3.31511,-0.00891639,0.314438,0.978954
1237,1444,3.31456,-0.0110941,0.315296,0.978538
1240,1441,3.31445,-0.00957273,0.314868,0.978167
1243,1438,3.31452,-0.0102319,0.314879,0.977993
1246,1435,3.31412,-0.00928519,0.314883,0.977337
1249,1432,3.31438,-0.00919843,0.314453,0.977538
1252,1429,3.31407,-0.0107859,0.315631,0.977646
1255,1426,3.31446,-0.00820959,0.314017,0.975625
1258,1423,3.31369,-0.00987724,0.314876,0.97692
1261,1420,3.31494,-0.00749144,0.314199,0.97618
1264,1417,3.31525,-0.00747821,0.313774,0.976351
1267,1414,3.3153,-0.00657317,0.313371,0.975865
1270,1411,3.3147,-0.0130803,0.313773,0.975364
1273,1408,3.31462,-0.00670092,0.313756,0.975518
1276,1405,3.31435,-0.0132011,0.313752,0.975204
1279,1402,3.3145,-0.00722219,0.313748,0.975151
1282,1399,3.31431,-0.00730385,0.313744,0.975093
1285,1396,3.31395,-0.00791023,0.314177,0.974567
1288,1393,3.31356,-0.0139698,0.314181,0.974572
1291,1390,3.31353,-0.014458,0.314184,0.974264
1294,1387,3.3133,-0.0144355,0.314184,0.974283
1297,1384,3.31516,-0.0121088,0.313072,0.973639
1300,1381,3.31508,-0.0120661,0.313071,0.973654
1303,1378,3.31495,-0.0121242,0.313066,0.973606
1306,1375,3.31441,-0.0127803,0.313496,0.973029
1309,1372,3.31452,-0.0112208,0.313066,0.972901
1312,1369,3.31427,-0.0128511,0.313499,0.972995
1315,1366,3.3138,-0.0118728,0.31351,0.972367
1318,1363,3.31393,-0.0108588,0.313087,0.971893
1321,1360,3.31423,-0.0108123,0.312646,0.972043
1324,1357,3.31371,-0.0114426,0.313072,0.971479
1327,1354,3.3137,-0.00994983,0.31264,0.971295
1330,1351,3.31537,-0.00910697,0.311966,0.970866
1333,1348,3.31522,-0.0074924,0.311543,0.970772
1336,1345,3.31529,-0.00755519,0.311538,0.970721
1339,1342,3.31449,-0.0112802,0.312827,0.970474
1342,1339,3.31444,-0.00970298,0.312397,0.970331
1345,1336,3.31464,-0.00875567,0.311962,0.969778
1348,1333,3.31444,-0.00881489,0.312089,0.96973
1351,1330,3.31424,-0.00879187,0.31196,0.969749
1354,1327,3.31398,-0.0079478,0.311961,0.969003
1357,1324,3.3143,-0.00785732,0.311529,0.96919
1360,1321,3.3135,-0.00950838,0.312376,0.969118
1363,1318,3.31341,-0.0100484,0.312375,0.96876
1366,1315,3.31534,-0.00558636,0.310861,0.968392
1369,1312,3.31505,-0.0121369,0.310855,0.968081
1372,1309,3.31481,-0.0111465,0.310855,0.967421
1375,1306,3.31474,-0.011248,0.310858,0.967368
1378,1303,3.31439,-0.0128124,0.311285,0.967513
1381,1300,3.31423,-0.0134544,0.311283,0.967089
1384,1297,3.31418,-0.0133699,0.311287,0.967163
1387,1294,3.31467,-0.0117899,0.310434,0.967178
1390,1291,3.31395,-0.0124843,0.311286,0.96644
1393,1288,3.31428,-0.0108496,0.310429,0.966473
1396,1285,3.31391,-0.0115193,0.310855,0.965901
1399,1282,3.31351,-0.0130521,0.311283,0.966069
1402,1279,3.31505,-0.0107212,0.310609,0.965294
1405,1276,3.31538,-0.00907469,0.309754,0.965345
1408,1273,3.31522,-0.00906054,0.309758,0.965352
1411,1270,3.31468,-0.00974629,0.31019,0.964794
1414,1267,3.31437,-0.008847,0.310281,0.964078
1417,1264,3.31466,-0.00880289,0.309762,0.964257
1420,1261,3.3145,-0.00873197,0.309827,0.964289
1423,1258,3.31432,-0.0094296,0.310191,0.963713
1426,1255,3.31407,-0.00945352,0.310187,0.963688
1429,1252,3.31411,-0.0100263,0.310192,0.963317
1432,1249,3.3138,-0.00844839,0.309761,0.963175
1435,1246,3.31539,-0.00541282,0.308645,0.962951
1438,1243,3.31488,-0.00621827,0.308996,0.962283
1441,1240,3.31523,-0.00612531,0.308642,0.962485
1444,1237,3.31465,-0.0128741,0.309071,0.961935
1447,1234,3.31452,-0.012897,0.309068,0.961918
1450,1231,3.314,-0.0134851,0.309495,0.96139
1453,1228,3.3146,-0.0117524,0.308616,0.961418
1456,1225,3.31401,-0.0134576,0.309051,0.961496
1459,1222,3.31379,-0.0125855,0.309067,0.960815
1462,1219,3.31329,-0.0133821,0.308858,0.960177
1465,1216,3.3136,-0.0131613,0.30907,0.960447
1468,1213,3.31518,-0.00922421,0.307963,0.959531
1471,1210,3.31501,-0.00919857,0.307961,0.959537
1474,1207,3.31538,-0.00911322,0.307661,0.959735
1477,1204,3.31492,-0.00970188,0.307959,0.959194
1480,1201,3.31485,-0.00828478,0.307533,0.958975
1483,1198,3.31419,-0.0105043,0.308392,0.958584
1486,1195,3.31475,-0.00886586,0.307542,0.958623
1489,1192,3.3144,-0.00794888,0.30754,0.957921
1492,1189,3.31424,-0.00851316,0.307541,0.957493
1495,1186,3.31358,-0.0085691,0.307965,0.957367
1498,1183,3.31535,-0.00609889,0.306864,0.956815
1501,1180,3.31526,-0.0061117,0.306864,0.956935
1504,1177,3.31462,-0.0128746,0.307294,0.956267
1507,1174,3.31495,-0.0112062,0.307199,0.956367
1510,1171,3.31485,-0.0117651,0.306458,0.956004
1513,1168,3.31478,-0.0117848,0.306452,0.955971
1516,1165,3.31417,-0.0125011,0.30687,0.955352
1519,1162,3.31391,-0.0140968,0.307288,0.95548
1522,1159,3.31366,-0.0131593,0.307285,0.954767
1525,1156,3.31385,-0.0131463,0.30686,0.953404
1528,1153,3.31541,-0.00920523,0.305762,0.954011
1531,1150,3.31507,-0.00922026,0.305768,0.954018
1534,1147,3.31462,-0.00982698,0.306258,0.953263
1537,1144,3.3147,-0.00826146,0.305766,0.95333
1540,1141,3.31453,-0.00881132,0.305827,0.95297
1543,1138,3.31433,-0.00879708,0.305765,0.952976
1546,1135,3.3141,-0.00794535,0.305761,0.952224
1549,1132,3.31389,-0.0079743,0.30576,0.952193
1552,1129,3.31376,-0.0101036,0.30618,0.951983
1555,1126,3.31365,-0.0085553,0.306501,0.951814
1558,1123,3.31554,-0.00609204,0.304784,0.951003
1561,1120,3.31497,-0.00615159,0.30508,0.951057
1564,1117,3.31494,-0.0122285,0.304658,0.95125
1567,1114,3.31479,-0.00673224,0.305078,0.950705
1570,1111,3.31441,-0.0128674,0.305079,0.9507
1573,1108,3.3142,-0.0134592,0.305081,0.950064
1576,1105,3.31392,-0.0125531,0.305082,0.949594
1579,1102,3.31362,-0.0125878,0.305081,0.949576
1582,1099,3.31311,-0.0132477,0.305506,0.949285
1585,1096,3.31298,-0.0132555,0.305505,0.949006
1588,1093,3.31476,-0.0107959,0.304403,0.9482
1591,1090,3.31466,-0.0107964,0.304407,0.948458
1594,1087,3.31467,-0.00987271,0.303978,0.947864
1597,1084,3.31434,-0.0114631,0.304401,0.948019
1600,1081,3.31407,-0.0105622,0.304533,0.947305
1603,1078,3.31396,-0.0110348,0.304407,0.947008
1606,1075,3.31373,-0.0111081,0.304407,0.946721
1609,1072,3.31335,-0.0101483,0.304405,0.946252
1612,1069,3.31492,-0.00717485,0.303306,0.94601
1615,1066,3.3149,-0.00771296,0.303306,0.945675
1618,1063,3.31489,-0.00778604,0.303305,0.945624
1621,1060,3.31477,-0.00821169,0.303301,0.94535
1624,1057,3.31465,-0.00669509,0.302883,0.945159
1627,1054,3.31344,-0.0135949,0.303733,0.94443
1630,1051,3.31329,-0.0142585,0.303734,0.944018
1633,1048,3.31363,-0.0141563,0.303309,0.944223
1636,1045,3.31309,-0.0148048,0.303733,0.943503
1639,1042,3.31501,-0.0107294,0.302212,0.942961
1642,1039,3.31472,-0.0107405,0.302209,0.94294
1645,1036,3.31441,-0.011397,0.302635,0.942393
1648,1033,3.31439,-0.0104197,0.302223,0.941883
1651,1030,3.31418,-0.0103409,0.302352,0.941962
1654,1027,3.31375,-0.00948548,0.302224,0.941181
1657,1024,3.31391,-0.0110293,0.302274,0.941481
1660,1021,3.31318,-0.0102073,0.302633,0.940535
1663,1018,3.3152,-0.00700907,0.301237,0.940584
1666,1015,3.31463,-0.0077328,0.301537,0.939978
1669,1012,3.31421,-0.00833624,0.30141,0.939452
1672,1009,3.31407,-0.00681222,0.301535,0.939251
1675,1006,3.31414,-0.00746908,0.301541,0.938866
1678,1003,3.31342,-0.00803177,0.301962,0.938358
1681,1000,3.3137,-0.00796459,0.301604,0.938551
1684,997,3.31316,-0.00861976,0.301876,0.937995
1687,994,3.31419,-0.0123649,0.301292,0.937267
1690,991,3.31456,-0.0123661,0.300865,0.937417
1693,988,3.3141,-0.0114208,0.300862,0.936686
1696,985,3.31386,-0.0114056,0.300859,0.936694
1699,982,3.31377,-0.0120638,0.300868,0.936309
1702,979,3.31343,-0.0111181,0.300868,0.935591
1705,976,3.31316,-0.0127242,0.301292,0.935747
1708,973,3.3129,-0.0132859,0.301284,0.935379
1711,970,3.31483,-0.0086363,0.299765,0.935003
1714,967,3.31387,-0.00935862,0.30061,0.93425
1717,964,3.31417,-0.00996871,0.300192,0.934039
1720,961,3.31412,-0.00829548,0.299779,0.933955
1723,958,3.3138,-0.00740083,0.299783,0.933242
1726,955,3.31363,-0.00791282,0.299781,0.932897
1729,952,3.31312,-0.00860467,0.300195,0.932297
1732,949,3.3128,-0.00867404,0.300189,0.932499
1735,946,3.31432,-0.00624368,0.299515,0.931485
1738,943,3.31437,-0.00610672,0.299087,0.931698
1741,940,3.31386,-0.00687867,0.299512,0.931076
1744,937,3.31307,-0.0136767,0.299956,0.930656
1747,934,3.31314,-0.0126443,0.299532,0.930137
1750,931,3.31296,-0.0125991,0.299532,0.930178
1753,928,3.31288,-0.0132122,0.299529,0.929791
1756,925,3.31425,-0.00924639,0.298433,0.928813
1759,922,3.31379,-0.0108413,0.298848,0.928965
1762,919,3.31345,-0.00999458,0.298849,0.928186
1765,916,3.31292,-0.0106561,0.299275,0.927638
1768,913,3.31306,-0.00964774,0.298867,0.927155
1771,910,3.3127,-0.0101379,0.298865,0.926839
1774,907,3.31259,-0.0102264,0.298987,0.926784
1777,904,3.314,-0.00774125,0.298322,0.926081
1780,901,3.31376,-0.00768646,0.298198,0.92611
1783,898,3.3137,-0.0082967,0.29819,0.925715
1786,895,3.31281,-0.00995708,0.299035,0.925691
1789,892,3.31285,-0.00899343,0.298602,0.925099
1792,889,3.31223,-0.00817757,0.2986,0.924279
1795,886,3.31187,-0.0149797,0.298605,0.923998
1798,883,3.31312,-0.0126446,0.297941,0.923198
1801,880,3.31292,-0.0125434,0.298052,0.923235
1804,877,3.31287,-0.0116248,0.29751,0.922654
1807,874,3.3124,-0.0122758,0.297928,0.922093
1810,871,3.31217,-0.012294,0.297926,0.922069
1813,868,3.31198,-0.0128317,0.29792,0.921716
1816,865,3.31134,-0.0135147,0.298343,0.92115
1819,862,3.31335,-0.00947619,0.296828,0.920376
1822,859,3.31294,-0.00843956,0.296832,0.91973
1825,856,3.31309,-0.00836723,0.296406,0.919692
1828,853,3.31253,-0.00908819,0.296828,0.919325
1831,850,3.31207,-0.00820655,0.296823,0.918549
1834,847,3.31165,-0.00975453,0.297245,0.918753
1837,844,3.31358,-0.00569464,0.295727,0.917956
1840,841,3.31299,-0.00629957,0.296128,0.91744
1843,838,3.31212,-0.0133096,0.296586,0.916915
1846,835,3.31195,-0.0138568,0.296586,0.916594
1849,832,3.3118,-0.0144756,0.296585,0.916214
1852,829,3.31152,-0.014582,0.296583,0.916137
1855,826,3.31111,-0.0136143,0.296583,0.915431
1858,823,3.31276,-0.0109855,0.295489,0.914907
1861,820,3.31217,-0.0116993,0.29591,0.91432
1864,817,3.31171,-0.0107923,0.295908,0.913574
1867,814,3.31155,-0.0108269,0.295903,0.913537
1870,811,3.31124,-0.0114027,0.295906,0.913461
1873,808,3.3107,-0.0120294,0.296334,0.912683
1876,805,3.31243,-0.00947331,0.295246,0.91213
1879,802,3.31204,-0.00856956,0.295243,0.911632
1882,799,3.3122,-0.00852291,0.294815,0.91154
1885,796,3.31179,-0.00757456,0.294815,0.910813
1888,793,3.31109,-0.00815588,0.295243,0.91032
1891,790,3.31092,-0.00886999,0.295365,0.909897
1894,787,3.31219,-0.00630554,0.294578,0.909185
1897,784,3.31148,-0.0134377,0.294999,0.908598
1900,781,3.31127,-0.0140294,0.295009,0.908263
1903,778,3.311,-0.0140549,0.295004,0.90824
1906,775,3.3109,-0.0130001,0.294576,0.907701
1909,772,3.31062,-0.0136264,0.294695,0.907323
1912,769,3.31214,-0.00954579,0.293478,0.906366
1915,766,3.31154,-0.0101997,0.29391,0.905833
1918,763,3.31135,-0.0108449,0.293908,0.90545
1921,760,3.31091,-0.00985476,0.293914,0.904761
1924,757,3.31075,-0.0104937,0.293847,0.904374
1927,754,3.31239,-0.00731322,0.292817,0.904172
1930,751,3.31174,-0.00798807,0.293234,0.903605
1933,748,3.31165,-0.00695623,0.292854,0.903048
1936,745,3.31104,-0.00763995,0.293227,0.902478
1939,742,3.31086,-0.00834904,0.29323,0.902062
1942,739,3.30995,-0.0153714,0.293661,0.901585
1945,736,3.31167,-0.0128548,0.292579,0.901025
1948,733,3.31124,-0.011827,0.292698,0.900346
1951,730,3.31125,-0.0108134,0.292151,0.899777
1954,727,3.3106,-0.0115042,0.292574,0.899208
1957,724,3.31029,-0.0115797,0.292563,0.899151
1960,721,3.31196,-0.00891208,0.292211,0.898624
1963,718,3.3113,-0.0096598,0.291899,0.898036
1966,715,3.31135,-0.00860605,0.291483,0.897543
1969,712,3.31075,-0.00927638,0.292651,0.897011
1972,709,3.31027,-0.0131712,0.292777,0.897046
1975,706,3.30965,-0.0122158,0.292775,0.896305
1978,703,3.31139,-0.00956518,0.291679,0.895753
1981,700,3.31073,-0.0102972,0.292006,0.895165
1984,697,3.31068,-0.00925875,0.291671,0.894607
1987,694,3.31008,-0.00996688,0.292098,0.894043
1990,691,3.30978,-0.0105972,0.292103,0.893682
1993,688,3.31128,-0.00636716,0.291015,0.892793
1996,685,3.31104,-0.00698646,0.291014,0.892439
1999,682,3.31039,-0.00771192,0.291445,0.891856
2002,679,3.30985,-0.0142265,0.291445,0.891878
2005,676,3.30965,-0.0148069,0.291443,0.891528
2008,673,3.30893,-0.0155028,0.291868,0.890954
2011,670,3.31021,-0.0130055,0.291324,0.890165
2014,667,3.31014,-0.0119899,0.290772,0.8896
2017,664,3.30997,-0.012596,0.290785,0.889303
2020,661,3.30951,-0.0116298,0.290808,0.888881
2023,658,3.31122,-0.00898172,0.289717,0.888073
2026,655,3.31096,-0.00958808,0.289711,0.887707
2029,652,3.31048,-0.0086446,0.289697,0.886928
2032,649,3.30979,-0.00936036,0.290052,0.886357
2035,646,3.30955,-0.00996108,0.290115,0.885987
2038,643,3.3089,-0.0107219,0.290547,0.885402
2041,640,3.31061,-0.00809479,0.289457,0.8851
2044,637,3.30987,-0.0136701,0.289607,0.884191
2047,634,3.30961,-0.0143198,0.289482,0.88382
2050,631,3.30938,-0.0149491,0.289492,0.883468
2053,628,3.30885,-0.0138987,0.289474,0.88273
2056,625,3.31007,-0.0130328,0.28924,0.882146
2059,622,3.30971,-0.00717363,0.289673,0.881551
2062,619,3.30925,-0.0143432,0.289673,0.881232
2065,616,3.3093,-0.00775095,0.289669,0.8812
2068,613,3.30864,-0.00848929,0.290115,0.880653
2071,610,3.31013,-0.0124299,0.289028,0.880142
2074,607,3.30954,-0.013094,0.289466,0.879618
2077,604,3.30926,-0.0137878,0.289462,0.879211
2080,601,3.30871,-0.0127211,0.289459,0.878504
2083,598,3.30799,-0.0135625,0.289891,0.877875
2086,595,3.30779,-0.0141191,0.28989,0.87755
2089,592,3.30958,-0.0114792,0.288792,0.876962
2092,589,3.309,-0.0104996,0.288788,0.876223
2095,586,3.30896,-0.00946676,0.288369,0.875712
2098,583,3.30833,-0.0101763,0.28881,0.875176
2101,580,3.31009,-0.00584975,0.287401,0.874447
2104,577,3.30945,-0.0120987,0.286847,0.873504
2107,574,3.30878,-0.0128744,0.287272,0.872888
2110,571,3.30846,-0.0134906,0.287268,0.872525
2113,568,3.30785,-0.0141442,0.287704,0.872011
2116,565,3.30959,-0.0114892,0.286602,0.871416
2119,562,3.30927,-0.0115415,0.286611,0.871405
2122,559,3.3084,-0.0112902,0.287071,0.870175
2125,556,3.30835,-0.0101385,0.28664,0.869708
2128,553,3.31018,-0.00739505,0.285552,0.869187
2131,550,3.30953,-0.00642249,0.285537,0.868384
2134,547,3.30931,-0.00707989,0.285515,0.867952
2137,544,3.30841,-0.00946407,0.286383,0.867597
2140,541,3.30811,-0.00952859,0.28637,0.867544
2143,538,3.30786,-0.0101877,0.286376,0.867169
2146,535,3.30916,-0.00754297,0.285708,0.86641
2149,532,3.30902,-0.00657532,0.285293,0.865852
2152,529,3.30817,-0.0129713,0.285304,0.864775
2155,526,3.30788,-0.0135995,0.286036,0.864397
2158,523,3.30737,-0.0126144,0.285284,0.863634
2161,520,3.30901,-0.0116577,0.28462,0.863222
2164,517,3.30845,-0.0106566,0.284748,0.862497
2167,514,3.30813,-0.010637,0.284605,0.862477
2170,511,3.30736,-0.0113858,0.285045,0.861901
2173,508,3.30708,-0.0119697,0.285037,0.861569
2176,505,3.30866,-0.00829919,0.283953,0.860245
2179,502,3.30843,-0.00891154,0.284079,0.859915
2182,499,3.30811,-0.00891375,0.283947,0.859884
2185,496,3.30741,-0.00968836,0.284387,0.859311
2188,493,3.30741,-0.0102511,0.284494,0.859006
2191,490,3.30866,-0.00761751,0.283734,0.858231
2194,487,3.3078,-0.0100563,0.284614,0.857888
2197,484,3.30775,-0.00903216,0.284174,0.857292
2200,481,3.30698,-0.00973861,0.284611,0.856751
2203,478,3.30681,-0.0104211,0.28461,0.85637
2206,475,3.3079,-0.00774416,0.283962,0.85995
2209,472,3.30783,-0.0066641,0.283638,0.855098
2212,469,3.3069,-0.0149223,0.28397,0.854168
2215,466,3.30615,-0.0156449,0.284412,0.853639
2218,463,3.30585,-0.0162796,0.284407,0.853275
2221,460,3.30739,-0.0118928,0.283322,0.85234
2224,457,3.3071,-0.0125115,0.283313,0.851973
2227,454,3.30658,-0.0115463,0.283325,0.851246
2230,451,3.30625,-0.0121508,0.283323,0.850913
2233,448,3.3057,-0.011206,0.283325,0.850134
2236,445,3.30734,-0.0101595,0.282667,0.849764
2239,442,3.30683,-0.00915279,0.282667,0.84902
2242,439,3.3066,-0.00984708,0.282671,0.848652
2245,436,3.30625,-0.0105006,0.282666,0.848273
2248,433,3.30552,-0.0112275,0.283104,0.847715
2251,430,3.30749,-0.00675006,0.281573,0.84696
2254,427,3.30694,-0.0142897,0.281569,0.846609
2257,424,3.3061,-0.0150179,0.282018,0.846078
2260,421,3.30587,-0.0157103,0.282008,0.845673
2263,418,3.30563,-0.0145989,0.281551,0.845082
2266,415,3.30696,-0.0119584,0.280897,0.844319
2269,412,3.30684,-0.0109145,0.28047,0.843755
2272,409,3.30614,-0.0116107,0.280997,0.843192
2275,406,3.30612,-0.0105023,0.28045,0.842644
2278,403,3.30532,-0.0112358,0.280891,0.842101
2281,400,3.30728,-0.00673529,0.279378,0.841375
2284,397,3.30657,-0.007462,0.279818,0.840829
2287,394,3.30608,-0.0150421,0.279817,0.840486
2290,391,3.30533,-0.0158109,0.279591,0.839918
2293,388,3.30497,-0.0164785,0.280244,0.839516
2296,385,3.30651,-0.0120206,0.279146,0.838555
2299,382,3.30625,-0.0127204,0.279139,0.838148
2302,379,3.30599,-0.0133834,0.279255,0.837776
2305,376,3.30531,-0.0141683,0.27958,0.837209
2308,373,3.30507,-0.0148071,0.279578,0.836864
2311,370,3.3066,-0.0102545,0.278497,0.836001
2314,367,3.30648,-0.00920059,0.278064,0.835437
2317,364,3.30622,-0.00982749,0.277998,0.835086
2320,361,3.30568,-0.00880914,0.278053,0.834328
2323,358,3.30691,-0.00613203,0.277405,0.833548
2326,355,3.3067,-0.00680207,0.277404,0.833171
2329,352,3.30598,-0.00755568,0.277843,0.832604
2332,349,3.30571,-0.0082599,0.277846,0.832227
2335,346,3.30466,-0.0160236,0.278285,0.831684
2338,343,3.3067,-0.0120714,0.276801,0.830629
2341,340,3.30617,-0.0110436,0.276784,0.829929
2344,337,3.30587,-0.0116505,0.276775,0.829572
2347,334,3.30511,-0.0124207,0.277195,0.828968
2350,331,3.30479,-0.013076,0.277192,0.828597
2353,328,3.30659,-0.0096265,0.276103,0.828366
2356,325,3.30588,-0.010416,0.27654,0.827778
2359,322,3.30567,-0.0110753,0.276537,0.827414
2362,319,3.30513,-0.0100074,0.27654,0.826705
2365,316,3.30477,-0.0107607,0.276547,0.826331
2368,313,3.30646,-0.00688007,0.275588,0.825046
2371,310,3.3057,-0.00759009,0.2759,0.824501
2374,307,3.30525,-0.00938838,0.276329,0.824637
2377,304,3.30491,-0.0100677,0.277072,0.824261
2380,301,3.30433,-0.00906449,0.276324,0.823506
2383,298,3.30406,-0.00972455,0.276322,0.82313
2386,295,3.30539,-0.00695251,0.275682,0.822404
2389,292,3.30494,-0.0147077,0.275677,0.82205
2392,289,3.3046,-0.0154062,0.275694,0.821728
2395,286,3.30404,-0.0143817,0.275697,0.820995
2398,283,3.30602,-0.00966307,0.274175,0.820283
2401,280,3.30579,-0.010362,0.274166,0.819901
2404,277,3.3051,-0.0111387,0.274604,0.81933
2407,274,3.3043,-0.011913,0.275046,0.818755
2410,271,3.30404,-0.0125977,0.275036,0.818357
2413,268,3.30331,-0.0133702,0.276219,0.817789
2416,265,3.30519,-0.0105254,0.27439,0.817221
2419,262,3.30458,-0.00951183,0.274402,0.817009
2422,259,3.3045,-0.008406,0.273968,0.815979
2425,256,3.30392,-0.016161,0.273983,0.815671
2428,253,3.30534,-0.0133917,0.27333,0.814632
2431,250,3.30507,-0.0140454,0.273314,0.814527
2434,247,3.30437,-0.0148271,0.273757,0.813961
2437,244,3.30412,-0.0155044,0.273748,0.813579
2440,241,3.30338,-0.0163191,0.27419,0.812998
2443,238,3.30314,-0.0170328,0.274192,0.812617
2446,235,3.30475,-0.0123868,0.273115,0.811728
2449,232,3.30458,-0.0112795,0.272672,0.811164
2452,229,3.304,-0.0101847,0.272688,0.810477
2455,226,3.30375,-0.0108989,0.272676,0.810073
2458,223,3.3035,-0.0115578,0.272666,0.809705
2461,220,3.30489,-0.00878627,0.272025,0.808935
2464,217,3.30457,-0.00879996,0.27202,0.808917
2467,214,3.30431,-0.00947362,0.272021,0.808558
2470,211,3.30351,-0.0102447,0.272467,0.808011
2473,208,3.30325,-0.010915,0.272467,0.807672
2476,205,3.30472,-0.008102,0.271828,0.806903
2479,202,3.30439,-0.00876657,0.271829,0.806562
2482,199,3.30384,-0.00769341,0.271827,0.805811
2485,196,3.3032,-0.00850244,0.272276,0.80526
2488,193,3.30295,-0.00919892,0.272277,0.804895
2491,190,3.30272,-0.00986249,0.27238,0.80456
2494,187,3.30376,-0.0143052,0.271646,0.803817
2497,184,3.30299,-0.0151333,0.272099,0.803248
2500,181,3.30283,-0.0158208,0.272102,0.802896
2503,178,3.30222,-0.0147858,0.272097,0.802116
2506,175,3.30189,-0.0154466,0.2721,0.801788
2509,172,3.30381,-0.0125211,0.271017,0.801232
2512,169,3.30367,-0.0113655,0.270574,0.8007
2515,166,3.30297,-0.0121627,0.271018,0.800131
2518,163,3.30241,-0.0111244,0.271015,0.799365
2521,160,3.30215,-0.0117924,0.271013,0.799019
2524,157,3.30404,-0.00881429,0.269923,0.798467
2527,154,3.30367,-0.00889874,0.26992,0.798418
2530,151,3.30314,-0.00784207,0.269925,0.797673
2533,148,3.30254,-0.0158311,0.26994,0.79738
2536,145,3.30182,-0.016643,0.27038,0.796789
2539,142,3.30152,-0.0172447,0.270369,0.796454
2542,139,3.30291,-0.01445,0.269719,0.79565
2545,136,3.30292,-0.0133367,0.26927,0.795067
2548,133,3.30219,-0.0141196,0.269716,0.794514
2551,130,3.30194,-0.0147943,0.269713,0.794159
2554,127,3.30159,-0.0148415,0.269713,0.794133
2557,124,3.30299,-0.0119819,0.269076,0.793383
2560,121,3.30277,-0.0126951,0.269077,0.793015
2563,118,3.30227,-0.0116509,0.269075,0.792252
2566,115,3.30194,-0.0123274,0.269075,0.791889
2569,112,3.30193,-0.0111148,0.268625,0.79137
2572,109,3.30119,-0.0118825,0.269069,0.790816
2575,106,3.30311,-0.00896341,0.267986,0.790233
2578,103,3.30241,-0.00973739,0.268433,0.789684
2581,100,3.30206,-0.00976071,0.269175,0.789663
2584,97,3.30205,-0.00862992,0.26798,0.78909
2587,94,3.30128,-0.00942985,0.268431,0.788536
2590,91,3.30297,-0.013885,0.267353,0.788261
2593,88,3.30241,-0.0134374,0.267365,0.786952
2596,85,3.30219,-0.0141508,0.26737,0.786598
2599,82,3.30157,-0.0130638,0.267371,0.785835
2602,79,3.30124,-0.0130548,0.267353,0.785829
2605,76,3.30092,-0.0137299,0.267351,0.785472
2608,73,3.30234,-0.0108738,0.266719,0.784706
2611,70,3.30205,-0.0115786,0.266717,0.78434
2614,67,3.30133,-0.0123778,0.267168,0.783791
2617,64,3.30121,-0.0112439,0.266738,0.783251
2620,61,3.30116,-0.0100358,0.266292,0.78273
2623,58,3.30263,-0.00707063,0.265665,0.782035
2626,55,3.30161,-0.0154223,0.266127,0.781481
2629,52,3.30175,-0.0086643,0.266109,0.781053
2632,49,3.30105,-0.00945239,0.266558,0.780494
2635,46,3.30061,-0.0094637,0.266554,0.780491
2638,43,3.30027,-0.0101663,0.266542,0.780109
2641,40,3.30143,-0.0147292,0.265907,0.779366
2644,37,3.30121,-0.0154674,0.265918,0.779262
2647,34,3.30118,-0.0142237,0.265448,0.778448
2650,31,3.30037,-0.0151555,0.265918,0.777866
2653,28,3.30023,-0.0139249,0.265476,0.777369
2656,25,3.30193,-0.00909339,0.264399,0.776437
2659,22,3.30168,-0.00982332,0.264392,0.776048
2662,19,3.30135,-0.00982822,0.264385,0.776037
2665,16,3.30061,-0.0106541,0.264833,0.775443
2668,13,3.30036,-0.0113426,0.264821,0.775091
2671,10,3.2996,-0.012166,0.265266,0.774519
2674,7,3.30157,-0.00915825,0.264194,0.773958
2677,4,3.30155,-0.00797617,0.263757,0.773434
2678,3,3.30137,-0.00791866,0.263755,0.773458