File: hust_correlation_analysis/matrices/HUST_5-3_cycle_feature_matrix.csv
cycle_number,rul,voltage,current,capacity,charge_capacity
1,2691,3.32689,-0.0143536,0.279857,1.02883
4,2688,3.3137,-0.016548,0.286225,1.02157
7,2685,3.31462,-0.0146804,0.285284,1.02043
10,2682,3.31516,-0.0158536,0.285279,1.01984
13,2679,3.31441,-0.0165954,0.285278,1.01945
16,2676,3.31427,-0.0171786,0.285274,1.01915
19,2673,3.31594,-0.0146659,0.283916,1.01855
22,2670,3.31568,-0.0152699,0.284107,1.01825
25,2667,3.31561,-0.0159187,0.283914,1.01793
28,2664,3.31456,-0.0165826,0.284328,1.01735
31,2661,3.31505,-0.0172785,0.284326,1.01701
34,2658,3.31459,-0.0172995,0.284325,1.01699
37,2655,3.31378,-0.0180361,0.284742,1.0164
40,2652,3.31598,-0.0155512,0.28338,1.01581
43,2649,3.316,-0.0155855,0.28338,1.01576
46,2646,3.31542,-0.0162135,0.283794,1.01521
49,2643,3.31496,-0.0162872,0.283795,1.01518
52,2640,3.31508,-0.0168146,0.283795,1.0149
55,2637,3.3148,-0.0172947,0.283796,1.01467
58,2634,3.315,-0.0174602,0.283794,1.0146
61,2631,3.31482,-0.0180707,0.283797,1.0143
64,2628,3.31622,-0.0149083,0.28285,1.01377
67,2625,3.316,-0.0156623,0.282847,1.01339
70,2622,3.31581,-0.016227,0.282846,1.0131
73,2619,3.31548,-0.0162831,0.282842,1.01306
76,2616,3.31576,-0.0168261,0.282847,1.01281
79,2613,3.3158,-0.0169364,0.282845,1.01274
82,2610,3.31537,-0.0175693,0.282847,1.01244
85,2607,3.31454,-0.0182009,0.28326,1.01188
88,2604,3.31552,-0.0182066,0.282844,1.01211
91,2601,3.3146,-0.0182546,0.283263,1.01187
94,2598,3.31636,-0.0156694,0.281901,1.01128
97,2595,3.3163,-0.0156196,0.2819,1.01132
100,2592,3.31575,-0.0163779,0.281852,1.01071
103,2589,3.31608,-0.0163223,0.281896,1.01095
106,2586,3.31623,-0.016915,0.281896,1.01065
109,2583,3.31623,-0.0168585,0.281895,1.01069
112,2580,3.31642,-0.0174704,0.281894,1.01037
115,2577,3.31521,-0.0176582,0.282311,1.01006
118,2574,3.31507,-0.0182111,0.282311,1.00977
121,2571,3.31549,-0.0183086,0.28231,1.00973
124,2568,3.31498,-0.0182236,0.282312,1.00977
127,2565,3.31655,-0.0157527,0.281364,1.00891
130,2562,3.31642,-0.0156719,0.281675,1.00895
133,2559,3.31683,-0.0163223,0.281364,1.00863
136,2556,3.31693,-0.0163288,0.280945,1.00884
139,2553,3.31673,-0.0162152,0.280944,1.00889
142,2550,3.31628,-0.0170052,0.281361,1.00692
145,2547,3.31595,-0.0169475,0.281362,1.0083
148,2544,3.31574,-0.0170579,0.281363,1.00825
151,2541,3.31574,-0.0176613,0.281605,1.00772
154,2538,3.31574,-0.0176646,0.281361,1.00794
157,2535,3.31594,-0.0182564,0.28136,1.00765
160,2532,3.31559,-0.018207,0.28136,1.00768
163,2529,3.31535,-0.0182312,0.28136,1.00767
166,2526,3.31757,-0.0156339,0.279994,1.00707
169,2523,3.31653,-0.0157762,0.28041,1.00703
172,2520,3.31638,-0.0156978,0.28041,1.00681
175,2517,3.31711,-0.0163524,0.28041,1.00649
178,2514,3.31674,-0.0163644,0.280408,1.00648
181,2511,3.3167,-0.0163975,0.280407,1.00646
184,2508,3.3161,-0.0170013,0.280827,1.00594
187,2505,3.31632,-0.0169651,0.280826,1.00595
190,2502,3.31628,-0.0177429,0.280826,1.00556
193,2499,3.31597,-0.0176307,0.280825,1.00561
196,2496,3.31608,-0.0176642,0.280407,1.00583
199,2493,3.31601,-0.0176447,0.280407,1.00584
202,2490,3.3156,-0.0176936,0.280825,1.0056
205,2487,3.31561,-0.0183713,0.280824,1.00525
208,2484,3.31559,-0.0182768,0.280824,1.0053
211,2481,3.31566,-0.0183689,0.280824,1.00525
214,2478,3.31544,-0.0183316,0.280823,1.00527
217,2475,3.31741,-0.0156923,0.279454,1.00469
220,2472,3.31713,-0.0160773,0.279455,1.0045
223,2469,3.31708,-0.0157072,0.279454,1.00468
226,2466,3.31696,-0.0165196,0.279873,1.00406
229,2463,3.31625,-0.0164393,0.279872,1.00409
232,2460,3.31652,-0.0164898,0.279873,1.00407
235,2457,3.31686,-0.0171332,0.279872,1.00375
238,2454,3.31671,-0.0171143,0.279872,1.00376
241,2451,3.31675,-0.0171179,0.279453,1.00398
244,2448,3.31647,-0.017094,0.279812,1.00377
247,2445,3.31647,-0.017104,0.279872,1.00376
250,2442,3.31619,-0.0171339,0.279867,1.00374
253,2439,3.31555,-0.0173437,0.280288,1.00342
256,2436,3.31568,-0.0175351,0.280288,1.00332
259,2433,3.31569,-0.0178482,0.280287,1.00315
262,2430,3.31583,-0.0179315,0.280285,1.00311
265,2427,3.31528,-0.0179075,0.280288,1.00314
268,2424,3.3158,-0.018545,0.280288,1.00281
271,2421,3.31508,-0.0186605,0.280285,1.00274
274,2418,3.31462,-0.01865,0.281222,1.00253
277,2415,3.31564,-0.0185762,0.280284,1.00279
280,2412,3.31711,-0.0159439,0.278915,1.00221
283,2409,3.31685,-0.0160064,0.278915,1.00219
286,2406,3.31713,-0.0160272,0.278916,1.00218
289,2403,3.317,-0.0165565,0.278915,1.00191
292,2400,3.31638,-0.016648,0.278916,1.00187
295,2397,3.31656,-0.0165446,0.278915,1.00192
298,2394,3.31691,-0.0169521,0.278914,1.00171
301,2391,3.31626,-0.0173953,0.279333,1.00127
304,2388,3.31651,-0.0172004,0.278915,1.00159
307,2385,3.31691,-0.017938,0.278912,1.00123
310,2382,3.31661,-0.0178731,0.27892,1.00128
313,2379,3.31656,-0.0184591,0.278917,1.00098
316,2376,3.31646,-0.0185816,0.278918,1.00093
319,2373,3.31618,-0.0184873,0.278916,1.00097
322,2370,3.31572,-0.0186021,0.278916,1.0009
325,2367,3.31578,-0.0185604,0.278912,1.00091
328,2364,3.31577,-0.0185069,0.278911,1.00093
331,2361,3.3172,-0.0160378,0.277959,1.00004
334,2358,3.31816,-0.0158719,0.27755,1.00038
337,2355,3.318,-0.0165374,0.278052,1.00003
340,2352,3.31766,-0.0166257,0.277543,0.999985
343,2349,3.31763,-0.0165117,0.277545,1.00005
346,2346,3.31803,-0.0172245,0.27755,0.999717
349,2343,3.31709,-0.0173045,0.277961,0.999435
352,2340,3.31677,-0.0172935,0.277961,0.999436
355,2337,3.31749,-0.01723,0.277541,0.999685
358,2334,3.31723,-0.017977,0.277961,0.999096
361,2331,3.31692,-0.0179086,0.27754,0.999348
364,2328,3.31703,-0.0184725,0.277541,0.999068
367,2325,3.3169,-0.0184569,0.277251,0.999071
370,2322,3.31667,-0.0185359,0.277541,0.999032
373,2319,3.31615,-0.0185728,0.277958,0.998797
376,2316,3.31862,-0.0158627,0.277095,0.998229
379,2313,3.31886,-0.0159901,0.276172,0.998415
382,2310,3.31822,-0.0159622,0.276892,0.998211
385,2307,3.31875,-0.0165925,0.276585,0.997882
388,2304,3.31817,-0.0164911,0.276169,0.998154
391,2301,3.31858,-0.0164588,0.27617,0.998177
394,2298,3.3182,-0.0172663,0.276586,0.997553
397,2295,3.31747,-0.0172627,0.276585,0.997551
400,2292,3.3182,-0.0172099,0.276168,0.997797
403,2289,3.31769,-0.0172996,0.276583,0.997528
406,2286,3.31751,-0.0179611,0.276583,0.997196
409,2283,3.31751,-0.0179515,0.276583,0.997216
412,2280,3.31781,-0.0178713,0.276168,0.997469
415,2277,3.31724,-0.0186095,0.276584,0.996895
418,2274,3.31701,-0.0185875,0.276679,0.996899
421,2271,3.31877,-0.0152515,0.275211,0.996647
424,2268,3.3191,-0.015832,0.275212,0.996358
427,2265,3.31907,-0.0159335,0.275211,0.996298
430,2262,3.31919,-0.0158623,0.27521,0.996336
433,2259,3.31919,-0.0159165,0.27521,0.996297
436,2256,3.31918,-0.0166836,0.27521,0.995919
439,2253,3.31877,-0.0165244,0.27521,0.99601
442,2250,3.31924,-0.0171752,0.275213,0.995698
445,2247,3.31875,-0.017221,0.275058,0.995664
448,2244,3.31826,-0.0171611,0.275211,0.995702
451,2241,3.31934,-0.0171184,0.274795,0.995937
454,2238,3.31837,-0.017867,0.275715,0.995328
457,2235,3.31833,-0.0178539,0.275208,0.995336
460,2232,3.31843,-0.0178532,0.275208,0.995341
463,2229,3.31803,-0.0178791,0.275208,0.995333
466,2226,3.31806,-0.0185114,0.275208,0.99501
469,2223,3.31997,-0.0152098,0.273837,0.994757
472,2220,3.31724,-0.0192205,0.275624,0.994701
475,2217,3.31722,-0.0185952,0.275623,0.994745
478,2214,3.31996,-0.0153117,0.273834,0.994679
481,2211,3.31937,-0.0159231,0.274249,0.99415
484,2208,3.31939,-0.0159416,0.27425,0.994152
487,2205,3.31941,-0.0159719,0.274249,0.994131
490,2202,3.31896,-0.0159919,0.27425,0.99413
493,2199,3.31904,-0.0166512,0.274249,0.993788
496,2196,3.31895,-0.0165952,0.274249,0.993819
499,2193,3.31924,-0.0165964,0.274246,0.993813
502,2190,3.31838,-0.0167245,0.274663,0.99353
505,2187,3.31861,-0.0173413,0.274662,0.993225
508,2184,3.31885,-0.0173418,0.274663,0.993222
511,2181,3.31847,-0.0174389,0.274664,0.993179
514,2178,3.31897,-0.0177442,0.274246,0.993239
517,2175,3.31845,-0.0179529,0.274248,0.993135
520,2172,3.31826,-0.0180503,0.274247,0.993098
523,2169,3.3178,-0.0185859,0.274663,0.992608
526,2166,3.31782,-0.0186365,0.274663,0.992588
529,2163,3.31824,-0.0186303,0.274247,0.992804
532,2160,3.31763,-0.0186482,0.274664,0.992578
535,2157,3.32004,-0.0159919,0.27329,0.991978
538,2154,3.31933,-0.0161148,0.27329,0.991917
541,2151,3.31968,-0.0159335,0.272875,0.992231
544,2148,3.31924,-0.0166447,0.273289,0.991665
547,2145,3.31918,-0.016693,0.273381,0.991638
550,2142,3.31887,-0.01736,0.273703,0.991085
553,2139,3.31961,-0.0172635,0.273288,0.991345
556,2136,3.31855,-0.0174506,0.273704,0.991283
559,2133,3.3192,-0.0173367,0.273287,0.991305
562,2130,3.31875,-0.0174599,0.273705,0.991285
565,2127,3.31856,-0.0173969,0.27329,0.991283
568,2124,3.31918,-0.0180044,0.273287,0.990982
571,2121,3.31847,-0.0187465,0.273704,0.990648
574,2118,3.31882,-0.0186136,0.273287,0.990669
577,2115,3.31859,-0.0186477,0.273285,0.990648
580,2112,3.31887,-0.0186354,0.273285,0.99065
583,2109,3.31796,-0.0188062,0.273701,0.990345
586,2106,3.3187,-0.0186746,0.273286,0.990634
589,2103,3.32021,-0.0160321,0.272327,0.9898
592,2100,3.3196,-0.0161328,0.272327,0.989756
595,2097,3.32017,-0.016606,0.272327,0.989526
598,2094,3.31972,-0.0165782,0.272326,0.989532
601,2091,3.31982,-0.0167296,0.272327,0.989467
604,2088,3.31949,-0.0173869,0.272742,0.988921
607,2085,3.31949,-0.0173608,0.272741,0.988925
610,2082,3.31964,-0.0173692,0.272324,0.989123
613,2079,3.31921,-0.0172518,0.272323,0.989188
616,2076,3.31944,-0.0180864,0.272739,0.988555
619,2073,3.31848,-0.018047,0.27274,0.988582
622,2070,3.31918,-0.0179406,0.272323,0.988841
625,2067,3.31843,-0.0186333,0.272738,0.988275
628,2064,3.3188,-0.0187353,0.272669,0.988226
631,2061,3.31864,-0.0187802,0.272738,0.98821
634,2058,3.31843,-0.0186822,0.272737,0.988254
637,2055,3.32106,-0.0160354,0.270947,0.987857
640,2052,3.32059,-0.0157043,0.270945,0.98803
643,2049,3.32021,-0.0160523,0.271658,0.987636
646,2046,3.32009,-0.0167313,0.27136,0.987292
649,2043,3.32015,-0.0166902,0.27136,0.987314
652,2040,3.32002,-0.016696,0.271361,0.987314
655,2037,3.32004,-0.0167325,0.271359,0.987294
658,2034,3.3202,-0.0175117,0.271359,0.986905
661,2031,3.31976,-0.0173916,0.271359,0.986962
664,2028,3.31967,-0.0174291,0.271359,0.98694
667,2025,3.3187,-0.0175322,0.271771,0.986668
670,2022,3.3203,-0.0147217,0.270621,0.986141
673,2019,3.31911,-0.018116,0.271771,0.986376
676,2016,3.32047,-0.0148323,0.270622,0.986094
679,2013,3.31908,-0.0181404,0.271356,0.986575
682,2010,3.31911,-0.0187792,0.271772,0.986042
685,2007,3.31911,-0.0187202,0.271356,0.986286
688,2004,3.31999,-0.0154801,0.270205,0.985972
691,2001,3.31856,-0.0194595,0.271772,0.9857
694,1998,3.31965,-0.0160621,0.270621,0.98547
697,1995,3.32018,-0.0158014,0.270204,0.985816
700,1992,3.31911,-0.0161685,0.271036,0.985201
703,1989,3.32088,-0.0167554,0.270395,0.985121
706,1986,3.3205,-0.01688,0.270395,0.98506
709,1983,3.31986,-0.0174344,0.270901,0.984567
712,1980,3.31979,-0.0174878,0.27081,0.984544
715,1977,3.31923,-0.0176376,0.270809,0.984465
718,1974,3.31969,-0.0174498,0.270808,0.98456
721,1971,3.31939,-0.0177746,0.270808,0.984388
724,1968,3.31981,-0.0183096,0.270808,0.984106
727,1965,3.31936,-0.0181426,0.270809,0.984464
730,1962,3.31955,-0.01879,0.270809,0.983887
733,1959,3.31904,-0.0188781,0.270808,0.983849
736,1956,3.3209,-0.0154398,0.269432,0.98363
739,1953,3.32112,-0.0160958,0.269432,0.983292
742,1950,3.32107,-0.0161241,0.269431,0.983281
745,1947,3.32099,-0.0161444,0.269431,0.983266
748,1944,3.3208,-0.016139,0.26943,0.983272
751,1941,3.31977,-0.0167785,0.270068,0.98273
754,1938,3.32092,-0.0169264,0.269843,0.982654
757,1935,3.31928,-0.0168386,0.270066,0.982693
760,1932,3.31991,-0.0173218,0.270229,0.98224
763,1929,3.31947,-0.0176395,0.27026,0.982088
766,1926,3.32017,-0.0178954,0.269842,0.982174
769,1923,3.31925,-0.0182604,0.270765,0.981767
772,1920,3.32131,-0.0151331,0.268683,0.981595
775,1917,3.32106,-0.015257,0.268685,0.981541
778,1914,3.31932,-0.0186231,0.270258,0.981583
781,1911,3.3192,-0.0189162,0.270257,0.981442
784,1908,3.32128,-0.0156602,0.268463,0.981334
787,1905,3.32084,-0.0162205,0.268878,0.980843
790,1902,3.32058,-0.0162069,0.268879,0.980857
793,1899,3.32057,-0.0169569,0.268877,0.98047
796,1896,3.32092,-0.0168541,0.268878,0.980524
799,1893,3.32068,-0.0168665,0.268878,0.980518
802,1890,3.3201,-0.0176743,0.269293,0.980153
805,1887,3.32,-0.0177309,0.269294,0.979879
808,1884,3.3192,-0.0176335,0.269293,0.979923
811,1881,3.31968,-0.0182793,0.269292,0.979592
814,1878,3.31961,-0.0184451,0.269292,0.978245
817,1875,3.31928,-0.0183812,0.269293,0.979546
820,1872,3.31927,-0.0189938,0.26971,0.979021
823,1869,3.3197,-0.0183998,0.269293,0.979538
826,1866,3.3189,-0.0184595,0.269291,0.979511
829,1863,3.31909,-0.0189699,0.269291,0.979247
832,1860,3.31922,-0.0190869,0.269291,0.979191
835,1857,3.32052,-0.0164392,0.268327,0.978361
838,1854,3.3212,-0.016888,0.267911,0.978357
841,1851,3.32112,-0.0169306,0.26791,0.97832
844,1848,3.32083,-0.0169591,0.26791,0.978315
847,1845,3.32125,-0.0176527,0.26791,0.977966
850,1842,3.32068,-0.0176327,0.26791,0.97798
853,1839,3.31981,-0.0177913,0.268325,0.977686
856,1836,3.32035,-0.0184252,0.268832,0.977371
859,1833,3.31983,-0.0184808,0.268325,0.97734
862,1830,3.31986,-0.0189917,0.268619,0.97709
865,1827,3.32173,-0.0162944,0.267361,0.976283
868,1824,3.32146,-0.0164792,0.267358,0.976182
871,1821,3.32155,-0.0169436,0.267358,0.975941
874,1818,3.32137,-0.016974,0.267359,0.97572
877,1815,3.32058,-0.0170522,0.267356,0.975892
880,1812,3.32106,-0.0176974,0.267357,0.97556
883,1809,3.32043,-0.0177061,0.267774,0.975348
886,1806,3.32014,-0.0177352,0.26828,0.975338
889,1803,3.32028,-0.0184505,0.267772,0.974972
892,1800,3.32005,-0.0185074,0.267775,0.974959
895,1797,3.31981,-0.0189955,0.267774,0.974706
898,1794,3.31975,-0.0190549,0.267773,0.974679
901,1791,3.32099,-0.0165499,0.266991,0.973501
904,1788,3.32077,-0.0163067,0.266802,0.973858
907,1785,3.3218,-0.0163353,0.266386,0.974064
910,1782,3.32163,-0.0170543,0.266385,0.973702
913,1779,3.32104,-0.0171812,0.266802,0.973425
916,1776,3.32119,-0.0171186,0.266801,0.973451
919,1773,3.32115,-0.0169583,0.266383,0.973739
922,1770,3.32088,-0.0177803,0.266799,0.973122
925,1767,3.32032,-0.0178594,0.266799,0.973086
928,1764,3.32008,-0.0178125,0.266799,0.973097
931,1761,3.32061,-0.0184919,0.266798,0.972766
934,1758,3.32078,-0.01833,0.266382,0.973052
937,1755,3.32043,-0.0191082,0.266798,0.972449
940,1752,3.31884,-0.0193963,0.267636,0.971881
943,1749,3.31912,-0.0193352,0.267216,0.972128
946,1746,3.32136,-0.0165579,0.26583,0.97156
949,1743,3.32196,-0.0164975,0.265413,0.971809
952,1740,3.32118,-0.016556,0.265828,0.971546
955,1737,3.32118,-0.0172039,0.265828,0.971236
958,1734,3.32189,-0.0172414,0.265412,0.971417
961,1731,3.32173,-0.017152,0.26541,0.971465
964,1728,3.32156,-0.017847,0.265827,0.970906
967,1725,3.32099,-0.0179121,0.265828,0.970881
970,1722,3.32055,-0.0185785,0.266117,0.970553
973,1719,3.32024,-0.0193361,0.266245,0.969969
976,1716,3.32001,-0.0192353,0.266244,0.970003
979,1713,3.31977,-0.0191944,0.266243,0.970013
982,1710,3.32232,-0.0158659,0.264438,0.968663
985,1707,3.3219,-0.0165002,0.264853,0.969391
988,1704,3.3217,-0.016523,0.264855,0.969386
991,1701,3.32192,-0.0165098,0.264438,0.969605
994,1698,3.32205,-0.0166787,0.264439,0.969516
997,1695,3.32127,-0.0173042,0.264855,0.969002
1000,1692,3.32158,-0.0171877,0.264853,0.969055
1003,1689,3.32158,-0.0179137,0.264853,0.968696
1006,1686,3.32084,-0.0186457,0.265269,0.968118
1009,1683,3.32164,-0.0186239,0.264852,0.968338
1012,1680,3.32131,-0.018608,0.264852,0.968342
1015,1677,3.32025,-0.0186942,0.265269,0.968089
1018,1674,3.32089,-0.0186576,0.264851,0.968335
1021,1671,3.32022,-0.0194857,0.265268,0.967697
1024,1668,3.32038,-0.0193367,0.265268,0.967771
1027,1665,3.32307,-0.0157727,0.263462,0.967771
1030,1662,3.32209,-0.0166366,0.263963,0.967134
1033,1659,3.32205,-0.0173919,0.264295,0.966549
1036,1656,3.32206,-0.0172926,0.264383,0.966759
1039,1653,3.32171,-0.017239,0.263876,0.966827
1042,1650,3.32117,-0.0179985,0.264294,0.966251
1045,1647,3.32096,-0.0180189,0.264294,0.96624
1048,1644,3.32069,-0.0188436,0.264713,0.965621
1051,1641,3.32123,-0.0187439,0.263877,0.96609
1054,1638,3.32133,-0.0192934,0.264293,0.965604
1057,1635,3.32105,-0.0193376,0.264292,0.96559
1060,1632,3.3213,-0.0192961,0.263875,0.965813
1063,1629,3.32265,-0.0160357,0.262901,0.965243
1066,1626,3.32222,-0.0166145,0.2629,0.964954
1069,1623,3.32253,-0.0166033,0.262901,0.965201
1072,1620,3.32206,-0.017343,0.263316,0.964366
1075,1617,3.32182,-0.0173798,0.263319,0.96436
1078,1614,3.32205,-0.0181376,0.263317,0.963993
1081,1611,3.32235,-0.017993,0.2629,0.964273
1084,1608,3.32104,-0.0187346,0.263735,0.963481
1087,1605,3.32101,-0.0187667,0.263734,0.963704
1090,1602,3.32092,-0.018884,0.263733,0.963403
1093,1599,3.32098,-0.0187759,0.263315,0.963667
1096,1596,3.32121,-0.0189014,0.263399,0.963607
1099,1593,3.3215,-0.0194471,0.263315,0.963333
1102,1590,3.32123,-0.0194482,0.263599,0.963327
1105,1587,3.32265,-0.0167258,0.26234,0.962491
1108,1584,3.32246,-0.0168104,0.262339,0.962452
1111,1581,3.32215,-0.017527,0.261843,0.962088
1114,1578,3.32221,-0.0174768,0.262339,0.962117
1117,1575,3.32223,-0.0174391,0.262339,0.962131
1120,1572,3.32174,-0.0181652,0.262756,0.961556
1123,1569,3.32227,-0.0181248,0.262337,0.961785
1126,1566,3.32196,-0.0182321,0.262338,0.961739
1129,1563,3.32147,-0.0189793,0.262756,0.961161
1132,1560,3.32212,-0.018797,0.26192,0.961671
1135,1557,3.321,-0.0195074,0.262756,0.960894
1138,1554,3.32267,-0.0167126,0.26178,0.960094
1141,1551,3.32287,-0.0167405,0.261361,0.960284
1144,1548,3.32285,-0.0168128,0.26136,0.960246
1147,1545,3.32282,-0.0169302,0.26164,0.960191
1150,1542,3.32264,-0.0175091,0.261777,0.959681
1153,1539,3.32276,-0.0174134,0.261359,0.959941
1156,1536,3.32176,-0.017553,0.261777,0.959432
1159,1533,3.32152,-0.0183371,0.262197,0.959071
1162,1530,3.32152,-0.0189748,0.261777,0.958961
1165,1527,3.32182,-0.0189502,0.261777,0.958986
1168,1524,3.32207,-0.0189208,0.261775,0.958998
1171,1521,3.32123,-0.0178386,0.261775,0.958275
1174,1518,3.32075,-0.0196902,0.262194,0.958388
1177,1515,3.32255,-0.0168687,0.260797,0.957791
1180,1512,3.32283,-0.0168712,0.260797,0.957802
1183,1509,3.32291,-0.0151008,0.260138,0.957631
1186,1506,3.32327,-0.0157587,0.260378,0.957313
1189,1503,3.32245,-0.0158706,0.260795,0.957035
1192,1500,3.32224,-0.0165205,0.260794,0.956709
1195,1497,3.3228,-0.0164122,0.260376,0.95697
1198,1494,3.32165,-0.0172731,0.260792,0.956338
1201,1491,3.32138,-0.0190058,0.261211,0.95652
1204,1488,3.3215,-0.0173275,0.26107,0.956311
1207,1485,3.32147,-0.0249468,0.260792,0.956047
1210,1482,3.32123,-0.0249233,0.260792,0.956061
1213,1479,3.323,-0.0203798,0.259395,0.955069
1216,1476,3.3228,-0.0211328,0.259394,0.954687
1219,1473,3.32229,-0.0158702,0.259812,0.954828
1222,1470,3.32241,-0.022967,0.259811,0.954827
1225,1467,3.32256,-0.0218412,0.259392,0.954337
1228,1464,3.32213,-0.0200975,0.259264,0.953952
1231,1461,3.32192,-0.022618,0.259809,0.953752
1234,1458,3.32239,-0.0206721,0.258976,0.953867
1237,1455,3.32174,-0.021421,0.259669,0.953294
1240,1452,3.32086,-0.0216224,0.259808,0.952993
1243,1449,3.32402,-0.0179169,0.257582,0.953251
1246,1446,3.32368,-0.0168685,0.257582,0.952526
1249,1443,3.32384,-0.0156828,0.257166,0.952061
1252,1440,3.32345,-0.0174622,0.257581,0.952222
1255,1437,3.3237,-0.0156932,0.257167,0.952061
1258,1434,3.32305,-0.0182377,0.257993,0.951627
1261,1431,3.32186,-0.0200987,0.258408,0.951746
1264,1428,3.3223,-0.0201916,0.258408,0.951707
1267,1425,3.32284,-0.0171044,0.257578,0.951142
1270,1422,3.3224,-0.0171533,0.257577,0.951119
1273,1419,3.32224,-0.0249348,0.25776,0.95078
1276,1416,3.32205,-0.0248902,0.257576,0.950797
1279,1413,3.32394,-0.0150551,0.256594,0.949955
1282,1410,3.32366,-0.0151806,0.256596,0.949894
1285,1407,3.32372,-0.0152209,0.256596,0.94987
1288,1404,3.32328,-0.0228902,0.256595,0.949597
1291,1401,3.32334,-0.0210689,0.256684,0.949447
1294,1398,3.32323,-0.0210524,0.255712,0.949446
1297,1395,3.32271,-0.0219049,0.256775,0.948838
1300,1392,3.32215,-0.0219487,0.25659,0.948799
1303,1389,3.32198,-0.0245325,0.257006,0.948582
1306,1386,3.32254,-0.0208169,0.256177,0.948313
1309,1383,3.32195,-0.0234853,0.257004,0.947838
1312,1380,3.32208,-0.0215236,0.256591,0.947747
1315,1377,3.32248,-0.0236619,0.256772,0.947949
1318,1374,3.32161,-0.0233408,0.256591,0.948125
1321,1371,3.32442,-0.0187357,0.254784,0.947352
1324,1368,3.32336,-0.0177925,0.255195,0.946344
1327,1365,3.32334,-0.0194364,0.255196,0.946806
1330,1362,3.32397,-0.0164946,0.254372,0.946151
1333,1359,3.32321,-0.0165783,0.254783,0.945902
1336,1356,3.32333,-0.0200853,0.255193,0.94647
1339,1353,3.32283,-0.0191302,0.255193,0.945703
1342,1350,3.32333,-0.0191342,0.254782,0.945893
1345,1347,3.3218,-0.0192526,0.255605,0.945416
1348,1344,3.32255,-0.0191581,0.255192,0.945679
1351,1341,3.32257,-0.0198833,0.255192,0.945322
1354,1338,3.3225,-0.0179302,0.254781,0.945235
1357,1335,3.32439,-0.0222575,0.253388,0.94463
1360,1332,3.32412,-0.0169917,0.253797,0.944747
1363,1329,3.32341,-0.0224728,0.253978,0.94432
1366,1326,3.3235,-0.0178188,0.254208,0.944125
1369,1323,3.32368,-0.0160808,0.253796,0.943955
1372,1320,3.32294,-0.0238595,0.254207,0.943434
1375,1317,3.32286,-0.0237911,0.254207,0.943465
1378,1314,3.32348,-0.0167534,0.253795,0.942168
1381,1311,3.32331,-0.0174145,0.253795,0.943541
1384,1308,3.32303,-0.0226236,0.253384,0.943193
1387,1305,3.32228,-0.0252737,0.254206,0.942747
1390,1302,3.32228,-0.0233927,0.253794,0.942609
1393,1299,3.32443,-0.0188041,0.2524,0.941613
1396,1296,3.32389,-0.0187792,0.252399,0.941635
1399,1293,3.32422,-0.0206504,0.252398,0.942219
1402,1290,3.3238,-0.0214229,0.252808,0.941376
1405,1287,3.32342,-0.0195445,0.252398,0.941255
1408,1284,3.32383,-0.0183203,0.25199,0.940587
1411,1281,3.32323,-0.0172504,0.251989,0.940075
1414,1278,3.3236,-0.0190831,0.251991,0.940444
1417,1275,3.32341,-0.0191079,0.251987,0.940423
1420,1272,3.32262,-0.0199302,0.252397,0.93982
1423,1269,3.32264,-0.0198838,0.252397,0.939656
1426,1266,3.32364,-0.0152104,0.25141,0.938667
1429,1263,3.32501,-0.0222801,0.250596,0.939119
1432,1260,3.32445,-0.0159369,0.251001,0.938525
1435,1257,3.32498,-0.0177968,0.251002,0.938866
1438,1254,3.32456,-0.015863,0.250595,0.938768
1441,1251,3.324125,-0.0165585,0.251002,0.938228
1444,1248,3.32341,-0.0236451,0.251,0.938254
1447,1245,3.32285,-0.0173153,0.25141,0.93765
1450,1242,3.32348,-0.0225421,0.250592,0.937741
1453,1239,3.32256,-0.0253673,0.251408,0.937221
1456,1236,3.32293,-0.0233875,0.250998,0.937125
1459,1233,3.32315,-0.025165,0.251,0.937523
1462,1230,3.32427,-0.0206592,0.250013,0.936275
1465,1227,3.32478,-0.0187026,0.249203,0.936386
1468,1224,3.32389,-0.0193901,0.249606,0.935844
1471,1221,3.32436,-0.0165,0.248798,0.935161
1474,1218,3.32448,-0.0181251,0.248796,0.935615
1477,1215,3.32359,-0.0201207,0.249605,0.935488
1480,1212,3.32429,-0.0171861,0.248795,0.934815
1483,1209,3.32334,-0.0227902,0.250009,0.935233
1486,1206,3.32361,-0.0208893,0.249602,0.935107
1489,1203,3.32233,-0.0217574,0.250417,0.934279
1492,1200,3.32484,-0.0169617,0.248615,0.933583
1495,1197,3.32492,-0.0159847,0.248218,0.933027
1498,1194,3.32532,-0.0152272,0.247807,0.933584
1501,1191,3.32437,-0.0188754,0.248612,0.933885
1504,1188,3.32463,-0.0159344,0.248206,0.933015
1507,1185,3.32332,-0.0178257,0.249016,0.932933
1510,1182,3.32427,-0.0158855,0.248203,0.93302
1513,1179,3.32326,-0.0204589,0.249422,0.932695
1516,1176,3.32374,-0.0167357,0.248609,0.932404
1519,1173,3.32393,-0.0184942,0.248608,0.932805
1522,1170,3.32293,-0.0246362,0.248609,0.932075
1525,1167,3.32265,-0.0254136,0.249015,0.931498
1528,1164,3.32283,-0.0182278,0.248606,0.931813
1531,1161,3.32399,-0.0225418,0.248023,0.930695
1534,1158,3.32406,-0.015458,0.248023,0.930616
1537,1155,3.32384,-0.0226179,0.248022,0.930654
1540,1152,3.32458,-0.0161828,0.248022,0.930262
1543,1149,3.32389,-0.0162103,0.248022,0.93025
1546,1146,3.32324,-0.0167801,0.248428,0.92829
1549,1143,3.32317,-0.0240757,0.248022,0.92995
1552,1140,3.3227,-0.0229874,0.248023,0.92923
1555,1137,3.32287,-0.0236488,0.248021,0.928918
1558,1134,3.32258,-0.021702,0.247614,0.928785
1561,1131,3.32267,-0.0236107,0.248019,0.928914
1564,1128,3.32419,-0.0219522,0.247026,0.928778
1567,1125,3.32417,-0.0209418,0.246621,0.928208
1570,1122,3.32377,-0.0225923,0.247025,0.928474
1573,1119,3.32356,-0.0196444,0.246621,0.927577
1576,1116,3.32355,-0.0196449,0.246619,0.927577
1579,1113,3.32313,-0.0205244,0.247024,0.926952
1582,1110,3.32298,-0.0210606,0.247022,0.92669
1585,1107,3.32288,-0.0210721,0.247022,0.926676
1588,1104,3.32277,-0.019338,0.24669,0.926464
1591,1101,3.32253,-0.0212577,0.247021,0.926587
1594,1098,3.32226,-0.0200535,0.24702,0.925906
1597,1095,3.3217,-0.0209046,0.247427,0.925285
1600,1092,3.32375,-0.0173307,0.246024,0.925023
1603,1089,3.32337,-0.0211884,0.246843,0.925271
1606,1086,3.32256,-0.0173482,0.246208,0.925014
1609,1083,3.32321,-0.0198007,0.24693,0.924885
1612,1080,3.32296,-0.019977,0.246431,0.924792
1615,1077,3.32286,-0.0188154,0.24652,0.924304
1618,1074,3.32405,-0.0204681,0.2444,0.923967
1621,1071,3.32231,-0.0248459,0.246024,0.923646
1624,1068,3.32246,-0.018386,0.24602,0.923497
1627,1065,3.3233,-0.0219942,0.244803,0.923038
1630,1062,3.32364,-0.0227375,0.245028,0.922469
1633,1059,3.32263,-0.0232262,0.245435,0.922041
1636,1056,3.32336,-0.0235299,0.245028,0.922098
1639,1053,3.32309,-0.0216783,0.244622,0.921926
1642,1050,3.32197,-0.0224988,0.245433,0.921128
1645,1047,3.32272,-0.0231107,0.245096,0.921039
1648,1044,3.32232,-0.0231614,0.245024,0.921013
1651,1041,3.32202,-0.0220003,0.245024,0.920308
1654,1038,3.3218,-0.0221231,0.245024,0.920247
1657,1035,3.32357,-0.0210901,0.244281,0.919821
1660,1032,3.32337,-0.0209366,0.244026,0.919879
1663,1029,3.32296,-0.0199868,0.244027,0.919081
1666,1026,3.32233,-0.020819,0.24443,0.918474
1669,1023,3.32296,-0.0187548,0.243622,0.918615
1672,1020,3.32272,-0.019541,0.244024,0.918035
1675,1017,3.32208,-0.0196424,0.244201,0.917989
1678,1014,3.32192,-0.0203181,0.244024,0.917663
1681,1011,3.32241,-0.0179262,0.243216,0.917951
1684,1008,3.32321,-0.0174282,0.243024,0.916843
1687,1005,3.32344,-0.0156588,0.242621,0.916635
1690,1002,3.32272,-0.0163776,0.243024,0.916085
1693,999,3.32282,-0.0235102,0.242619,0.916393
1696,996,3.32223,-0.0240133,0.242791,0.916137
1699,993,3.32411,-0.0138323,0.241792,0.915298
1702,990,3.32279,-0.0212926,0.242195,0.915046
1705,987,3.32301,-0.0146362,0.242194,0.914696
1708,984,3.3228,-0.0217426,0.24179,0.915037
1711,981,3.32166,-0.0222897,0.242601,0.914376
1714,978,3.3223,-0.0225752,0.242195,0.914441
1717,975,3.32163,-0.017183,0.243004,0.914322
1720,972,3.32136,-0.0216647,0.242597,0.913397
1723,969,3.32231,-0.0223683,0.242424,0.913075
1726,966,3.32195,-0.0208514,0.242065,0.912732
1729,963,3.322,-0.0214511,0.24202,0.912455
1732,960,3.32167,-0.0215327,0.242018,0.912417
1735,957,3.3209,-0.0224175,0.242424,0.911797
1738,954,3.32265,-0.0194156,0.241422,0.911018
1741,951,3.3228,-0.0176115,0.241017,0.910816
1744,948,3.32216,-0.0202175,0.241422,0.910642
1747,945,3.32262,-0.0183282,0.241016,0.910483
1750,942,3.32242,-0.019029,0.241016,0.910149
1753,939,3.32154,-0.0198614,0.24158,0.90956
1756,936,3.32073,-0.0199089,0.241827,0.909318
1759,933,3.32004,-0.0207312,0.242232,0.908722
1762,930,3.32251,-0.0157355,0.240415,0.908029
1765,927,3.32187,-0.0231143,0.240415,0.908062
1768,924,3.32186,-0.0238937,0.240414,0.907701
1771,921,3.32211,-0.0237971,0.240009,0.907949
1774,918,3.32168,-0.0246545,0.240057,0.907353
1777,915,3.32187,-0.0180268,0.240415,0.906971
1780,912,3.32109,-0.0187412,0.240819,0.906428
1783,909,3.32179,-0.0232814,0.239813,0.905609
1786,906,3.32258,-0.0212767,0.239003,0.905696
1789,903,3.32141,-0.0222135,0.239812,0.904835
1792,900,3.32136,-0.0222471,0.239709,0.904824
1795,897,3.32144,-0.0210789,0.239405,0.904308
1798,894,3.32096,-0.0191588,0.239403,0.90393
1801,891,3.31991,-0.0256472,0.240625,0.90408
1804,888,3.31987,-0.0225804,0.240215,0.903193
1807,885,3.31964,-0.0252918,0.240625,0.903005
1810,882,3.32161,-0.0196572,0.239047,0.902578
1813,879,3.3211,-0.0184026,0.238801,0.901888
1816,876,3.3213,-0.0191427,0.2388,0.901551
1819,873,3.32089,-0.019283,0.238798,0.901487
1822,870,3.32039,-0.0180923,0.238798,0.900769
1825,867,3.32021,-0.0259305,0.238796,0.900617
1828,864,3.31988,-0.0263417,0.238795,0.900429
1831,861,3.322,-0.0154473,0.237383,0.90002
1834,858,3.32142,-0.0186423,0.238193,0.899375
1837,855,3.32082,-0.0185628,0.238194,0.899412
1840,852,3.32001,-0.0230867,0.238193,0.89828
1843,849,3.3197,-0.0258598,0.238599,0.898063
1846,846,3.3196,-0.0261616,0.238597,0.897921
1849,843,3.31928,-0.0266279,0.238841,0.89771
1852,840,3.3208,-0.0237081,0.237587,0.896869
1855,837,3.32068,-0.0239966,0.237584,0.896971
1858,834,3.3198,-0.0168526,0.237749,0.89653
1861,831,3.31867,-0.02524,0.238157,0.89595
1864,828,3.31968,-0.0259949,0.237993,0.895609
1867,825,3.31956,-0.024043,0.237584,0.895455
1870,822,3.31891,-0.0248167,0.237992,0.894895
1873,819,3.32153,-0.0178582,0.236252,0.893996
1876,816,3.32029,-0.0226753,0.236978,0.893681
1879,813,3.32014,-0.0226005,0.237217,0.893718
1882,810,3.32009,-0.0194696,0.236161,0.893051
1885,807,3.31936,-0.0222775,0.236976,0.892611
1888,804,3.31894,-0.0190884,0.236566,0.891758
1891,801,3.31947,-0.0161996,0.235711,0.890877
1894,798,3.3199,-0.0181748,0.23596,0.891018
1897,795,3.31977,-0.0169535,0.235551,0.890541
1900,792,3.3199,-0.017785,0.235551,0.890161
1903,789,3.31934,-0.0204619,0.236368,0.889779
1906,786,3.32036,-0.0173985,0.235594,0.88918
1909,783,3.31892,-0.0192462,0.235956,0.889286
1912,780,3.320132,-0.0238718,0.23494,0.888466
1915,777,3.31915,-0.0169738,0.235094,0.888111
1918,774,3.31894,-0.0254404,0.235347,0.887553
1921,771,3.31817,-0.0255637,0.235757,0.887284
1924,768,3.31804,-0.0263832,0.235758,0.886918
1927,765,3.31821,-0.0250753,0.235345,0.886461
1930,762,3.32017,-0.0201764,0.233918,0.885438
1933,759,3.3197,-0.0209225,0.233913,0.884913
1936,756,3.31932,-0.0208409,0.233918,0.885145
1939,753,3.31896,-0.0201014,0.233914,0.884215
1942,750,3.31836,-0.0205737,0.233913,0.883996
1945,747,3.31778,-0.0212795,0.234319,0.883471
1948,744,3.31964,-0.0183918,0.2333,0.88257
1951,741,3.31962,-0.021001,0.233798,0.882676
1954,738,3.31853,-0.017974,0.233302,0.881505
1957,735,3.319,-0.0263535,0.233066,0.881447
1960,732,3.31824,-0.0250333,0.232891,0.880768
1963,729,3.32029,-0.0213136,0.231464,0.880463
1966,726,3.31913,-0.0242265,0.232278,0.879995
1969,723,3.31948,-0.0172375,0.232277,0.879655
1972,720,3.31742,-0.0257632,0.232834,0.879096
1975,717,3.31832,-0.0237139,0.232272,0.878959
1978,714,3.31785,-0.0249379,0.232681,0.878211
1981,711,3.31972,-0.0214477,0.231247,0.87778
1984,708,3.31937,-0.0203574,0.231247,0.877005
1987,705,3.31924,-0.0231115,0.231659,0.876849
1990,702,3.31794,-0.0239671,0.232128,0.876259
1993,699,3.31729,-0.0227479,0.232065,0.87553
1996,696,3.31727,-0.023483,0.232066,0.875216
1999,693,3.31857,-0.020567,0.231038,0.874314
2002,690,3.31863,-0.0184716,0.230628,0.874182
2005,687,3.31845,-0.0192119,0.230625,0.873862
2008,684,3.31758,-0.0221885,0.231448,0.873387
2011,681,3.31721,-0.0187942,0.231035,0.872565
2014,678,3.31702,-0.0197223,0.231032,0.872172
2017,675,3.31883,-0.0179776,0.230006,0.872001
2020,672,3.31771,-0.0245159,0.230004,0.871329
2023,669,3.31759,-0.0252198,0.230229,0.871018
2026,666,3.31677,-0.0261284,0.230411,0.870418
2029,663,3.3166,-0.0268567,0.230415,0.870109
2032,660,3.31609,-0.0277693,0.230826,0.869254
2035,657,3.31793,-0.0242783,0.229378,0.869033
2038,654,3.31771,-0.0213596,0.22897,0.868015
2041,651,3.3169,-0.0243082,0.230015,0.867554
2044,648,3.31719,-0.0243264,0.229377,0.867775
2047,645,3.31652,-0.0237657,0.22938,0.866768
2050,642,3.31892,-0.0166446,0.227118,0.865811
2053,639,3.31748,-0.0214757,0.228345,0.865582
2056,636,3.31698,-0.019583,0.22834,0.865122
2059,633,3.31692,-0.0223434,0.228755,0.864991
2062,630,3.31659,-0.022815,0.228749,0.864767
2065,627,3.31598,-0.0218872,0.228752,0.863908
2068,624,3.31793,-0.0168519,0.227302,0.862849
2071,621,3.31793,-0.0188775,0.227302,0.863241
2074,618,3.31741,-0.0176282,0.227304,0.86253
2077,615,3.31654,-0.019151,0.227714,0.861668
2080,612,3.31543,-0.0201038,0.228127,0.861039
2083,609,3.31779,-0.0169232,0.22668,0.860439
2086,606,3.31709,-0.0237127,0.226675,0.859698
2089,603,3.31727,-0.0235237,0.226259,0.859996
2092,600,3.31624,-0.0265848,0.227086,0.859514
2095,597,3.31606,-0.0194254,0.227498,0.858909
2098,594,3.31518,-0.0262454,0.227498,0.858193
2101,591,3.31685,-0.0251322,0.226458,0.857743
2104,588,3.31582,-0.026046,0.226873,0.857378
2107,585,3.3156,-0.0246907,0.226457,0.85667
2110,582,3.31564,-0.0213787,0.22604,0.855796
2113,579,3.31508,-0.022188,0.22604,0.855451
2116,576,3.31669,-0.019061,0.225,0.854584
2119,573,3.31671,-0.0198121,0.224995,0.854268
2122,570,3.31634,-0.0205985,0.224997,0.853943
2125,567,3.31575,-0.0194037,0.225193,0.853192
2128,564,3.31472,-0.0203647,0.225407,0.852562
2131,561,3.31662,-0.0191516,0.224363,0.852144
2134,558,3.31562,-0.0171027,0.224074,0.851964
2137,555,3.31551,-0.0260604,0.224213,0.851418
2140,552,3.31501,-0.0192316,0.224776,0.850632
2143,549,3.31663,-0.0155362,0.223439,0.850202
2146,546,3.31443,-0.0285902,0.224774,0.850133
2149,543,3.31521,-0.0253338,0.223852,0.849315
2152,540,3.31587,-0.0258043,0.223722,0.84912
2155,537,3.31513,-0.0249685,0.223723,0.848208
2158,534,3.31402,-0.0279993,0.224558,0.847783
2161,531,3.31369,-0.0287913,0.224555,0.847442
2164,528,3.31601,-0.0247005,0.223087,0.847174
2167,525,3.31549,-0.0234734,0.223084,0.846438
2170,522,3.31515,-0.0242745,0.223086,0.846106
2173,519,3.31584,-0.0211837,0.222155,0.845191
2176,516,3.31437,-0.0246852,0.223087,0.844955
2179,513,3.31597,-0.0193596,0.221622,0.843704
2182,510,3.31576,-0.0218526,0.222032,0.843682
2185,507,3.31458,-0.0228248,0.222946,0.843052
2188,504,3.31393,-0.0231828,0.222446,0.842906
2191,501,3.31393,-0.0218999,0.222444,0.842196
2194,498,3.3155,-0.0187925,0.221392,0.841283
2197,495,3.3155,-0.0199665,0.221391,0.840803
2200,492,3.31511,-0.0203484,0.221392,0.840647
2203,489,3.31447,-0.0191327,0.22139,0.839901
2206,486,3.31393,-0.0199862,0.221889,0.83956
2209,483,3.31562,-0.0166593,0.220334,0.838727
2212,480,3.31489,-0.0257387,0.220332,0.83843
2215,477,3.31404,-0.0266833,0.220917,0.837829
2218,474,3.31401,-0.0276626,0.220748,0.837425
2221,471,3.31306,-0.0285241,0.221165,0.836851
2224,468,3.31519,-0.0217469,0.21927,0.83537
2227,465,3.31496,-0.0225589,0.219271,0.835053
2230,462,3.31422,-0.0247048,0.219688,0.835209
2233,459,3.31391,-0.022138,0.219265,0.833965
2236,456,3.3129,-0.0286184,0.220518,0.834411
2239,453,3.31484,-0.0211043,0.218621,0.833212
2242,450,3.31407,-0.0221044,0.219086,0.832603
2245,447,3.31408,-0.0210224,0.218617,0.832011
2248,444,3.31344,-0.0223097,0.219034,0.831269
2251,441,3.31306,-0.0223771,0.219238,0.831239
2254,438,3.31488,-0.0173758,0.217553,0.830031
2257,435,3.31419,-0.0202552,0.217965,0.82989
2260,432,3.31266,-0.0187458,0.218079,0.829511
2263,429,3.31315,-0.0221166,0.218382,0.828929
2266,426,3.31413,-0.0166409,0.217009,0.827908
2269,423,3.31446,-0.0255162,0.216899,0.827767
2272,420,3.31304,-0.0183665,0.217429,0.827001
2275,417,3.31249,-0.0277337,0.217424,0.826658
2278,414,3.31264,-0.0261235,0.217511,0.826053
2281,411,3.31226,-0.0268318,0.217315,0.825785
2284,408,3.31383,-0.0235539,0.216245,0.824894
2287,405,3.31376,-0.0243687,0.216245,0.824574
2290,402,3.31289,-0.0255875,0.216663,0.823874
2293,399,3.31318,-0.0238769,0.216237,0.823524
2296,396,3.31208,-0.0248952,0.216705,0.822894
2299,393,3.31438,-0.021501,0.215169,0.822284
2302,390,3.31383,-0.0222971,0.215172,0.821988
2305,387,3.31326,-0.0211099,0.215174,0.821219
2308,384,3.31265,-0.0206472,0.215171,0.820152
2311,381,3.31156,-0.0301553,0.215588,0.819576
2314,378,3.31388,-0.0266992,0.214094,0.818987
2317,375,3.31389,-0.0253172,0.213675,0.818511
2320,372,3.31305,-0.019935,0.214509,0.818013
2323,369,3.31232,-0.0285318,0.214508,0.818029
2326,366,3.31218,-0.020714,0.214508,0.817714
2329,363,3.31365,-0.0260011,0.213432,0.816846
2332,360,3.31258,-0.0270145,0.21385,0.816223
2335,357,3.31284,-0.0255803,0.213596,0.815773
2338,354,3.31227,-0.0251244,0.213433,0.814727
2341,351,3.31208,-0.0237776,0.213016,0.814249
2344,348,3.31369,-0.0203955,0.211935,0.813371
2347,345,3.31356,-0.021209,0.212119,0.813064
2350,342,3.31241,-0.0221477,0.212349,0.812457
2353,339,3.31163,-0.0231379,0.212771,0.811847
2356,336,3.31118,-0.0261681,0.213186,0.811689
2359,333,3.31391,-0.0182245,0.210848,0.810788
2362,330,3.31312,-0.0192362,0.211265,0.810158
2365,327,3.31194,-0.0224826,0.212101,0.809674
2368,324,3.31152,-0.0298303,0.211682,0.809226
2371,321,3.31135,-0.021861,0.211686,0.808935
2374,318,3.31362,-0.0247783,0.20976,0.808217
2377,315,3.31259,-0.0257031,0.21018,0.80764
2380,312,3.31252,-0.0266836,0.210178,0.80727
2383,309,3.31151,-0.0276224,0.210598,0.806685
2386,306,3.31394,-0.0240552,0.209088,0.8061
2389,303,3.31301,-0.0250873,0.209357,0.805452
2392,300,3.31172,-0.028407,0.210345,0.804971
2395,297,3.31161,-0.0291896,0.210341,0.804673
2398,294,3.31082,-0.0278256,0.210838,0.80395
2401,291,3.31351,-0.0220049,0.20841,0.803211
2404,288,3.31274,-0.0208174,0.208414,0.802435
2407,285,3.31249,-0.0225088,0.208906,0.801792
2410,282,3.31217,-0.0224288,0.208409,0.801822
2413,279,3.31109,-0.0234481,0.208826,0.801206
2416,276,3.31334,-0.0199218,0.207311,0.800577
2419,273,3.31264,-0.0209524,0.20773,0.799946
2422,270,3.31273,-0.0194984,0.20731,0.799502
2425,267,3.31164,-0.0204393,0.207728,0.798903
2428,264,3.31107,-0.0301595,0.207725,0.798599
2431,261,3.31025,-0.022271,0.208146,0.79797
2434,258,3.31215,-0.0189261,0.207049,0.797035
2437,255,3.31185,-0.0196586,0.207047,0.796768
2440,252,3.31137,-0.027153,0.206629,0.796325
2443,249,3.31106,-0.0244486,0.206244,0.795109
2446,246,3.31323,-0.0232488,0.205111,0.794618
2449,243,3.31275,-0.0219511,0.205108,0.793852
2452,240,3.3118,-0.0250227,0.205525,0.793961
2455,237,3.31099,-0.0260367,0.205944,0.793106
2458,234,3.31081,-0.0245263,0.205522,0.792665
2461,231,3.31285,-0.0188262,0.204004,0.791592
2464,228,3.31181,-0.0220787,0.204837,0.791147
2467,225,3.31165,-0.0230203,0.204836,0.790805
2470,222,3.31157,-0.0215981,0.204417,0.790334
2473,219,3.31017,-0.0225551,0.204836,0.789743
2476,216,3.31243,-0.0280144,0.203314,0.789148
2479,213,3.31131,-0.0289859,0.203731,0.788555
2482,210,3.31139,-0.0298334,0.203729,0.788244
2485,207,3.31028,-0.0308578,0.204148,0.787635
2488,204,3.31299,-0.0271196,0.202619,0.787063
2491,201,3.3118,-0.0281354,0.203037,0.786442
2494,198,3.31075,-0.0293004,0.203027,0.785775
2497,195,3.31052,-0.0301814,0.203455,0.785454
2500,192,3.31019,-0.0309864,0.203454,0.785162
2503,189,3.31227,-0.0251772,0.20192,0.784098
2506,186,3.31182,-0.0260564,0.201922,0.783787
2509,183,3.31146,-0.0246722,0.20192,0.783052
2512,180,3.31069,-0.0255154,0.201914,0.782743
2515,177,3.30982,-0.0270463,0.202334,0.781948
2518,174,3.31234,-0.0228835,0.200962,0.781524
2521,171,3.31169,-0.0216336,0.2008,0.780737
2524,168,3.31138,-0.022539,0.200802,0.780417
2527,165,3.31048,-0.0239972,0.201221,0.77966
2530,162,3.31028,-0.0220336,0.200795,0.77918
2533,159,3.31077,-0.0231492,0.20052,0.778754
2536,156,3.31145,-0.0216925,0.200098,0.77829
2539,153,3.30958,-0.0203349,0.200156,0.777544
2542,150,3.31057,-0.0212985,0.200094,0.777197
2545,147,3.30935,-0.0323982,0.200514,0.776317
2548,144,3.31179,-0.0287357,0.199131,0.775687
2551,141,3.31171,-0.0273293,0.198557,0.775211
2554,138,3.3105,-0.0283048,0.198976,0.774622
2557,135,3.31069,-0.0244679,0.198139,0.774009
2560,132,3.30953,-0.027719,0.198968,0.773602
2563,129,3.31246,-0.0216968,0.19701,0.772816
2566,126,3.31107,-0.0250883,0.197844,0.772358
2569,123,3.31133,-0.0236582,0.197422,0.771879
2572,120,3.31008,-0.0246845,0.197846,0.771275
2575,117,3.30973,-0.0255065,0.197841,0.77098
2578,114,3.31135,-0.0244198,0.197159,0.770179
2581,111,3.31136,-0.0298881,0.196316,0.769596
2584,108,3.31104,-0.0307533,0.196293,0.769293
2587,105,3.31,-0.0326679,0.196713,0.768388
2590,102,3.31274,-0.0266217,0.194752,0.767592
2593,99,3.31164,-0.0275776,0.195166,0.767026
2596,96,3.31174,-0.0261058,0.194752,0.766551
2599,93,3.31098,-0.0284385,0.195163,0.766956
2602,90,3.3099,-0.0305666,0.195994,0.765473
2605,87,3.31172,-0.0283969,0.194863,0.76529
2608,84,3.31133,-0.0292932,0.194861,0.764968
2611,81,3.31052,-0.0278864,0.19486,0.764235
2614,78,3.31025,-0.028854,0.194852,0.76388
2617,75,3.30936,-0.0303851,0.195269,0.763099
2620,72,3.31217,-0.0246329,0.193302,0.762205
2623,69,3.31236,-0.0206902,0.192471,0.761622
2626,66,3.31122,-0.0219071,0.192889,0.760974
2629,63,3.31067,-0.0321211,0.192883,0.760715
2632,60,3.30949,-0.0331302,0.193298,0.760128
2635,57,3.31229,-0.0294503,0.191744,0.759482
2638,54,3.31186,-0.0302933,0.191745,0.759189
2641,51,3.31135,-0.0288359,0.19174,0.758455
2644,48,3.31009,-0.0228898,0.192572,0.757933
2647,45,3.31241,-0.0285878,0.191149,0.757358
2650,42,3.31141,-0.0296765,0.191426,0.75673
2653,39,3.31175,-0.0281292,0.191006,0.756279
2656,36,3.31037,-0.0316574,0.191842,0.755802
2659,33,3.31035,-0.031069,0.191424,0.755021
2662,30,3.31201,-0.0273349,0.190268,0.754366
2665,27,3.31165,-0.0282872,0.190277,0.753805
2668,24,3.31054,-0.029355,0.19069,0.753197
2671,21,3.30998,-0.028047,0.190823,0.75241
2674,18,3.31262,-0.0221411,0.188705,0.751528
2677,15,3.31187,-0.0251117,0.189124,0.751485
2680,12,3.31068,-0.0260755,0.189151,0.751152
2683,9,3.31075,-0.0246523,0.189117,0.750418
2686,6,3.31031,-0.0241944,0.189115,0.749341
2689,3,3.31281,-0.0203114,0.187549,0.748742