File: hust_correlation_analysis/matrices/HUST_7-5_cycle_feature_matrix.csv
cycle_number,rul,voltage,current,capacity,charge_capacity
3,1875,3.29036,-0.0103601,0.322971,1.03002
5,1873,3.29213,-0.0118017,0.322317,1.03437
7,1871,3.295,-0.0095559,0.320749,1.0365
9,1869,3.2958,-0.00892024,0.319748,1.0398
11,1867,3.2961,-0.0105629,0.319244,1.04142
13,1865,3.29783,-0.00930034,0.318038,1.04277
15,1863,3.29938,-0.00809383,0.317294,1.04405
17,1861,3.2995,-0.0076815,0.316443,1.04453
19,1859,3.2988,-0.00978516,0.316766,1.04552
21,1857,3.29959,-0.009302,0.316364,1.046
23,1855,3.30083,-0.00866665,0.315583,1.04676
25,1853,3.3017,-0.00865934,0.314777,1.04731
27,1851,3.30202,-0.00812513,0.314369,1.04752
29,1849,3.30189,-0.00823293,0.314376,1.04746
31,1847,3.30237,-0.00810781,0.313592,1.04785
33,1845,3.30264,-0.00819676,0.314041,1.04778
35,1843,3.30239,-0.00975629,0.313917,1.04905
37,1841,3.30417,-0.0070431,0.312801,1.04887
39,1839,3.30447,-0.0074171,0.312411,1.04877
41,1837,3.30345,-0.007562,0.312785,1.04847
43,1835,3.30308,-0.00773355,0.312793,1.04839
45,1833,3.30386,-0.00767569,0.312411,1.04862
47,1831,3.30416,-0.00780767,0.312404,1.0485
49,1829,3.30436,-0.00809306,0.312034,1.04852
51,1827,3.30378,-0.00861584,0.312415,1.048
53,1825,3.30273,-0.00887246,0.312797,1.04762
55,1823,3.30394,-0.00867071,0.311705,1.04808
57,1821,3.30425,-0.00875656,0.312408,1.04787
59,1819,3.30442,-0.00923583,0.312024,1.04771
61,1817,3.30438,-0.0091754,0.312017,1.04775
63,1815,3.30325,-0.00929783,0.312407,1.0475
65,1813,3.30421,-0.00973751,0.312004,1.04734
67,1811,3.3039,-0.00974256,0.312038,1.04744
69,1809,3.30574,-0.00761472,0.311014,1.04686
71,1807,3.30534,-0.00805066,0.310931,1.04657
73,1805,3.30439,-0.00809296,0.311306,1.04638
75,1803,3.3042,-0.00878179,0.31131,1.04589
77,1801,3.30471,-0.00875517,0.31131,1.04592
79,1799,3.30492,-0.00867374,0.311308,1.04596
81,1797,3.30517,-0.00859983,0.310917,1.04617
83,1795,3.3046,-0.00919495,0.311306,1.04561
85,1793,3.3037,-0.00932958,0.3117,1.04538
87,1791,3.30392,-0.00989174,0.311791,1.04505
89,1789,3.30636,-0.00755932,0.310224,1.04478
91,1787,3.30604,-0.00758458,0.310616,1.04462
93,1785,3.30592,-0.0075453,0.310224,1.04478
95,1783,3.30545,-0.00808806,0.310596,1.04424
97,1781,3.30473,-0.00821418,0.311436,1.04397
99,1779,3.30496,-0.00821979,0.310596,1.04414
101,1777,3.30538,-0.00812866,0.31059,1.0442
103,1775,3.30475,-0.00871279,0.31098,1.04364
105,1773,3.30511,-0.00868691,0.310588,1.0438
107,1771,3.30479,-0.00876659,0.310984,1.04361
109,1769,3.30445,-0.00932983,0.310994,1.04328
111,1767,3.30476,-0.00984757,0.310996,1.04294
113,1765,3.30432,-0.0098543,0.311377,1.04274
115,1763,3.30642,-0.00752151,0.309883,1.04245
117,1761,3.30651,-0.00746153,0.309877,1.04249
119,1759,3.30542,-0.00763863,0.310262,1.04218
121,1757,3.30514,-0.00762809,0.31025,1.04219
123,1755,3.30542,-0.00767514,0.310252,1.04214
125,1753,3.30515,-0.00822205,0.310636,1.0416
127,1751,3.30564,-0.00815599,0.310139,1.04183
129,1749,3.30514,-0.00875709,0.310658,1.04131
131,1747,3.30467,-0.00878388,0.310662,1.04133
133,1745,3.30429,-0.00934573,0.311051,1.04079
135,1743,3.30502,-0.00922562,0.310656,1.04099
137,1741,3.30516,-0.00922684,0.310746,1.04101
139,1739,3.30476,-0.00980428,0.311049,1.04046
141,1737,3.30448,-0.00974835,0.311037,1.03904
143,1735,3.30393,-0.00990216,0.311046,1.04037
145,1733,3.30564,-0.00759918,0.309935,1.03989
147,1731,3.30558,-0.00768736,0.310321,1.03969
149,1729,3.30607,-0.00761241,0.309937,1.03856
151,1727,3.30632,-0.00810411,0.310057,1.03957
153,1725,3.30538,-0.00810785,0.310325,1.0394
155,1723,3.304,-0.00828865,0.310711,1.03912
157,1721,3.30554,-0.00873846,0.31033,1.039
159,1719,3.30531,-0.00877101,0.310715,1.03882
161,1717,3.30558,-0.008644745,0.310323,1.03905
163,1715,3.30498,-0.00866625,0.310325,1.03903
165,1713,3.30453,-0.00872699,0.310706,1.0388
167,1711,3.30398,-0.00930851,0.310706,1.0384
169,1709,3.30492,-0.00924396,0.310305,1.03859
171,1707,3.30476,-0.00924519,0.310697,1.03869
173,1705,3.30479,-0.00981401,0.310711,1.03808
175,1703,3.30437,-0.00967646,0.3107,1.03816
177,1701,3.30393,-0.00970525,0.311236,1.03787
179,1699,3.30355,-0.010012,0.311077,1.03775
181,1697,3.30584,-0.00770307,0.309971,1.03727
183,1695,3.3061,-0.00764811,0.310152,1.03729
185,1693,3.30624,-0.00755343,0.309578,1.03752
187,1691,3.305225,-0.00825434,0.310357,1.03673
189,1689,3.30488,-0.00822768,0.310363,1.03676
191,1687,3.30446,-0.00829698,0.31047,1.03667
193,1685,3.30506,-0.00823947,0.309972,1.0369
195,1683,3.30508,-0.00879012,0.310369,1.03639
197,1681,3.30482,-0.00877365,0.310372,1.03642
199,1679,3.30477,-0.00879119,0.310367,1.03641
201,1677,3.30481,-0.00879295,0.310363,1.03639
203,1675,3.3043,-0.00938543,0.310751,1.03582
205,1673,3.30474,-0.00935211,0.310283,1.036
207,1671,3.3047,-0.00931801,0.310736,1.03584
209,1669,3.30446,-0.00931224,0.310726,1.03578
211,1667,3.30439,-0.00937892,0.310717,1.03571
213,1665,3.30434,-0.00936556,0.310721,1.03572
215,1663,3.30315,-0.010467,0.311503,1.03593
217,1661,3.30422,-0.00932294,0.311074,1.03548
219,1659,3.30307,-0.0108844,0.311861,1.03543
221,1657,3.30262,-0.0108584,0.312255,1.03529
223,1655,3.30383,-0.00995702,0.311091,1.03509
225,1653,3.30383,-0.00993269,0.311088,1.03511
227,1651,3.30476,-0.00729497,0.310009,1.0347
229,1649,3.30475,-0.00787135,0.310367,1.0343
231,1647,3.30426,-0.00793126,0.310756,1.03409
233,1645,3.30436,-0.00786764,0.311216,1.03413
235,1643,3.3048,-0.00789884,0.31037,1.03428
237,1641,3.30444,-0.0084376,0.310389,1.03396
239,1639,3.30423,-0.0084124,0.310391,1.03402
241,1637,3.30395,-0.00894279,0.310394,1.03368
243,1635,3.3038,-0.00895226,0.310359,1.03369
245,1633,3.30416,-0.00890977,0.310392,1.03372
247,1631,3.30459,-0.00944811,0.310397,1.03336
249,1629,3.30458,-0.00942621,0.310385,1.03335
251,1627,3.30432,-0.00939938,0.310391,1.03338
253,1625,3.30368,-0.00942846,0.31039,1.03333
255,1623,3.30321,-0.0101373,0.310781,1.03271
257,1621,3.30309,-0.0101074,0.310789,1.03275
259,1619,3.30509,-0.00731465,0.309677,1.03259
261,1617,3.30556,-0.00767297,0.309298,1.03256
263,1615,3.30552,-0.00820283,0.309297,1.0322
265,1613,3.30472,-0.00777019,0.309686,1.03233
267,1611,3.30438,-0.00840694,0.309686,1.03188
269,1609,3.30466,-0.00844298,0.309679,1.03185
271,1607,3.30537,-0.00834328,0.309671,1.0319
273,1605,3.3055,-0.00823922,0.309285,1.03213
275,1603,3.30522,-0.0082406,0.309276,1.03212
277,1601,3.30446,-0.00833274,0.30967,1.03189
279,1599,3.30338,-0.0090369,0.310068,1.03127
281,1597,3.30388,-0.00897794,0.309683,1.0315
283,1595,3.30431,-0.00950237,0.310077,1.03101
285,1593,3.30436,-0.00945772,0.310548,1.03108
287,1591,3.30474,-0.00940771,0.309297,1.03125
289,1589,3.30418,-0.00994634,0.310193,1.03072
291,1587,3.3032,-0.0100926,0.310462,1.03044
293,1585,3.30363,-0.0100468,0.310072,1.02943
295,1583,3.30406,-0.0100258,0.310071,1.03064
297,1581,3.30409,-0.00996903,0.310066,1.03066
299,1579,3.30565,-0.00772148,0.308948,1.03013
301,1577,3.30524,-0.00774645,0.308954,1.02986
303,1575,3.30491,-0.00779433,0.308975,1.03014
305,1573,3.30438,-0.0084146,0.309374,1.02957
307,1571,3.30467,-0.00838754,0.309377,1.02962
309,1569,3.30557,-0.00832862,0.309063,1.02978
311,1567,3.30549,-0.0082551,0.308979,1.02984
313,1565,3.30495,-0.00892287,0.309366,1.02922
315,1563,3.30469,-0.00887704,0.309363,1.02924
317,1561,3.30417,-0.00895381,0.309749,1.02903
319,1559,3.30384,-0.00898486,0.309743,1.02899
321,1557,3.30414,-0.0089349,0.309351,1.02918
323,1555,3.30446,-0.00895248,0.309363,1.0292
325,1553,3.30402,-0.00946963,0.309764,1.02872
327,1551,3.30448,-0.0094527,0.309374,1.02892
329,1549,3.30455,-0.009946,0.309384,1.02861
331,1547,3.30345,-0.0100533,0.310162,1.02819
333,1545,3.3037,-0.0100316,0.309767,1.02838
335,1543,3.30383,-0.0100159,0.309769,1.0284
337,1541,3.30532,-0.00730023,0.309053,1.02799
339,1539,3.30561,-0.00770835,0.308654,1.02786
341,1537,3.30551,-0.0077353,0.308642,1.02783
343,1535,3.30527,-0.00768379,0.30883,1.02786
345,1533,3.30461,-0.00781786,0.309041,1.02629
347,1531,3.30469,-0.00836455,0.309052,1.02729
349,1529,3.30485,-0.00837485,0.309057,1.0273
351,1527,3.30506,-0.00836318,0.309058,1.02731
353,1525,3.30529,-0.00884651,0.309055,1.02699
355,1523,3.30528,-0.00882527,0.309051,1.027
357,1521,3.30484,-0.00879817,0.309237,1.02701
359,1519,3.30409,-0.00894661,0.309446,1.02675
361,1517,3.30381,-0.00897123,0.309434,1.02671
363,1515,3.30382,-0.0089738,0.309436,1.02671
365,1513,3.30428,-0.00948264,0.309431,1.02634
367,1511,3.30442,-0.00949853,0.309442,1.02638
369,1509,3.30451,-0.00997099,0.309447,1.02608
371,1507,3.30386,-0.0100591,0.309848,1.02587
373,1505,3.3035,-0.0100691,0.309852,1.02587
375,1503,3.30324,-0.010136,0.30985,1.02584
377,1501,3.3058,-0.00721568,0.308347,1.0259
379,1499,3.30581,-0.00773279,0.30873,1.02537
381,1497,3.30544,-0.00772932,0.308726,1.02538
383,1495,3.30551,-0.00766554,0.308338,1.02558
385,1493,3.30437,-0.00783305,0.309118,1.02511
387,1491,3.30372,-0.00847351,0.309512,1.02453
389,1489,3.30476,-0.00839136,0.308722,1.0249
391,1487,3.30499,-0.00838881,0.309132,1.02481
393,1485,3.30506,-0.00840354,0.309142,1.02481
395,1483,3.30544,-0.00881302,0.308749,1.02472
397,1481,3.3053,-0.00874806,0.30874,1.02474
399,1479,3.30378,-0.0089669,0.309594,1.0242
401,1477,3.30363,-0.00901164,0.309113,1.02432
403,1475,3.3043,-0.00895641,0.309176,1.023
405,1473,3.3044,-0.00891631,0.309103,1.02435
407,1471,3.30459,-0.0094622,0.309097,1.02397
409,1469,3.30439,-0.00949454,0.3091,1.02396
411,1467,3.30415,-0.00949377,0.309559,1.02352
413,1465,3.30328,-0.00950661,0.309498,1.02379
415,1463,3.30337,-0.0101397,0.309495,1.02337
417,1461,3.30371,-0.0101707,0.309497,1.02335
419,1459,3.30437,-0.00995734,0.309099,1.02365
421,1457,3.30367,-0.0100794,0.309491,1.02341
423,1455,3.3055,-0.00722742,0.30798,1.02338
425,1453,3.30493,-0.00781661,0.308364,1.02284
427,1451,3.30442,-0.00793217,0.308764,1.02259
429,1449,3.30487,-0.00784502,0.308364,1.02278
431,1447,3.30485,-0.00789216,0.308445,1.02277
433,1445,3.3051,-0.00784531,0.308478,1.0228
435,1443,3.30494,-0.00843042,0.308774,1.02229
437,1441,3.30494,-0.00843908,0.308383,1.02246
439,1439,3.30452,-0.00898926,0.308782,1.02198
441,1437,3.30439,-0.00890444,0.308705,1.02199
443,1435,3.30407,-0.00895857,0.308775,1.02196
445,1433,3.304,-0.00903203,0.308773,1.0219
447,1431,3.30469,-0.00888503,0.30837,1.02214
449,1429,3.30432,-0.00895403,0.308773,1.02194
451,1427,3.30422,-0.00960644,0.308769,1.02151
453,1425,3.30465,-0.00950639,0.308842,1.02175
455,1423,3.30381,-0.00954601,0.309066,1.02141
457,1421,3.30356,-0.0101508,0.30918,1.02103
459,1419,3.3034,-0.0101697,0.30919,1.02107
461,1417,3.30352,-0.0101478,0.309186,1.02107
463,1415,3.30518,-0.00727933,0.308055,1.02114
465,1413,3.30512,-0.00778201,0.308515,1.02054
467,1411,3.3053,-0.00782372,0.308058,1.02052
469,1409,3.30522,-0.00776506,0.308057,1.02055
471,1407,3.30488,-0.00788371,0.308515,1.02045
473,1405,3.30461,-0.00790929,0.308052,1.02042
475,1403,3.30459,-0.00794013,0.30805,1.02038
477,1401,3.30459,-0.00849744,0.308381,1.01987
479,1399,3.30484,-0.00842428,0.308053,1.02011
481,1397,3.30463,-0.00904007,0.308464,1.01958
483,1395,3.30485,-0.00890361,0.308074,1.01986
485,1393,3.30412,-0.00897535,0.308472,1.01962
487,1391,3.30339,-0.0091538,0.308867,1.01935
489,1389,3.30401,-0.00960037,0.308457,1.01919
491,1387,3.30378,-0.00959609,0.308686,1.01904
493,1385,3.30441,-0.00955136,0.308455,1.0192
495,1383,3.30437,-0.0095832,0.308461,1.0192
497,1381,3.30426,-0.0100479,0.308449,1.01886
499,1379,3.3029,-0.0102824,0.309257,1.01842
501,1377,3.3026,-0.0102923,0.309266,1.01844
503,1375,3.30303,-0.0101948,0.308866,1.01868
505,1373,3.30535,-0.00726602,0.30776,1.01858
507,1371,3.30545,-0.00786837,0.308153,1.01801
509,1369,3.30528,-0.00778193,0.307758,1.01824
511,1367,3.30542,-0.00833408,0.307751,1.01786
513,1365,3.30419,-0.00841786,0.308551,1.01748
515,1363,3.304,-0.00848109,0.30822,1.01756
517,1361,3.304,-0.00854888,0.30814,1.01753
519,1359,3.30445,-0.00846794,0.30814,1.0176
521,1357,3.30439,-0.00897249,0.308536,1.01708
523,1355,3.30464,-0.0089314,0.308137,1.01727
525,1353,3.3044,-0.00896638,0.308143,1.01726
527,1351,3.30397,-0.00962062,0.308545,1.01668
529,1349,3.30351,-0.00959008,0.308544,1.01669
531,1347,3.30357,-0.00963715,0.308533,1.01666
533,1345,3.30376,-0.00964328,0.308539,1.01666
535,1343,3.30399,-0.00957194,0.309001,1.0167
537,1341,3.30393,-0.0101045,0.308537,1.01635
539,1339,3.30349,-0.0101456,0.308536,1.01631
541,1337,3.30317,-0.0101417,0.308619,1.01631
543,1335,3.30462,-0.00787156,0.307815,1.01558
545,1333,3.30464,-0.00800282,0.307899,1.01551
547,1331,3.30453,-0.00799111,0.307812,1.0155
549,1329,3.30523,-0.00789804,0.307414,1.01573
551,1327,3.30539,-0.00780204,0.307412,1.01578
553,1325,3.30462,-0.00842585,0.307804,1.01539
555,1323,3.30459,-0.00842006,0.30741,1.01535
557,1321,3.30434,-0.00844676,0.307802,1.01518
559,1319,3.3038,-0.00857359,0.308206,1.01492
561,1317,3.304,-0.00908025,0.308195,1.01458
563,1315,3.30453,-0.00904651,0.307797,1.01476
565,1313,3.30453,-0.00905756,0.307801,1.01473
567,1311,3.30386,-0.00914988,0.308201,1.01445
569,1309,3.30404,-0.00960645,0.308194,1.01423
571,1307,3.30446,-0.00953843,0.307805,1.01445
573,1305,3.30322,-0.00972599,0.308602,1.01399
575,1303,3.30346,-0.010238,0.308038,1.01382
577,1301,3.30355,-0.0102318,0.308662,1.01385
579,1299,3.30312,-0.0102676,0.308599,1.01363
581,1297,3.30339,-0.0101911,0.308056,1.01386
583,1295,3.30527,-0.00790932,0.307074,1.01328
585,1293,3.30552,-0.00788542,0.307077,1.0133
587,1291,3.30474,-0.00799183,0.307473,1.01305
589,1289,3.30439,-0.0080027,0.307466,1.01303
591,1287,3.30491,-0.0079294,0.30708,1.01327
593,1285,3.30376,-0.00865364,0.307885,1.0125
595,1283,3.30458,-0.00845075,0.30749,1.01279
597,1281,3.30462,-0.00846305,0.307492,1.01282
599,1279,3.3049,-0.00904368,0.307491,1.01243
601,1277,3.30472,-0.0090206,0.30749,1.01246
603,1275,3.30361,-0.00915348,0.307888,1.01219
605,1273,3.30354,-0.00964749,0.307888,1.01186
607,1271,3.30353,-0.00972256,0.307889,1.01181
609,1269,3.30374,-0.00968363,0.30789,1.01184
611,1267,3.30373,-0.00969663,0.308065,1.01185
613,1265,3.30395,-0.0101844,0.307898,1.01155
615,1263,3.3037,-0.0101568,0.307898,1.01159
617,1261,3.30299,-0.0103006,0.308301,1.0113
619,1259,3.30446,-0.00795491,0.307242,1.01075
621,1257,3.30461,-0.00803979,0.307171,1.01071
623,1255,3.30511,-0.00787617,0.306775,1.01099
625,1253,3.30537,-0.00787087,0.30678,1.01101
627,1251,3.30526,-0.00830065,0.30677,1.01068
629,1249,3.30512,-0.00839482,0.306772,1.01065
631,1247,3.30428,-0.00843546,0.30717,1.01044
633,1245,3.30361,-0.00917716,0.307576,1.00978
635,1243,3.30371,-0.00907901,0.307149,1.01137
637,1241,3.30422,-0.00919345,0.307142,1.00987
639,1239,3.30422,-0.00923014,0.30755,1.00967
641,1237,3.30462,-0.0090763,0.307218,1.00994
643,1235,3.30439,-0.00971892,0.306735,1.00954
645,1233,3.304,-0.00963599,0.307163,1.00963
647,1231,3.30308,-0.00973408,0.307563,1.00939
649,1229,3.3026,-0.0104184,0.307966,1.00906
651,1227,3.30314,-0.0102798,0.307565,1.00905
653,1225,3.30382,-0.0102503,0.307551,1.00904
655,1223,3.30578,-0.00734829,0.306029,1.00902
657,1221,3.30564,-0.00788879,0.306336,1.00848
659,1219,3.30532,-0.00795629,0.306416,1.00842
661,1217,3.30359,-0.00807334,0.307239,1.00808
663,1215,3.3037,-0.00811235,0.30684,1.00822
665,1213,3.30427,-0.00859357,0.306835,1.00789
667,1211,3.30481,-0.00852748,0.306847,1.00797
669,1209,3.3052,-0.00844038,0.306443,1.00821
671,1207,3.30471,-0.00911767,0.306806,1.00762
673,1205,3.30441,-0.00909185,0.306928,1.00763
675,1203,3.30341,-0.00919534,0.307252,1.00739
677,1201,3.3032,-0.0092721,0.307251,1.00734
679,1199,3.30403,-0.00975123,0.306844,1.00719
681,1197,3.30391,-0.00971047,0.307244,1.00702
683,1195,3.30413,-0.00968869,0.306846,1.00721
685,1193,3.30369,-0.0102949,0.307238,1.00665
687,1191,3.30337,-0.0103238,0.307246,1.00664
689,1189,3.3042,-0.00765131,0.306534,1.00616
691,1187,3.30423,-0.00811402,0.306526,1.00586
693,1185,3.30513,-0.00804843,0.306127,1.00605
695,1183,3.30536,-0.00795217,0.306104,1.00605
697,1181,3.30499,-0.00802376,0.306112,1.00603
699,1179,3.30487,-0.00853546,0.306112,1.00569
701,1177,3.30422,-0.00860352,0.306514,1.00549
703,1175,3.30384,-0.00870919,0.306516,1.00564
705,1173,3.30364,-0.00890011,0.30654,1.00536
707,1171,3.30425,-0.00922585,0.306531,1.00516
709,1169,3.30462,-0.00915474,0.30655,1.00525
711,1167,3.30448,-0.00925685,0.306488,1.00519
713,1165,3.30434,-0.00967668,0.306538,1.00489
715,1163,3.30382,-0.00969371,0.30654,1.00486
717,1161,3.30286,-0.00983794,0.306939,1.00484
719,1159,3.30303,-0.00992642,0.306938,1.00454
721,1157,3.30341,-0.0104388,0.306934,1.0042
723,1155,3.30358,-0.0103982,0.306938,1.00424
725,1153,3.30527,-0.00799924,0.305818,1.00374
727,1151,3.30519,-0.00797276,0.306296,1.0038
729,1149,3.30426,-0.00805766,0.306237,1.00358
731,1147,3.30353,-0.00875289,0.30665,1.003
733,1145,3.3041,-0.00865704,0.306245,1.00321
735,1143,3.3045,-0.00870299,0.306249,1.00321
737,1141,3.30517,-0.00857051,0.305917,1.00345
739,1139,3.30469,-0.0091622,0.306243,1.00291
741,1137,3.30441,-0.00916731,0.306247,1.0029
743,1135,3.30301,-0.00985951,0.307051,1.00209
745,1133,3.30306,-0.00983471,0.306643,1.00227
747,1131,3.30352,-0.0098378,0.306824,1.00231
749,1129,3.30384,-0.00977781,0.306655,1.00235
751,1127,3.30358,-0.0104439,0.307064,1.00177
753,1125,3.30415,-0.0102376,0.306241,1.0022
755,1123,3.30511,-0.00741205,0.305526,1.0018
757,1121,3.30373,-0.00815001,0.306731,1.001
759,1119,3.30435,-0.00813395,0.305934,1.00117
761,1117,3.30479,-0.00804965,0.305927,1.00122
763,1115,3.30468,-0.0080449,0.305931,1.00123
765,1113,3.30462,-0.00862402,0.305926,1.00085
767,1111,3.3043,-0.00919063,0.306006,1.00049
769,1109,3.30302,-0.00939245,0.306742,1.00001
771,1107,3.30302,-0.00933051,0.306296,1.00018
773,1105,3.30405,-0.00927429,0.305907,1.00037
775,1103,3.30407,-0.00928818,0.306315,1.00019
777,1101,3.30439,-0.00978333,0.305915,1.00004
779,1099,3.30385,-0.00970593,0.305907,1.00008
781,1097,3.30249,-0.00992645,0.306722,0.999608
783,1095,3.30224,-0.01047,0.306719,0.999254
785,1093,3.30302,-0.010404,0.30631,0.999449
787,1091,3.30359,-0.0104422,0.306312,0.999435
789,1089,3.30525,-0.00809114,0.305182,0.998858
791,1087,3.30494,-0.00805298,0.305179,0.998869
793,1085,3.30408,-0.00809381,0.305583,0.998678
795,1083,3.3035,-0.00817433,0.305569,0.998562
797,1081,3.30364,-0.00828167,0.305575,0.998533
799,1079,3.30431,-0.0087443,0.305702,0.998246
801,1077,3.30449,-0.00866785,0.30559,0.998329
803,1075,3.30429,-0.00919184,0.305474,0.997988
805,1073,3.30354,-0.00927322,0.306178,0.997793
807,1071,3.30318,-0.00942892,0.306001,0.997676
809,1069,3.30328,-0.00989885,0.305994,0.99737
811,1067,3.30357,-0.00995775,0.305994,0.99732
813,1065,3.30339,-0.00991492,0.306116,0.997365
815,1063,3.30339,-0.0104531,0.305992,0.997017
817,1061,3.30254,-0.0105382,0.306401,0.996769
819,1059,3.30295,-0.0105848,0.306006,0.99694
821,1057,3.3045,-0.00817919,0.30529,0.996272
823,1055,3.30495,-0.00818961,0.30531,0.996352
825,1053,3.30479,-0.00868184,0.305301,0.995998
827,1051,3.3044,-0.00861061,0.305281,0.995983
829,1049,3.30379,-0.00870096,0.305293,0.995948
831,1047,3.30375,-0.00879567,0.305284,0.995865
833,1045,3.30391,-0.00930497,0.305697,0.995369
835,1043,3.30391,-0.00927568,0.305276,0.995538
837,1041,3.30376,-0.00926356,0.305275,0.995539
839,1039,3.30289,-0.0100509,0.306099,0.994718
841,1037,3.30315,-0.00989215,0.305665,0.994915
843,1035,3.30334,-0.0100203,0.305686,0.99489
845,1033,3.30285,-0.0105888,0.306109,0.994407
847,1031,3.3031,-0.0104906,0.30588,0.994633
849,1029,3.30246,-0.0105345,0.306106,0.994434
851,1027,3.3043,-0.00826328,0.304993,0.993831
853,1025,3.30493,-0.00806115,0.304574,0.994115
855,1023,3.30466,-0.00877485,0.304983,0.993485
857,1021,3.30416,-0.00871214,0.304981,0.993531
859,1019,3.30336,-0.00882545,0.305397,0.993292
861,1017,3.3034,-0.00880254,0.304974,0.993441
863,1015,3.30341,-0.00887191,0.305461,0.993256
865,1013,3.30369,-0.00933817,0.305382,0.992925
867,1011,3.30402,-0.0092861,0.304971,0.993395
869,1009,3.30294,-0.00995131,0.305799,0.992412
871,1007,3.30223,-0.0101094,0.305793,0.99229
873,1005,3.30293,-0.010102,0.30539,0.992474
875,1003,3.30299,-0.0106123,0.306275,0.992
877,1001,3.30484,-0.00754755,0.304269,0.992043
879,999,3.3042,-0.00800288,0.304678,0.990214
881,997,3.30319,-0.00826673,0.305084,0.991226
883,995,3.30374,-0.00828068,0.304671,0.991389
885,993,3.30441,-0.00818889,0.304668,0.991442
887,991,3.3045,-0.00873597,0.304553,0.991363
889,989,3.30365,-0.00883367,0.30509,0.990908
891,987,3.30321,-0.00941959,0.30509,0.99053
893,985,3.30343,-0.00940317,0.305096,0.99055
895,983,3.30347,-0.00936806,0.305097,0.990576
897,981,3.30361,-0.00997143,0.305095,0.990192
899,979,3.30349,-0.00979556,0.305084,0.990282
901,977,3.30269,-0.01064,0.305505,0.98957
903,975,3.30292,-0.0105821,0.305086,0.989756
905,973,3.30253,-0.0106742,0.305667,0.989521
907,971,3.30418,-0.0083181,0.304358,0.98893
909,969,3.30404,-0.0081407,0.304352,0.989033
911,967,3.30331,-0.00833769,0.304783,0.988761
913,965,3.304,-0.00884565,0.304379,0.988657
915,963,3.30444,-0.00877403,0.304382,0.988713
917,961,3.30388,-0.0094141,0.304801,0.988174
919,959,3.30356,-0.00934188,0.304793,0.9882
921,957,3.30283,-0.0094599,0.305208,0.987961
923,955,3.30298,-0.00947185,0.305258,0.988087
925,953,3.30314,-0.0100327,0.305183,0.98755
927,951,3.30281,-0.0101378,0.305193,0.987462
929,949,3.30258,-0.0106644,0.305185,0.987118
931,947,3.30177,-0.0107847,0.305602,0.986861
933,945,3.3022,-0.0107079,0.305647,0.987057
935,943,3.30469,-0.00762491,0.30364,0.987102
937,941,3.30416,-0.00827938,0.304054,0.986526
939,939,3.30353,-0.00896865,0.304939,0.985939
941,937,3.30315,-0.0088885,0.304469,0.985977
943,935,3.3029,-0.00898104,0.304357,0.985921
945,933,3.30389,-0.00886508,0.304041,0.986118
947,931,3.3037,-0.00950653,0.304463,0.985568
949,929,3.30316,-0.00948217,0.304468,0.985598
951,927,3.30228,-0.010134,0.305048,0.984995
953,925,3.30185,-0.0102634,0.30488,0.984939
955,923,3.30275,-0.0101202,0.304458,0.985157
957,921,3.30268,-0.0107531,0.304876,0.9846
959,919,3.30468,-0.00766454,0.303332,0.984667
961,917,3.30335,-0.00840619,0.304179,0.983896
963,915,3.30306,-0.00838412,0.304182,0.98393
965,913,3.3041,-0.0082759,0.303766,0.98417
967,911,3.30382,-0.00893012,0.304181,0.983365
969,909,3.3034,-0.00945612,0.304346,0.983239
971,907,3.30233,-0.00960101,0.304592,0.982959
973,905,3.30208,-0.00962681,0.304584,0.982942
975,903,3.30317,-0.00948773,0.304165,0.983167
977,901,3.303,-0.0101919,0.30459,0.982599
979,899,3.30309,-0.0100623,0.304175,0.982834
981,897,3.30182,-0.0102501,0.305002,0.982394
983,895,3.30142,-0.0108773,0.305009,0.98201
985,893,3.30192,-0.0108095,0.30502,0.982094
987,891,3.3039,-0.00833201,0.303886,0.981557
989,889,3.30412,-0.00821853,0.303471,0.981793
991,887,3.30285,-0.00896862,0.3043,0.980966
993,885,3.30271,-0.0090641,0.304299,0.980906
995,883,3.30289,-0.009036,0.30447,0.980938
997,881,3.30331,-0.00943878,0.303871,0.980806
999,879,3.30277,-0.00942059,0.303873,0.98082
1001,877,3.30146,-0.0102344,0.304777,0.979981
1003,875,3.30157,-0.0102624,0.304708,0.979979
1005,873,3.30245,-0.0102027,0.304214,0.980159
1007,871,3.30256,-0.010709,0.304289,0.979842
1009,869,3.30362,-0.00773999,0.30357,0.979453
1011,867,3.30273,-0.00845367,0.303993,0.978849
1013,865,3.3031,-0.00832482,0.304039,0.979066
1015,863,3.30286,-0.00906038,0.303992,0.978462
1017,861,3.30322,-0.00892138,0.303565,0.978693
1019,859,3.30259,-0.00959499,0.30399,0.978356
1021,857,3.30197,-0.00971938,0.304413,0.977882
1023,855,3.30212,-0.00966019,0.304409,0.977905
1025,853,3.30231,-0.0102664,0.304411,0.977539
1027,851,3.30249,-0.010115,0.303987,0.977772
1029,849,3.30141,-0.0103092,0.304405,0.9775
1031,847,3.30136,-0.0108643,0.304412,0.977152
1033,845,3.3029,-0.00788706,0.303699,0.976781
1035,843,3.30371,-0.00835145,0.303281,0.976653
1037,841,3.30359,-0.00832339,0.303277,0.976651
1039,839,3.30256,-0.00907195,0.303697,0.976261
1041,837,3.30249,-0.00908399,0.303695,0.976007
1043,835,3.30245,-0.00907437,0.303699,0.97601
1045,833,3.30252,-0.00961869,0.303864,0.975683
1047,831,3.30192,-0.00970248,0.304119,0.975461
1049,829,3.30156,-0.0103109,0.304116,0.975064
1051,827,3.30171,-0.010345,0.304111,0.975036
1053,825,3.30182,-0.0108841,0.304063,0.974712
1055,823,3.30179,-0.0108025,0.304117,0.974787
1057,821,3.30273,-0.00851668,0.303418,0.973958
1059,819,3.30251,-0.00850024,0.30342,0.974
1061,817,3.30259,-0.0084644,0.303424,0.974013
1063,815,3.30257,-0.00908319,0.303419,0.973633
1065,813,3.30258,-0.00903304,0.303409,0.973629
1067,811,3.30183,-0.00973464,0.303839,0.973046
1069,809,3.30262,-0.0096118,0.303403,0.973259
1071,807,3.30147,-0.0103213,0.304255,0.9725
1073,805,3.30154,-0.010272,0.303831,0.972698
1075,803,3.30035,-0.0110027,0.304801,0.971912
1077,801,3.30083,-0.0109787,0.304257,0.972106
1079,799,3.30301,-0.00843018,0.303127,0.971578
1081,797,3.30253,-0.0084764,0.303191,0.971559
1083,795,3.30186,-0.00912493,0.303549,0.971005
1085,793,3.30183,-0.00921861,0.303552,0.970959
1087,791,3.30266,-0.00960378,0.303122,0.969364
1089,789,3.30192,-0.00968222,0.303714,0.970651
1091,787,3.30165,-0.0102205,0.30354,0.970285
1093,785,3.30066,-0.0103859,0.304446,0.970018
1095,783,3.30134,-0.0104236,0.303539,0.970146
1097,781,3.30156,-0.0108366,0.303538,0.969883
1099,779,3.30337,-0.00838146,0.302396,0.969299
1101,777,3.30162,-0.0085352,0.303255,0.968892
1103,775,3.30142,-0.00859558,0.303252,0.96886
1105,773,3.30175,-0.00851644,0.303238,0.968875
1107,771,3.3025,-0.00905629,0.302815,0.968697
1109,769,3.3017,-0.00969685,0.303242,0.96814
1111,767,3.30051,-0.00992622,0.303685,0.967856
1113,765,3.30155,-0.00977543,0.303243,0.96808
1115,763,3.30175,-0.0104219,0.303241,0.967674
1117,761,3.30123,-0.0103425,0.303235,0.967687
1119,759,3.29971,-0.01118,0.304089,0.966864
1121,757,3.30002,-0.0111781,0.304091,0.966872
1123,755,3.30207,-0.00863768,0.302948,0.966336
1125,753,3.30236,-0.00854172,0.302596,0.966572
1127,751,3.30109,-0.00937306,0.303395,0.965761
1129,749,3.30192,-0.00915676,0.302966,0.966081
1131,747,3.30126,-0.00991037,0.303413,0.96547
1133,745,3.30136,-0.00973153,0.30298,0.965754
1135,743,3.30005,-0.0105339,0.30384,0.964929
1137,741,3.30097,-0.0104581,0.303398,0.965126
1139,739,3.30079,-0.0110422,0.303388,0.964705
1141,737,3.30165,-0.00855839,0.302679,0.963979
1143,735,3.30083,-0.00877574,0.303107,0.963694
1145,733,3.30168,-0.00869625,0.302669,0.96387
1147,731,3.30175,-0.00926481,0.302834,0.963501
1149,729,3.30124,-0.0092119,0.302667,0.963546
1151,727,3.29982,-0.0100487,0.303537,0.961348
1153,725,3.3007,-0.00998647,0.303104,0.962913
1155,723,3.30107,-0.010521,0.303102,0.962589
1157,721,3.30095,-0.011018,0.303111,0.962297
1159,719,3.29978,-0.0112395,0.303547,0.962012
1161,717,3.30157,-0.00804081,0.302395,0.961855
1163,715,3.30143,-0.00863559,0.302399,0.961481
1165,713,3.30107,-0.00920386,0.302826,0.960965
1167,711,3.30068,-0.00942876,0.302822,0.960827
1169,709,3.3014,-0.00931163,0.302395,0.961047
1171,707,3.30059,-0.00991572,0.302826,0.960527
1173,705,3.29959,-0.0100502,0.303261,0.960276
1175,703,3.29953,-0.0107057,0.303184,0.959844
1177,701,3.29975,-0.010715,0.303263,0.959885
1179,699,3.3017,-0.00868174,0.30211,0.95899
1181,697,3.30055,-0.00875715,0.302556,0.958794
1183,695,3.30065,-0.00883187,0.302567,0.958801
1185,693,3.30122,-0.00937318,0.302561,0.957015
1187,691,3.30098,-0.00983344,0.302676,0.958161
1189,689,3.29969,-0.0101053,0.302994,0.95783
1191,687,3.30018,-0.00992045,0.302558,0.958315
1193,685,3.29968,-0.0106045,0.302892,0.957515
1195,683,3.30006,-0.0104849,0.302549,0.95773
1197,681,3.29904,-0.0114192,0.303431,0.956862
1199,679,3.30168,-0.00813226,0.301843,0.9569
1201,677,3.30108,-0.00933498,0.302298,0.956062
1203,675,3.29963,-0.00936195,0.302722,0.955854
1205,673,3.30042,-0.00945533,0.302301,0.955987
1207,671,3.3004,-0.0101062,0.302749,0.955463
1209,669,3.30011,-0.0104642,0.302736,0.955213
1211,667,3.29898,-0.0107583,0.303176,0.954884
1213,665,3.29879,-0.011421,0.303616,0.954316
1215,663,3.30122,-0.00861588,0.302023,0.95405
1217,661,3.30018,-0.00880701,0.302463,0.953758
1219,659,3.30065,-0.00877282,0.302023,0.953944
1221,657,3.30014,-0.00935725,0.302463,0.953426
1223,655,3.29935,-0.0100585,0.302904,0.952853
1225,653,3.2991,-0.0102366,0.302904,0.952741
1227,651,3.30023,-0.00999328,0.302468,0.953055
1229,649,3.29969,-0.0112026,0.303073,0.952194
1231,647,3.29821,-0.01135,0.303351,0.951921
1233,645,3.30043,-0.00823439,0.302219,0.95174
1235,643,3.30037,-0.00873429,0.302202,0.951387
1237,641,3.29975,-0.0094357,0.302646,0.950769
1239,639,3.30025,-0.00944455,0.302199,0.95094
1241,637,3.29971,-0.0100371,0.302638,0.950412
1243,635,3.29867,-0.0106519,0.303076,0.949878
1245,633,3.29832,-0.010818,0.303073,0.949767
1247,631,3.29865,-0.0107278,0.30308,0.949828
1249,629,3.30078,-0.00803998,0.301483,0.94948
1251,627,3.29953,-0.00894125,0.302381,0.948622
1253,625,3.29965,-0.0088682,0.30238,0.948697
1255,623,3.30015,-0.0093463,0.301952,0.948598
1257,621,3.2987,-0.0101403,0.302837,0.947791
1259,619,3.29921,-0.0101006,0.302393,0.947973
1261,617,3.299,-0.0105923,0.302387,0.947657
1263,615,3.29742,-0.0114808,0.303278,0.946786
1265,613,3.29824,-0.0114338,0.302826,0.946989
1267,611,3.30036,-0.00875036,0.301671,0.946449
1269,609,3.29942,-0.00935984,0.302108,0.945893
1271,607,3.29922,-0.0094522,0.302097,0.945815
1273,605,3.29833,-0.0102505,0.302562,0.945211
1275,603,3.29834,-0.0100867,0.302553,0.94531
1277,601,3.29864,-0.0108583,0.302561,0.944854
1279,599,3.30054,-0.00819577,0.301429,0.944353
1281,597,3.29937,-0.00876916,0.301892,0.943916
1283,595,3.29901,-0.00884162,0.302022,0.943773
1285,593,3.29929,-0.00884124,0.301832,0.943701
1287,591,3.29893,-0.00933076,0.301836,0.943401
1289,589,3.29837,-0.0102929,0.302278,0.942644
1291,587,3.2983,-0.0102755,0.302284,0.942659
1293,585,3.29794,-0.0107661,0.302275,0.942344
1295,583,3.29783,-0.0108833,0.30227,0.942258
1297,581,3.29753,-0.0116313,0.302718,0.94164
1299,579,3.29855,-0.00898084,0.302013,0.940936
1301,577,3.29843,-0.00907205,0.301925,0.940876
1303,575,3.29797,-0.0097781,0.302476,0.940319
1305,573,3.29771,-0.010352,0.30247,0.93997
1307,571,3.29839,-0.0103233,0.302029,0.940163
1309,569,3.29783,-0.0109247,0.302477,0.939658
1311,567,3.29579,-0.0117331,0.303372,0.938874
1313,565,3.29622,-0.0116802,0.30291,0.938991
1315,563,3.29851,-0.00901576,0.301748,0.93841
1317,561,3.29804,-0.00902971,0.301741,0.938361
1319,559,3.29835,-0.00964247,0.301749,0.938026
1321,557,3.29747,-0.0102996,0.302198,0.937469
1323,555,3.29643,-0.0105677,0.30265,0.937147
1325,553,3.2974,-0.0110578,0.302201,0.93701
1327,551,3.2967,-0.0115774,0.302651,0.936556
1329,549,3.2982,-0.00847854,0.3015,0.936262
1331,547,3.29791,-0.00918553,0.301964,0.9357
1333,545,3.29768,-0.00962836,0.301971,0.935463
1335,543,3.29757,-0.0104262,0.302434,0.934858
1337,541,3.29717,-0.0110186,0.302419,0.934475
1339,539,3.29585,-0.0111045,0.302872,0.934226
1341,537,3.296,-0.0117428,0.30287,0.933861
1343,535,3.29814,-0.00835094,0.301255,0.933873
1345,533,3.29686,-0.00930056,0.30216,0.932965
1347,531,3.29782,-0.0097213,0.301705,0.93287
1349,529,3.2968,-0.0103734,0.302328,0.932359
1351,527,3.29598,-0.0105806,0.302167,0.932205
1353,525,3.2958,-0.0112412,0.302226,0.931667
1355,523,3.29751,-0.0083971,0.301457,0.93118
1357,521,3.29739,-0.00921502,0.301461,0.930688
1359,519,3.29639,-0.00986467,0.301907,0.930095
1361,517,3.29606,-0.00986163,0.301912,0.930114
1363,515,3.29628,-0.00995533,0.30191,0.930069
1365,513,3.29626,-0.0110605,0.301895,0.929361
1367,511,3.29462,-0.0113209,0.302809,0.928874
1369,509,3.29527,-0.0112294,0.302346,0.929071
1371,507,3.29742,-0.00840253,0.301337,0.928568
1373,505,3.29672,-0.00928038,0.301648,0.927886
1375,503,3.29608,-0.0100363,0.302111,0.927288
1377,501,3.29497,-0.0106149,0.302563,0.926766
1379,499,3.2956,-0.0106527,0.301963,0.926887
1381,497,3.29561,-0.0113904,0.302105,0.926454
1383,495,3.29433,-0.0119751,0.302549,0.92592
1385,493,3.29715,-0.00854301,0.301085,0.925932
1387,491,3.29607,-0.00927431,0.301385,0.925332
1389,489,3.29505,-0.0101991,0.301798,0.924645
1391,487,3.29563,-0.0106809,0.301923,0.924367
1393,485,3.29536,-0.011239,0.301872,0.92409
1395,483,3.29375,-0.012206,0.302793,0.923168
1397,481,3.29635,-0.00869067,0.301163,0.923211
1399,479,3.29564,-0.0092423,0.301628,0.922739
1401,477,3.29552,-0.010056,0.301628,0.922252
1403,475,3.29495,-0.0106761,0.302098,0.921745
1405,473,3.29424,-0.0107552,0.302103,0.921677
1407,471,3.29443,-0.0114389,0.302092,0.921262
1409,469,3.29607,-0.00872986,0.301403,0.920555
1411,467,3.2952,-0.00937049,0.301563,0.920167
1413,465,3.29485,-0.0100622,0.301869,0.919595
1415,463,3.29543,-0.00881592,0.30093,0.919396
1417,461,3.29426,-0.0109018,0.301876,0.919116
1419,459,3.29442,-0.0164891,0.301399,0.918749
1421,457,3.29631,-0.0101168,0.299353,0.918079
1423,455,3.29444,-0.00958721,0.301649,0.91738
1425,453,3.29494,-0.0135551,0.3007,0.916872
1427,451,3.29492,-0.0106895,0.299762,0.916318
1429,449,3.29464,-0.0130666,0.300228,0.916038
1431,447,3.29369,-0.0138321,0.300693,0.915434
1433,445,3.29516,-0.0104465,0.299527,0.915207
1435,443,3.29551,-0.00934676,0.29906,0.914757
1437,441,3.29483,-0.0157321,0.299121,0.913812
1439,439,3.29357,-0.0108847,0.299997,0.91355
1441,437,3.29414,-0.00981748,0.299526,0.913081
1443,435,3.29419,-0.0136981,0.298595,0.912386
1445,433,3.29539,-0.014569,0.298367,0.912128
1447,431,3.29458,-0.0135936,0.298357,0.911418
1449,429,3.29445,-0.0117816,0.297894,0.911373
1451,427,3.2946,-0.0141843,0.298359,0.911089
1453,425,3.29487,-0.0119274,0.297428,0.91019
1455,423,3.2924,-0.0156928,0.299296,0.909905
1457,421,3.29536,-0.0104662,0.297195,0.909805
1459,419,3.29495,-0.00998409,0.297193,0.908827
1461,417,3.2943,-0.0108326,0.297659,0.908168
1463,415,3.29418,-0.0159058,0.296729,0.908287
1465,413,3.29334,-0.0173184,0.297649,0.907133
1467,411,3.29385,-0.0103559,0.297647,0.907241
1469,409,3.29528,-0.0145528,0.295989,0.906627
1471,407,3.29388,-0.00852479,0.296933,0.905808
1473,405,3.2949,-0.0135595,0.296003,0.905966
1475,403,3.29434,-0.0131894,0.296002,0.904937
1477,401,3.29378,-0.0150146,0.296463,0.904973
1479,399,3.29527,-0.0106195,0.295361,0.904077
1481,397,3.2946,-0.00954858,0.2953,0.903423
1483,395,3.29446,-0.0119384,0.295766,0.903154
1485,393,3.29443,-0.00914746,0.294833,0.902542
1487,391,3.29286,-0.0149689,0.296668,0.900961
1489,389,3.29354,-0.00997477,0.295284,0.901865
1491,387,3.2949,-0.0145747,0.294128,0.901055
1493,385,3.29424,-0.0102914,0.295071,0.900507
1495,383,3.29495,-0.0136316,0.294178,0.900532
1497,381,3.29367,-0.0151315,0.294615,0.899376
1499,379,3.2944,-0.0132076,0.293687,0.89953
1501,377,3.29543,-0.0111407,0.292992,0.898404
1503,375,3.29401,-0.0148494,0.294519,0.898309
1505,373,3.29491,-0.00848994,0.292666,0.897537
1507,371,3.29398,-0.00979791,0.292986,0.896622
1509,369,3.29347,-0.0134761,0.293911,0.896737
1511,367,3.29581,-0.00708273,0.29182,0.896008
1513,365,3.29448,-0.0078367,0.292281,0.895389
1515,363,3.294,-0.00860348,0.292749,0.894833
1517,361,3.29464,-0.0142587,0.291834,0.894652
1519,359,3.29382,-0.00994009,0.292754,0.894079
1521,357,3.2949,-0.0123748,0.291674,0.893236
1523,355,3.29455,-0.012976,0.291591,0.892888
1525,353,3.29486,-0.0136529,0.29159,0.892512
1527,351,3.29486,-0.0106644,0.290663,0.89199
1529,349,3.29331,-0.0151939,0.292177,0.89147
1531,347,3.29586,-0.00711938,0.29002,0.8904
1533,345,3.2953,-0.00761267,0.28997,0.890135
1535,343,3.29361,-0.0121189,0.291352,0.889631
1537,341,3.2941,-0.00915384,0.290434,0.889123
1539,339,3.29329,-0.0168692,0.290427,0.888952
1541,337,3.29486,-0.0123747,0.289181,0.887805
1543,335,3.29497,-0.0129606,0.289271,0.887498
1545,333,3.29398,-0.0156319,0.290212,0.887244
1547,331,3.29441,-0.0108801,0.28883,0.886353
1549,329,3.29338,-0.013427,0.289747,0.885864
1551,327,3.29585,-0.00884152,0.288136,0.885192
1553,325,3.29615,-0.00747237,0.287207,0.884996
1555,323,3.29382,-0.0137888,0.289507,0.884423
1557,321,3.29464,-0.009152,0.288121,0.883703
1559,319,3.29323,-0.0168601,0.288577,0.88317
1561,317,3.293,-0.0123848,0.289156,0.882814
1563,315,3.29521,-0.0147649,0.287406,0.882149
1565,313,3.29402,-0.0155586,0.287865,0.881536
1567,311,3.29292,-0.0163606,0.288328,0.880939
1569,309,3.29359,-0.013281,0.287401,0.880437
1571,307,3.29293,-0.0177354,0.288336,0.880188
1573,305,3.29446,-0.0114556,0.28671,0.879167
1575,303,3.29419,-0.0120599,0.286717,0.878839
1577,301,3.2944,-0.010921,0.28626,0.87838
1579,299,3.29321,-0.0168337,0.285925,0.87778
1581,297,3.29529,-0.0106571,0.28602,0.877312
1583,295,3.2949,-0.0155501,0.285559,0.876157
1585,293,3.29317,-0.0146139,0.286015,0.875264
1587,291,3.29358,-0.00932411,0.286014,0.875514
1589,289,3.29335,-0.0158818,0.285544,0.874673
1591,287,3.2943,-0.0132161,0.284846,0.873839
1593,285,3.2938,-0.0140119,0.285311,0.873515
1595,283,3.29399,-0.0110223,0.284391,0.872693
1597,281,3.29353,-0.0134556,0.284846,0.872441
1599,279,3.29288,-0.014241,0.285304,0.871857
1601,277,3.29487,-0.00796438,0.283231,0.870945
1603,275,3.29435,-0.00849607,0.283679,0.870483
1605,273,3.29382,-0.00921899,0.283684,0.870099
1607,271,3.29279,-0.011976,0.284608,0.86952
1609,269,3.29478,-0.0125343,0.282525,0.868777
1611,267,3.29345,-0.0134636,0.282986,0.868108
1613,265,3.29431,-0.0138681,0.28252,0.868001
1615,263,3.29374,-0.013446,0.282518,0.867004
1617,261,3.29225,-0.01621,0.283439,0.866406
1619,259,3.29489,-0.00899004,0.28137,0.866021
1621,257,3.2943,-0.00857583,0.281368,0.864995
1623,255,3.29388,-0.0111542,0.281961,0.864665
1625,253,3.29389,-0.010024,0.281371,0.86419
1627,251,3.29248,-0.0125584,0.282278,0.863996
1629,249,3.29416,-0.0133568,0.28067,0.862726
1631,247,3.29424,-0.0156613,0.280674,0.862726
1633,245,3.29314,-0.0173204,0.281589,0.86152
1635,243,3.29244,-0.0144506,0.281129,0.860705
1637,241,3.29428,-0.01257,0.279982,0.86085
1639,239,3.29473,-0.0114603,0.279515,0.860346
1641,237,3.29401,-0.0111226,0.279519,0.859261
1643,235,3.29239,-0.0155981,0.280889,0.858852
1645,233,3.29503,-0.00897524,0.278816,0.858111
1647,231,3.29414,-0.00789122,0.27882,0.85744
1649,229,3.29384,-0.0105506,0.279278,0.85709
1651,227,3.29344,-0.0155614,0.278816,0.855928
1653,225,3.29213,-0.0162634,0.279275,0.855647
1655,223,3.29378,-0.0152803,0.278581,0.854896
1657,221,3.29403,-0.0122089,0.277673,0.854368
1659,219,3.29308,-0.0136785,0.278126,0.85338
1661,217,3.2926,-0.0156279,0.278579,0.85343
1663,215,3.29474,-0.00966225,0.276982,0.852156
1665,213,3.2938,-0.0122491,0.277425,0.851834
1667,211,3.29326,-0.0112129,0.27791,0.851128
1669,209,3.29245,-0.0174861,0.277419,0.850396
1671,207,3.29503,-0.0143625,0.275817,0.850106
1673,205,3.29417,-0.00801851,0.276271,0.849452
1675,203,3.2932,-0.00886265,0.276726,0.848825
1677,201,3.29332,-0.0137291,0.275818,0.847889
1679,199,3.29233,-0.0144283,0.276265,0.847357
1681,197,3.29401,-0.0135048,0.275566,0.846797
1683,195,3.2938,-0.0123736,0.275115,0.846309
1685,193,3.29243,-0.0113118,0.27557,0.845475
1687,191,3.29276,-0.0120485,0.275123,0.845228
1689,189,3.29499,-0.0151779,0.273518,0.84422
1691,187,3.2933,-0.00882042,0.274368,0.843398
1693,185,3.29346,-0.009403,0.27443,0.843107
1695,183,3.29358,-0.0143223,0.273638,0.842131
1697,181,3.29358,-0.0135376,0.273727,0.841228
1699,179,3.29375,-0.0142734,0.273727,0.840817
1701,177,3.29369,-0.0112347,0.272824,0.840231
1703,175,3.29223,-0.0157717,0.274182,0.839856
1705,173,3.2947,-0.00913348,0.272122,0.839047
1707,171,3.29445,-0.00798672,0.271677,0.838551
1709,169,3.29344,-0.0112662,0.272521,0.837736
1711,167,3.29265,-0.0121369,0.273038,0.837149
1713,165,3.29435,-0.0127763,0.270994,0.836374
1715,163,3.29391,-0.0142242,0.27145,0.835476
1717,161,3.29367,-0.0149437,0.271471,0.835082
1719,159,3.29272,-0.0139169,0.271443,0.834373
1721,157,3.29485,-0.0108928,0.270308,0.833841
1723,155,3.294,-0.0124669,0.270753,0.832836
1725,153,3.29348,-0.0125071,0.270741,0.832784
1727,151,3.2938,-0.0113067,0.270226,0.832313
1729,149,3.29243,-0.0127671,0.270741,0.831359
1731,147,3.29391,-0.00992848,0.270044,0.830561
1733,145,3.29412,-0.00877959,0.269599,0.830083
1735,143,3.29274,-0.0175145,0.270045,0.829205
1737,141,3.29161,-0.0112018,0.270498,0.828473
1739,139,3.29447,-0.00989404,0.267555,0.827752
1741,137,3.29303,-0.0113816,0.268451,0.826646
1743,135,3.2926,-0.0159751,0.269378,0.826459
1745,133,3.29518,-0.00733231,0.266863,0.825549
1747,131,3.29316,-0.0161886,0.267755,0.824466
1749,129,3.29297,-0.0134357,0.268662,0.824259
1751,127,3.29286,-0.0178406,0.267762,0.823605
1753,125,3.29377,-0.0147665,0.26706,0.822926
1755,123,3.29329,-0.0118919,0.26797,0.822738
1757,121,3.29311,-0.0151604,0.267057,0.821432
1759,119,3.29242,-0.0140209,0.267052,0.820746
1761,117,3.29168,-0.0167768,0.267497,0.82041
1763,115,3.29396,-0.0118467,0.265906,0.81973
1765,113,3.29356,-0.00951247,0.265457,0.818588
1767,111,3.29216,-0.0141332,0.266798,0.818223
1769,109,3.29465,-0.00744148,0.264873,0.81735
1771,107,3.29406,-0.00809772,0.264769,0.817032
1773,105,3.29258,-0.00971139,0.265666,0.815865
1775,103,3.29273,-0.0160094,0.264769,0.815519
1777,101,3.29437,-0.0117356,0.263629,0.814611
1779,99,3.29295,-0.014596,0.26453,0.813833
1781,97,3.29296,-0.0152703,0.264521,0.813458
1783,95,3.29303,-0.0140028,0.264081,0.813019
1785,93,3.2938,-0.0120146,0.263817,0.811609
1787,91,3.2935,-0.0108623,0.263866,0.81106
1789,89,3.2933,-0.0114887,0.26337,0.81073
1791,87,3.29256,-0.0104313,0.263366,0.810005
1793,85,3.29413,-0.00929097,0.262678,0.809566
1795,83,3.29371,-0.0100698,0.262682,0.809164
1797,81,3.29231,-0.0173079,0.263254,0.806439
1799,79,3.29221,-0.0180101,0.263148,0.807585
1801,77,3.29367,-0.0158499,0.262468,0.806432
1803,75,3.29372,-0.0107569,0.261113,0.805708
1805,73,3.2927,-0.0141841,0.262013,0.804902
1807,71,3.29196,-0.0150471,0.262455,0.804299
1809,69,3.29434,-0.0100598,0.260869,0.803632
1811,67,3.29344,-0.0107964,0.260856,0.803194
1813,65,3.29249,-0.0116411,0.261304,0.80261
1815,63,3.29201,-0.0112398,0.261299,0.801537
1817,61,3.29363,-0.0158198,0.260159,0.800943
1819,59,3.29287,-0.00905937,0.260615,0.800354
1821,57,3.29176,-0.009881,0.261072,0.799767
1823,55,3.29444,-0.0130948,0.259021,0.798925
1825,53,3.29327,-0.0139422,0.259463,0.798333
1827,51,3.29282,-0.0147126,0.25949,0.797968
1829,49,3.29287,-0.0124209,0.259037,0.796778
1831,47,3.29431,-0.00939335,0.258353,0.79606
1833,45,3.29331,-0.0109908,0.258801,0.795072
1835,43,3.29292,-0.0116626,0.258912,0.794737
1837,41,3.29185,-0.0182792,0.258798,0.794017
1839,39,3.29354,-0.0139764,0.257662,0.792794
1841,37,3.29305,-0.00912634,0.258108,0.792455
1843,35,3.29211,-0.0175774,0.258555,0.791924
1845,33,3.29225,-0.0151062,0.257648,0.790907
1847,31,3.29351,-0.0102179,0.256508,0.78995
1849,29,3.29286,-0.0148938,0.257417,0.789825
1851,27,3.29273,-0.0117607,0.256512,0.78918
1853,25,3.29439,-0.00746116,0.255375,0.78796
1855,23,3.29219,-0.011229,0.256727,0.786864
1857,21,3.29311,-0.0097788,0.25583,0.786655
1859,19,3.29435,-0.0133326,0.2547,0.785368
1861,17,3.29375,-0.0121273,0.254698,0.784715
1863,15,3.29234,-0.0168915,0.255593,0.784535
1865,13,3.29255,-0.0136759,0.254696,0.783915
1867,11,3.29435,-0.00747619,0.253117,0.782511
1869,9,3.29318,-0.00906382,0.253557,0.781543
1871,7,3.2919,-0.011895,0.254448,0.78109
1873,5,3.29236,-0.0106165,0.253554,0.780752
1875,3,3.29394,-0.0140035,0.252901,0.779545