File: hust_correlation_analysis/matrices/HUST_1-3_cycle_feature_matrix.csv
cycle_number,rul,voltage,current,capacity,charge_capacity
1,1860,3.31099,0.0334083,0.305631,1.04906
3,1858,3.29658,-0.0126869,0.325423,1.00926
5,1856,3.29943,-0.0131614,0.323919,1.01214
7,1854,3.30156,-0.012416,0.322436,1.0157
9,1852,3.30299,-0.0123451,0.321423,1.01868
11,1850,3.30371,-0.0121888,0.32043,1.02168
13,1848,3.3042,-0.0133175,0.320313,1.02355
15,1846,3.30656,-0.0114642,0.318604,1.02539
17,1844,3.30614,-0.0125754,0.31851,1.02726
19,1842,3.30715,-0.0113967,0.317665,1.02835
21,1840,3.30844,-0.0102145,0.316409,1.02962
23,1838,3.30955,-0.00959876,0.315583,1.03011
25,1836,3.30797,-0.0118636,0.31633,1.03115
27,1834,3.30921,-0.0118327,0.315496,1.0315
29,1832,3.31005,-0.0105881,0.314664,1.03261
31,1830,3.31044,-0.0101126,0.314136,1.03306
33,1828,3.31082,-0.00954203,0.313845,1.0336
35,1826,3.31133,-0.00951423,0.313434,1.0338
37,1824,3.31008,-0.0122959,0.314182,1.03422
39,1822,3.31041,-0.0117394,0.313779,1.03474
41,1820,3.31047,-0.0117319,0.31377,1.03475
43,1818,3.31075,-0.0111837,0.313367,1.03526
45,1816,3.3108,-0.0112502,0.313369,1.03523
47,1814,3.31096,-0.0112169,0.312961,1.03542
49,1812,3.31118,-0.0117945,0.312962,1.03506
51,1810,3.31129,-0.0117704,0.312557,1.03523
53,1808,3.31168,-0.0116966,0.312156,1.03545
55,1806,3.31172,-0.0117086,0.312155,1.03546
57,1804,3.31168,-0.0117725,0.312153,1.03541
59,1802,3.31204,-0.0115793,0.311751,1.03567
61,1800,3.31252,-0.0116091,0.311465,1.03583
63,1798,3.31418,-0.00883977,0.310201,1.03562
65,1796,3.31428,-0.00933351,0.310199,1.03528
67,1794,3.3142,-0.00949456,0.310922,1.03517
69,1792,3.31423,-0.00938756,0.310197,1.03524
71,1790,3.31394,-0.00998476,0.3102,1.03488
73,1788,3.31357,-0.010628,0.310604,1.03432
75,1786,3.31388,-0.0105131,0.310204,1.03456
77,1784,3.31386,-0.0110435,0.310199,1.03421
79,1782,3.31382,-0.0111013,0.3102,1.03418
81,1780,3.31369,-0.0110996,0.310311,1.03417
83,1778,3.31359,-0.0111382,0.3102,1.03416
85,1776,3.31357,-0.0111323,0.310197,1.03414
87,1774,3.31366,-0.0116596,0.310195,1.03381
89,1772,3.31339,-0.0116875,0.310161,1.03379
91,1770,3.31504,-0.00940574,0.309053,1.03325
93,1768,3.31488,-0.00940024,0.309239,1.03324
95,1766,3.31446,-0.0100066,0.309456,1.03272
97,1764,3.3144,-0.0100213,0.309457,1.03271
99,1762,3.31462,-0.00996947,0.309057,1.0329
101,1760,3.31442,-0.00995844,0.30905,1.03289
103,1758,3.31412,-0.0105898,0.309276,1.03233
105,1756,3.31437,-0.0105523,0.309052,1.03252
107,1754,3.31436,-0.0105602,0.309236,1.03251
109,1752,3.31409,-0.0111937,0.309446,1.03193
111,1750,3.31407,-0.0112111,0.309447,1.03193
113,1748,3.3139,-0.0111978,0.309447,1.03193
115,1746,3.31385,-0.0117083,0.309534,1.03161
117,1744,3.31385,-0.0117357,0.309452,1.0316
119,1742,3.31548,-0.00888142,0.308307,1.03143
121,1740,3.31522,-0.00947468,0.308706,1.03087
123,1738,3.31514,-0.00945648,0.3087,1.03088
125,1736,3.31524,-0.00992112,0.308815,1.03056
127,1734,3.31472,-0.0100385,0.309094,1.03031
129,1732,3.31484,-0.009964,0.308695,1.03052
131,1730,3.31457,-0.0106419,0.309091,1.02992
133,1728,3.31445,-0.0106234,0.309094,1.02994
135,1726,3.31435,-0.0106466,0.309097,1.02994
137,1724,3.31437,-0.01114,0.309101,1.02962
139,1722,3.31426,-0.0111329,0.309099,1.02964
141,1720,3.31429,-0.0116333,0.309102,1.02931
143,1718,3.3142,-0.01166,0.309221,1.02929
145,1716,3.31373,-0.0117205,0.309503,1.02908
147,1714,3.3153,-0.00887581,0.308353,1.0289
149,1712,3.31489,-0.00950362,0.308752,1.02833
151,1710,3.31471,-0.00950525,0.308752,1.02832
153,1708,3.31444,-0.0101321,0.309154,1.02776
155,1706,3.31473,-0.0100418,0.308752,1.02825
157,1704,3.31459,-0.0100444,0.308758,1.02798
159,1702,3.31432,-0.0106768,0.30916,1.02743
161,1700,3.3144,-0.0106338,0.309168,1.02748
163,1698,3.31436,-0.0106836,0.309174,1.02746
165,1696,3.31432,-0.0111541,0.309165,1.02583
167,1694,3.3143,-0.0112526,0.309176,1.0271
169,1692,3.31363,-0.011267,0.309573,1.02691
171,1690,3.31364,-0.0112441,0.309561,1.0269
173,1688,3.31325,-0.011844,0.309968,1.02635
175,1686,3.31347,-0.011742,0.309566,1.02658
177,1684,3.31514,-0.0088997,0.308408,1.02635
179,1682,3.31474,-0.00954586,0.308812,1.02577
181,1680,3.31465,-0.00956247,0.308815,1.02577
183,1678,3.3145,-0.00955293,0.308815,1.02578
185,1676,3.31426,-0.0101733,0.3094,1.0252
187,1674,3.31439,-0.00956237,0.30869,1.02574
189,1672,3.31417,-0.0101367,0.309215,1.02524
191,1670,3.31408,-0.0101183,0.309333,1.02525
193,1668,3.31406,-0.0106286,0.309217,1.02491
195,1666,3.31359,-0.0107201,0.309619,1.0247
197,1664,3.3139,-0.0106487,0.309214,1.02489
199,1662,3.31341,-0.0112672,0.310333,1.02435
201,1660,3.31329,-0.0113321,0.30962,1.0243
203,1658,3.31318,-0.0112977,0.30962,1.02434
205,1656,3.31281,-0.0119241,0.31003,1.02378
207,1654,3.31308,-0.0118423,0.309707,1.02398
209,1652,3.31485,-0.00900939,0.308471,1.02376
211,1650,3.31463,-0.00957057,0.308871,1.02322
213,1648,3.31459,-0.00952782,0.30887,1.02325
215,1646,3.31454,-0.00951199,0.308837,1.02324
217,1644,3.31448,-0.0095129,0.308865,1.02323
219,1642,3.314,-0.00963192,0.309268,1.02299
221,1640,3.31413,-0.0101198,0.309976,1.02265
223,1638,3.31397,-0.0101816,0.309262,1.02262
225,1636,3.31342,-0.0100927,0.309665,1.0225
227,1634,3.31349,-0.0102253,0.309666,1.02241
229,1632,3.31356,-0.0103295,0.309778,1.02232
231,1630,3.31363,-0.0106891,0.309657,1.02209
233,1628,3.31318,-0.0108423,0.309666,1.02201
235,1626,3.31308,-0.010817,0.309664,1.02204
237,1624,3.31291,-0.0114283,0.310074,1.02149
239,1622,3.31269,-0.0113707,0.310784,1.0215
241,1620,3.3125,-0.0113681,0.31007,1.02151
243,1618,3.31253,-0.0119472,0.310072,1.02115
245,1616,3.3125,-0.0119731,0.310071,1.02112
247,1614,3.31231,-0.0119501,0.310068,1.02114
249,1612,3.3136,-0.00975796,0.309326,1.02035
251,1610,3.31391,-0.00966394,0.308921,1.02057
253,1608,3.31356,-0.0102708,0.309513,1.02003
255,1606,3.31352,-0.0102992,0.308642,1.02002
257,1604,3.31351,-0.0102516,0.309329,1.02005
259,1602,3.31342,-0.010266,0.309407,1.02003
261,1600,3.31311,-0.0109071,0.309732,1.01944
263,1598,3.31347,-0.0108111,0.309324,1.01966
265,1596,3.31326,-0.0108435,0.309506,1.01965
267,1594,3.31293,-0.0114088,0.309729,1.01911
269,1592,3.3127,-0.0114243,0.30973,1.0191
271,1590,3.31303,-0.0113364,0.309327,1.01935
273,1588,3.31262,-0.0119962,0.309739,1.01877
275,1586,3.31248,-0.0119947,0.309921,1.01878
277,1584,3.31234,-0.0119678,0.309731,1.01878
279,1582,3.31382,-0.009681,0.309704,1.01803
281,1580,3.31376,-0.00968187,0.308988,1.01802
283,1578,3.3136,-0.00970647,0.308986,1.018
285,1576,3.3136,-0.00968769,0.308983,1.01801
287,1574,3.31331,-0.0102906,0.309513,1.01746
289,1572,3.31315,-0.0103393,0.309392,1.01742
291,1570,3.31296,-0.0103476,0.309394,1.01743
293,1568,3.31288,-0.0103651,0.309395,1.01743
295,1566,3.31311,-0.0108931,0.309395,1.01709
297,1564,3.31294,-0.0108728,0.309397,1.0171
299,1562,3.31293,-0.0108769,0.309397,1.01711
301,1560,3.31255,-0.0114604,0.309807,1.01634
303,1558,3.31244,-0.0115278,0.309806,1.01653
305,1556,3.31233,-0.0115231,0.309808,1.01655
307,1554,3.31248,-0.0120127,0.309805,1.01623
309,1552,3.31225,-0.0119928,0.309806,1.01622
311,1550,3.31215,-0.0120228,0.309805,1.01621
313,1548,3.31207,-0.0120082,0.309803,1.01647
315,1546,3.31343,-0.00920315,0.308386,1.01578
317,1544,3.3129,-0.0097921,0.310196,1.01526
319,1542,3.31314,-0.00974068,0.309065,1.01545
321,1540,3.31312,-0.0103195,0.309065,1.0151
323,1538,3.31298,-0.0103064,0.309066,1.01511
325,1536,3.31301,-0.0103245,0.309063,1.0151
327,1534,3.31295,-0.0103121,0.309061,1.0151
329,1532,3.31276,-0.010911,0.30947,1.01454
331,1530,3.31278,-0.010919,0.309469,1.01454
333,1528,3.31278,-0.0108518,0.309471,1.01458
335,1526,3.3126,-0.010839,0.309471,1.01458
337,1524,3.31261,-0.0108969,0.30947,1.01456
339,1522,3.31211,-0.0115496,0.309889,1.01398
341,1520,3.31201,-0.0115819,0.309892,1.01398
343,1518,3.31193,-0.012087,0.309889,1.01366
345,1516,3.31185,-0.0121094,0.309896,1.01366
347,1514,3.31178,-0.0120711,0.309894,1.01368
349,1512,3.31354,-0.00914352,0.308731,1.01345
351,1510,3.31269,-0.00983437,0.309561,1.0127
353,1508,3.3129,-0.00972893,0.309143,1.01293
355,1506,3.31283,-0.00974586,0.309141,1.01291
357,1504,3.31273,-0.00978386,0.30914,1.01287
359,1502,3.31242,-0.010426,0.309554,1.01232
361,1500,3.31241,-0.0104319,0.309558,1.01233
363,1498,3.31244,-0.0108252,0.309563,1.01208
365,1496,3.31254,-0.0109612,0.30957,1.01203
367,1494,3.31252,-0.010945,0.309576,1.01205
369,1492,3.312,-0.0110385,0.309991,1.01183
371,1490,3.31177,-0.0116057,0.310408,1.01131
373,1488,3.31189,-0.011521,0.309987,1.0115
375,1486,3.31183,-0.0115511,0.309975,1.01147
377,1484,3.31168,-0.0115821,0.309973,1.01143
379,1482,3.31159,-0.0115459,0.30997,1.01145
381,1480,3.31147,-0.011535,0.309965,1.01144
383,1478,3.3111,-0.0122084,0.310508,1.01086
385,1476,3.31098,-0.0122233,0.310401,1.0109
387,1474,3.31251,-0.00985037,0.309658,1.01019
389,1472,3.31239,-0.00990334,0.309663,1.01016
391,1470,3.31272,-0.00979678,0.309243,1.01037
393,1468,3.31232,-0.00986369,0.30894,1.01018
395,1466,3.3124,-0.0104677,0.309664,1.00981
397,1464,3.3123,-0.0104183,0.309664,1.00984
399,1462,3.31232,-0.0103891,0.309666,1.00988
401,1460,3.31188,-0.0105167,0.310082,1.00961
403,1458,3.31188,-0.0110232,0.310088,1.00931
405,1456,3.31161,-0.0110529,0.310079,1.00927
407,1454,3.31157,-0.011129,0.310079,1.00922
409,1452,3.31165,-0.0110634,0.310076,1.00926
411,1450,3.31169,-0.0115451,0.310073,1.00896
413,1448,3.31114,-0.0116876,0.310504,1.00873
415,1446,3.31094,-0.0116602,0.310503,1.00875
417,1444,3.31091,-0.0116676,0.310503,1.00873
419,1442,3.31063,-0.0116576,0.310486,1.0087
421,1440,3.31059,-0.0117181,0.310486,1.00865
423,1438,3.31061,-0.0122615,0.310564,1.0083
425,1436,3.31056,-0.012249,0.310481,1.00831
427,1434,3.31055,-0.0122756,0.310479,1.00828
429,1432,3.31026,-0.0123406,0.310903,1.00808
431,1430,3.31188,-0.00932995,0.309857,1.00772
433,1428,3.31192,-0.00977883,0.309736,1.00763
435,1426,3.31195,-0.00988635,0.309735,1.00756
437,1424,3.3119,-0.00987217,0.309734,1.00757
439,1422,3.31147,-0.0105318,0.310155,1.00699
441,1420,3.31166,-0.0104479,0.309735,1.00721
443,1418,3.31119,-0.0105267,0.310153,1.00699
445,1416,3.31113,-0.0105641,0.310152,1.00696
447,1414,3.31101,-0.0105794,0.310154,1.00696
449,1412,3.31071,-0.0111818,0.310574,1.00641
451,1410,3.31064,-0.0112145,0.310573,1.00639
453,1408,3.31085,-0.0111347,0.310149,1.00659
455,1406,3.31095,-0.0111471,0.310152,1.0066
457,1404,3.31108,-0.0116524,0.310152,1.00629
459,1402,3.31053,-0.0117119,0.310578,1.00609
461,1400,3.31025,-0.012364,0.311004,1.00554
463,1398,3.31048,-0.012286,0.310578,1.00574
465,1396,3.31029,-0.0123918,0.310578,1.00567
467,1394,3.3102,-0.0123286,0.310757,1.0057
469,1392,3.31006,-0.012289,0.31057,1.00571
471,1390,3.31167,-0.00994051,0.310556,1.00497
473,1388,3.31114,-0.0100117,0.310246,1.00474
475,1386,3.3113,-0.00992249,0.309829,1.00497
477,1384,3.31121,-0.0100097,0.309833,1.00493
479,1382,3.3109,-0.0106447,0.310261,1.00439
481,1380,3.31136,-0.0104966,0.310035,1.00469
483,1378,3.31135,-0.0105318,0.309853,1.00469
485,1376,3.3114,-0.0105427,0.309843,1.00464
487,1374,3.31107,-0.0111558,0.310264,1.00408
489,1372,3.31079,-0.0111474,0.310252,1.00405
491,1370,3.31074,-0.0111701,0.310251,1.00405
493,1368,3.3106,-0.0111618,0.310249,1.00404
495,1366,3.3103,-0.0117665,0.31067,1.0035
497,1364,3.31016,-0.0117668,0.310671,1.00376
499,1362,3.31012,-0.0117921,0.310672,1.00348
501,1360,3.30995,-0.0117978,0.310522,1.00347
503,1358,3.30978,-0.0118363,0.310675,1.00346
505,1356,3.30985,-0.0124169,0.310872,1.00314
507,1354,3.30988,-0.0123728,0.310694,1.00318
509,1352,3.31127,-0.0100037,0.309946,1.00242
511,1350,3.31124,-0.00997014,0.310018,1.00242
513,1348,3.31124,-0.00996541,0.309927,1.00238
515,1346,3.31115,-0.00998855,0.309926,1.00236
517,1344,3.31104,-0.00998216,0.310108,1.00237
519,1342,3.31105,-0.0100179,0.309925,1.00236
521,1340,3.31064,-0.0106403,0.310351,1.00181
523,1338,3.31053,-0.0106219,0.31043,1.00181
525,1336,3.31039,-0.0107122,0.310365,1.00178
527,1334,3.31054,-0.0111911,0.310366,1.00151
529,1332,3.3099,-0.0112429,0.310798,1.00133
531,1330,3.30982,-0.0112745,0.310797,1.00131
533,1328,3.31001,-0.011855,0.310795,1.00095
535,1326,3.31026,-0.011762,0.310369,1.00118
537,1324,3.30985,-0.0118229,0.310795,1.00097
539,1322,3.30952,-0.011871,0.311226,1.00077
541,1320,3.30974,-0.011816,0.310874,1.00096
543,1318,3.30978,-0.0123896,0.310796,1.00062
545,1316,3.30913,-0.0124711,0.31122,1.0004
547,1314,3.30894,-0.0124498,0.311226,1.00043
549,1312,3.31101,-0.00942588,0.310051,0.99997
551,1310,3.31041,-0.0101135,0.310485,0.999634
553,1308,3.31019,-0.0101474,0.310487,0.999617
555,1306,3.31023,-0.0100613,0.310485,0.99968
557,1304,3.31027,-0.0106568,0.310669,0.999306
559,1302,3.31018,-0.0107237,0.310486,0.999274
561,1300,3.31014,-0.0107091,0.310487,0.999278
563,1298,3.3102,-0.0106538,0.310486,0.999316
565,1296,3.30966,-0.0112506,0.310911,0.99878
567,1294,3.31002,-0.0112167,0.310565,0.998973
569,1292,3.30934,-0.011347,0.310914,0.998728
571,1290,3.30974,-0.0112431,0.310485,0.998963
573,1288,3.30947,-0.0118975,0.310918,0.998399
575,1286,3.30931,-0.011872,0.310916,0.99839
577,1284,3.30899,-0.011859,0.310915,0.998417
579,1282,3.30901,-0.011882,0.310916,0.998659
581,1280,3.30915,-0.0119072,0.310913,0.998375
583,1278,3.30864,-0.0126148,0.311345,0.997795
585,1276,3.30903,-0.0124789,0.310908,0.998028
587,1274,3.30861,-0.0125743,0.311343,0.99781
589,1272,3.31092,-0.00944195,0.309739,0.997827
591,1270,3.3105,-0.0100657,0.310169,0.997274
593,1268,3.3103,-0.0101178,0.310169,0.997253
595,1266,3.31015,-0.0101107,0.310171,0.997263
597,1264,3.31014,-0.0100641,0.31017,0.997273
599,1262,3.30973,-0.0107089,0.3106,0.996708
601,1260,3.3096,-0.0107792,0.310598,0.996675
603,1258,3.309495,-0.0107877,0.310602,0.996682
605,1256,3.30995,-0.0107299,0.310006,0.996871
607,1254,3.30978,-0.0113309,0.310598,0.996341
609,1252,3.30957,-0.0113409,0.310598,0.996326
611,1250,3.30942,-0.0113495,0.310598,0.996321
613,1248,3.30929,-0.0113839,0.310599,0.996317
615,1246,3.3092,-0.0119616,0.311036,0.995814
617,1244,3.30894,-0.0119804,0.311041,0.995814
619,1242,3.30914,-0.0118705,0.310595,0.996002
621,1240,3.30874,-0.0120645,0.311034,0.995733
623,1238,3.30806,-0.0124431,0.311463,0.995341
625,1236,3.30854,-0.0126321,0.311107,0.995375
627,1234,3.30848,-0.0125679,0.311028,0.995421
629,1232,3.30971,-0.00957006,0.310283,0.995009
631,1230,3.31006,-0.0101628,0.310283,0.994648
633,1228,3.30993,-0.0102079,0.310283,0.994624
635,1226,3.3104,-0.0100883,0.309852,0.99486
637,1224,3.30987,-0.0107237,0.310278,0.9943
639,1222,3.30969,-0.0106508,0.310282,0.994346
641,1220,3.30961,-0.0107138,0.310283,0.994312
643,1218,3.3095,-0.0107411,0.310281,0.994286
645,1216,3.30909,-0.0113874,0.310718,0.993743
647,1214,3.30888,-0.0114479,0.310722,0.993708
649,1212,3.30884,-0.0114431,0.310721,0.993717
651,1210,3.30904,-0.012021,0.310719,0.993356
653,1208,3.30909,-0.0119579,0.310719,0.993402
655,1206,3.30894,-0.0119573,0.311456,0.993409
657,1204,3.30873,-0.0119509,0.310715,0.993403
659,1202,3.30827,-0.0126241,0.31103,0.992844
661,1200,3.30813,-0.0125993,0.311151,0.992845
663,1198,3.30799,-0.0126278,0.311151,0.992817
665,1196,3.30781,-0.0126663,0.311153,0.992811
667,1194,3.30937,-0.0102731,0.310409,0.992024
669,1192,3.30976,-0.0101364,0.309973,0.992264
671,1190,3.30979,-0.0102349,0.309969,0.9922
673,1188,3.30929,-0.0102724,0.310405,0.99202
675,1186,3.30973,-0.0101542,0.309966,0.99224
677,1184,3.30925,-0.0108184,0.310389,0.991704
679,1182,3.309,-0.0108375,0.31041,0.99168
681,1180,3.3091,-0.0108206,0.310407,0.991693
683,1178,3.30865,-0.0115085,0.31084,0.991102
685,1176,3.3084,-0.0115055,0.310844,0.991117
687,1174,3.30871,-0.0114185,0.310532,0.991329
689,1172,3.30867,-0.0114658,0.310408,0.991291
691,1170,3.30859,-0.0120967,0.310841,0.990755
693,1168,3.30849,-0.0119565,0.310829,0.989411
695,1166,3.30832,-0.0121108,0.310844,0.990738
697,1164,3.30825,-0.0120895,0.310842,0.990766
699,1162,3.30822,-0.0126761,0.31084,0.990398
701,1160,3.30764,-0.0127413,0.31128,0.990462
703,1158,3.30935,-0.010242,0.310103,0.989643
705,1156,3.30928,-0.0101724,0.310099,0.989673
707,1154,3.30919,-0.0102251,0.310096,0.989645
709,1152,3.30918,-0.0102636,0.310101,0.989617
711,1150,3.30918,-0.0102637,0.310096,0.989614
713,1148,3.30882,-0.0109204,0.310532,0.989048
715,1146,3.3086,-0.0108764,0.310535,0.989087
717,1144,3.30837,-0.0108969,0.310532,0.989067
719,1142,3.30871,-0.0114585,0.310531,0.988731
721,1140,3.30856,-0.0115117,0.310532,0.988695
723,1138,3.30792,-0.0115916,0.310977,0.988484
725,1136,3.30826,-0.0114915,0.310538,0.988722
727,1134,3.30785,-0.0122086,0.310971,0.988115
729,1132,3.30786,-0.0122138,0.310974,0.988117
731,1130,3.30776,-0.0121701,0.310976,0.98816
733,1128,3.30765,-0.0121396,0.310954,0.988116
735,1126,3.30768,-0.0127898,0.310955,0.987711
737,1124,3.30752,-0.0127478,0.310955,0.987738
739,1122,3.30741,-0.0127809,0.310955,0.98773
741,1120,3.30868,-0.0097911,0.310303,0.98727
743,1118,3.30865,-0.0103583,0.310229,0.986996
745,1116,3.30869,-0.0103367,0.310227,0.987007
747,1114,3.30875,-0.0109577,0.310232,0.986666
749,1112,3.30875,-0.0109107,0.310229,0.986678
751,1110,3.30874,-0.0108811,0.310223,0.986673
753,1108,3.30829,-0.011576,0.310665,0.986096
755,1106,3.3085,-0.0115272,0.310233,0.986308
757,1104,3.30823,-0.0114851,0.31022,0.986299
759,1102,3.3078,-0.0116341,0.310664,0.98605
761,1100,3.30773,-0.0121591,0.310653,0.985945
763,1098,3.30766,-0.0121998,0.310656,0.985686
765,1096,3.30771,-0.0121882,0.310675,0.985745
767,1094,3.30728,-0.0129131,0.311101,0.985363
769,1092,3.30898,-0.00976247,0.309921,0.984935
771,1090,3.30901,-0.0103194,0.309926,0.984614
773,1088,3.30881,-0.0102496,0.309927,0.98467
775,1086,3.30874,-0.0102957,0.309922,0.984402
777,1084,3.30831,-0.0109921,0.310486,0.984035
779,1082,3.30812,-0.0109871,0.310363,0.984037
781,1080,3.30796,-0.0111351,0.310361,0.983938
783,1078,3.30846,-0.0109506,0.309917,0.984211
785,1076,3.30776,-0.0116866,0.310799,0.98343
787,1074,3.30796,-0.0116163,0.311095,0.983629
789,1072,3.30802,-0.0115702,0.310352,0.983667
791,1070,3.30754,-0.0122617,0.310979,0.98309
793,1068,3.30724,-0.0122527,0.310803,0.983095
795,1066,3.30693,-0.0123962,0.310804,0.983013
797,1064,3.30659,-0.0130049,0.311245,0.982495
799,1062,3.30706,-0.0128279,0.310801,0.98276
801,1060,3.30875,-0.0103815,0.310061,0.981988
803,1058,3.30855,-0.0103527,0.310062,0.982011
805,1056,3.30867,-0.0103098,0.309617,0.982194
807,1054,3.30811,-0.0104234,0.310058,0.981952
809,1052,3.30779,-0.0110913,0.310501,0.981371
811,1050,3.30757,-0.0110653,0.3105,0.981394
813,1048,3.30786,-0.0109943,0.310057,0.981598
815,1046,3.30762,-0.0117241,0.310499,0.980776
817,1044,3.30747,-0.0117003,0.310501,0.98101
819,1042,3.30734,-0.0116806,0.310496,0.98102
821,1040,3.30702,-0.0123888,0.310945,0.98044
823,1038,3.30645,-0.0123584,0.310953,0.980476
825,1036,3.30652,-0.0123457,0.310942,0.980466
827,1034,3.30656,-0.0129349,0.310945,0.980109
829,1032,3.30628,-0.0129236,0.310945,0.980124
831,1030,3.3063,-0.0129935,0.310942,0.980088
833,1028,3.30827,-0.00982473,0.309757,0.979878
835,1026,3.30785,-0.0105046,0.310202,0.979319
837,1024,3.30808,-0.010453,0.309936,0.979514
839,1022,3.30794,-0.0103514,0.309751,0.979534
841,1020,3.30738,-0.0105241,0.310187,0.979249
843,1018,3.3068,-0.01127,0.310649,0.978683
845,1016,3.30732,-0.0111047,0.310198,0.978946
847,1014,3.30699,-0.0117242,0.310645,0.978424
849,1012,3.30693,-0.011698,0.310648,0.978226
851,1010,3.30685,-0.0123862,0.310649,0.97803
853,1008,3.30664,-0.0123941,0.310646,0.978024
855,1006,3.30658,-0.0123582,0.310647,0.978042
857,1004,3.30656,-0.0123879,0.310654,0.978049
859,1002,3.30603,-0.0130651,0.311103,0.977741
861,1000,3.30621,-0.0129947,0.310651,0.977659
863,998,3.30582,-0.0130859,0.311101,0.977458
865,996,3.30729,-0.010584,0.31035,0.976666
867,994,3.30754,-0.0105892,0.309908,0.976845
869,992,3.30746,-0.0110985,0.309914,0.976562
871,990,3.30696,-0.0111848,0.31036,0.976335
873,988,3.30696,-0.011725,0.31036,0.976029
875,986,3.3068,-0.011739,0.310353,0.975997
877,984,3.30672,-0.0117552,0.310353,0.975982
879,982,3.30631,-0.0124671,0.310801,0.975386
881,980,3.3061,-0.0124587,0.310805,0.975409
883,978,3.30608,-0.0124856,0.3108,0.975385
885,976,3.30591,-0.0124886,0.310803,0.975377
887,974,3.3057,-0.0131469,0.310879,0.974994
889,972,3.30565,-0.0130836,0.310733,0.975002
891,970,3.30757,-0.0099938,0.309611,0.974761
893,968,3.30731,-0.0105935,0.310816,0.974266
895,966,3.30698,-0.0106375,0.310067,0.974235
897,964,3.30702,-0.0111766,0.310063,0.973917
899,962,3.30676,-0.0112449,0.310064,0.973866
901,960,3.30634,-0.011888,0.311262,0.973331
903,958,3.30621,-0.0118714,0.310511,0.973338
905,956,3.30618,-0.0118996,0.310509,0.973304
907,954,3.30624,-0.0124077,0.310508,0.973014
909,952,3.30597,-0.0125099,0.311252,0.972944
911,950,3.30568,-0.012411,0.310505,0.972996
913,948,3.30525,-0.0132752,0.31096,0.972316
915,946,3.3054,-0.0132465,0.31097,0.97236
917,944,3.30527,-0.0132305,0.310957,0.972342
919,942,3.30716,-0.0105786,0.309762,0.971809
921,940,3.30677,-0.0105916,0.309761,0.971792
923,938,3.30685,-0.0105501,0.30976,0.97182
925,936,3.30617,-0.0112806,0.310217,0.97123
927,934,3.3062,-0.011329,0.310293,0.971216
929,932,3.30576,-0.0119877,0.310672,0.970657
931,930,3.30554,-0.0119751,0.310673,0.970667
933,928,3.30564,-0.0125799,0.310677,0.97058
935,926,3.3054,-0.0125339,0.310673,0.970346
937,924,3.30526,-0.0125864,0.310671,0.970315
939,922,3.30466,-0.0133438,0.311131,0.969707
941,920,3.30498,-0.0132769,0.310675,0.96991
943,918,3.3066,-0.0106649,0.310064,0.969203
945,916,3.30651,-0.0106929,0.309945,0.969201
947,914,3.30656,-0.0112478,0.309945,0.968875
949,912,3.30577,-0.0113781,0.309881,0.968633
951,910,3.30605,-0.0113605,0.309942,0.968804
953,908,3.3056,-0.0119806,0.310396,0.968256
955,906,3.30547,-0.0120076,0.310392,0.96824
957,904,3.3054,-0.0120158,0.310388,0.968231
959,902,3.30506,-0.0127308,0.311598,0.967644
961,900,3.30465,-0.01274,0.310844,0.967627
963,898,3.30504,-0.0126147,0.310385,0.967872
965,896,3.30468,-0.0133279,0.310846,0.967295
967,894,3.30656,-0.0106946,0.309657,0.966765
969,892,3.30638,-0.0106158,0.309658,0.966799
971,890,3.30553,-0.0109007,0.310122,0.966479
973,888,3.30565,-0.0114007,0.310114,0.96618
975,886,3.30571,-0.0113762,0.310112,0.9662
977,884,3.30574,-0.0120143,0.310858,0.965793
979,882,3.3055,-0.0119804,0.310103,0.965803
981,880,3.30509,-0.0120513,0.310103,0.965766
983,878,3.30513,-0.0120377,0.310101,0.965772
985,876,3.30478,-0.012714,0.310559,0.965211
987,874,3.30462,-0.0127474,0.311312,0.965204
989,872,3.30423,-0.0134156,0.311037,0.964682
991,870,3.30388,-0.0134775,0.311033,0.964632
993,868,3.30563,-0.0102399,0.309822,0.964387
995,866,3.30583,-0.0108087,0.309824,0.964065
997,864,3.30585,-0.0113926,0.309829,0.963738
999,862,3.3056,-0.0113955,0.30982,0.963708
1001,860,3.30482,-0.0116236,0.310293,0.963446
1003,858,3.30515,-0.0114365,0.309816,0.963676
1005,856,3.30474,-0.0121138,0.310268,0.963083
1007,854,3.30477,-0.0121277,0.310274,0.963117
1009,852,3.30408,-0.0128003,0.310728,0.962527
1011,850,3.30365,-0.0129173,0.310799,0.962442
1013,848,3.30427,-0.0127569,0.310259,0.96269
1015,846,3.30368,-0.0134318,0.310721,0.96214
1017,844,3.30515,-0.0108891,0.309998,0.961383
1019,842,3.30489,-0.0110219,0.310005,0.961326
1021,840,3.30507,-0.0115989,0.310181,0.960999
1023,838,3.30501,-0.0114752,0.310001,0.961054
1025,836,3.305,-0.0121053,0.310002,0.960697
1027,834,3.30419,-0.0121932,0.310463,0.960466
1029,832,3.30398,-0.0122983,0.310467,0.960413
1031,830,3.30406,-0.0128796,0.310464,0.960066
1033,828,3.3039,-0.012928,0.310464,0.960051
1035,826,3.30392,-0.0128608,0.310596,0.960098
1037,824,3.3035,-0.0135786,0.310923,0.959493
1039,822,3.30525,-0.0103273,0.309725,0.959273
1041,820,3.30509,-0.0109,0.309725,0.958947
1043,818,3.30517,-0.01087,0.309727,0.958957
1045,816,3.30439,-0.0117073,0.310313,0.958314
1047,814,3.30425,-0.0116619,0.310191,0.958348
1049,812,3.30403,-0.0122531,0.310189,0.95799
1051,810,3.30396,-0.0121936,0.310182,0.958007
1053,808,3.30401,-0.012865,0.310362,0.957633
1055,806,3.30339,-0.0129544,0.310648,0.957403
1057,804,3.30326,-0.0136482,0.31065,0.957022
1059,802,3.30296,-0.013608,0.310827,0.95703
1061,800,3.305,-0.0109116,0.309444,0.956468
1063,798,3.30443,-0.010968,0.309916,0.956286
1065,796,3.30468,-0.0108939,0.309444,0.956489
1067,794,3.30396,-0.0116899,0.309916,0.955861
1069,792,3.30403,-0.0116824,0.309915,0.955887
1071,790,3.30397,-0.012269,0.310041,0.955538
1073,788,3.30337,-0.0129307,0.310379,0.954973
1075,786,3.30297,-0.0130207,0.310383,0.954932
1077,784,3.30315,-0.0136148,0.310514,0.954596
1079,782,3.30287,-0.0136108,0.31038,0.954596
1081,780,3.30474,-0.0102941,0.309176,0.954381
1083,778,3.30406,-0.0110877,0.309646,0.953764
1085,776,3.30413,-0.0110633,0.309645,0.953771
1087,774,3.30406,-0.0116476,0.309642,0.953438
1089,772,3.30342,-0.0117472,0.310116,0.953218
1091,770,3.30323,-0.0124479,0.310114,0.952824
1093,768,3.30312,-0.0124129,0.310111,0.952844
1095,766,3.30325,-0.0129216,0.310111,0.95254
1097,764,3.30286,-0.0130165,0.310114,0.952493
1099,762,3.30239,-0.0137841,0.310588,0.951893
1101,760,3.30411,-0.0104442,0.309379,0.951939
1103,758,3.30405,-0.0110174,0.309377,0.951347
1105,756,3.30389,-0.0110934,0.309378,0.951309
1107,754,3.30347,-0.0117201,0.309852,0.950786
1109,752,3.30332,-0.0124384,0.309849,0.95038
1111,750,3.30252,-0.0125266,0.310327,0.950157
1113,748,3.30306,-0.0124726,0.309853,0.950362
1115,746,3.30251,-0.0131045,0.310322,0.94983
1117,744,3.30211,-0.0132107,0.310321,0.950012
1119,742,3.30157,-0.0139136,0.310795,0.949206
1121,740,3.30398,-0.0104428,0.309115,0.949226
1123,738,3.30352,-0.0111426,0.309591,0.948681
1125,736,3.30269,-0.0119093,0.310066,0.948063
1127,734,3.30321,-0.0117669,0.309592,0.948329
1129,732,3.30304,-0.0123848,0.309595,0.94798
1131,730,3.30257,-0.0130849,0.310066,0.947398
1133,728,3.30219,-0.0131655,0.310188,0.94735
1135,726,3.30162,-0.0132999,0.310544,0.947113
1137,724,3.30151,-0.0138968,0.310542,0.946787
1139,722,3.3029,-0.0112639,0.309928,0.945959
1141,720,3.30323,-0.0111934,0.309329,0.946168
1143,718,3.30276,-0.011891,0.309807,0.945624
1145,716,3.30251,-0.0118696,0.309801,0.945622
1147,714,3.30255,-0.0125215,0.309802,0.94526
1149,712,3.30228,-0.012489,0.309804,0.94529
1151,710,3.30196,-0.0131892,0.310286,0.94473
1153,708,3.30148,-0.013167,0.310285,0.944733
1155,706,3.301,-0.0140183,0.310762,0.944075
1157,704,3.3033,-0.0105078,0.309068,0.944113
1159,702,3.3026,-0.0113287,0.309545,0.94347
1161,700,3.30269,-0.0112818,0.309545,0.943494
1163,698,3.30253,-0.0118649,0.309549,0.943167
1165,696,3.30175,-0.0126433,0.310024,0.942549
1167,694,3.30171,-0.0126513,0.310024,0.942544
1169,692,3.30165,-0.0133422,0.310029,0.942169
1171,690,3.30135,-0.0132595,0.31079,0.942191
1173,688,3.3007,-0.0141108,0.309793,0.94156
1175,686,3.30247,-0.0106333,0.309286,0.941382
1177,684,3.30253,-0.0112878,0.310054,0.940999
1179,682,3.30239,-0.0113865,0.309285,0.940945
1181,680,3.30168,-0.0121285,0.309768,0.940363
1183,678,3.30174,-0.0126384,0.309769,0.940081
1185,676,3.30146,-0.0126868,0.309765,0.940042
1187,674,3.30096,-0.0134367,0.310249,0.939458
1189,672,3.30062,-0.0134917,0.310251,0.939435
1191,670,3.30056,-0.0141155,0.310249,0.939084
1193,668,3.3026,-0.0107065,0.309044,0.938873
1195,666,3.30234,-0.0113526,0.309044,0.938532
1197,664,3.30121,-0.0123112,0.310008,0.937629
1199,662,3.30163,-0.0121338,0.309511,0.937869
1201,660,3.30097,-0.0128699,0.310001,0.937315
1203,658,3.30065,-0.0135314,0.310001,0.937185
1205,656,3.30061,-0.0135251,0.310003,0.936946
1207,654,3.30047,-0.0140829,0.310002,0.936633
1209,652,3.30175,-0.0114339,0.309273,0.935808
1211,650,3.30169,-0.0114597,0.309338,0.93579
1213,648,3.30163,-0.0120075,0.30926,0.935471
1215,646,3.30082,-0.0122461,0.309747,0.935161
1217,644,3.30074,-0.0128553,0.309745,0.934819
1219,642,3.30067,-0.013543,0.309753,0.934451
1221,640,3.2997,-0.0136963,0.310247,0.934222
1223,638,3.29975,-0.0142963,0.310228,0.933813
1225,636,3.29944,-0.0142939,0.31022,0.933802
1227,634,3.3008,-0.0116478,0.308743,0.932962
1229,632,3.30087,-0.0122324,0.309501,0.932681
1231,630,3.30059,-0.0122994,0.30951,0.93266
1233,628,3.29985,-0.0130926,0.310165,0.932052
1235,626,3.29993,-0.0135849,0.309996,0.931784
1237,624,3.29999,-0.0142872,0.31,0.93139
1239,622,3.29931,-0.0144,0.310003,0.931333
1241,620,3.30072,-0.0116069,0.309256,0.93054
1243,618,3.30068,-0.0122727,0.309243,0.930124
1245,616,3.30028,-0.0123351,0.309243,0.930085
1247,614,3.29972,-0.0130843,0.309732,0.929503
1249,612,3.29969,-0.013648,0.30973,0.929186
1251,610,3.29934,-0.0137434,0.309731,0.929138
1253,608,3.29857,-0.0145128,0.310226,0.92854
1255,606,3.30057,-0.011634,0.309065,0.927979
1257,604,3.2999,-0.0125023,0.309501,0.927353
1259,602,3.29983,-0.0106815,0.309022,0.927305
1261,600,3.29953,-0.0183015,0.309016,0.926996
1263,598,3.29942,-0.0189847,0.309018,0.926632
1265,596,3.29929,-0.0161934,0.308545,0.92562
1267,594,3.30029,-0.0162958,0.308286,0.925776
1269,592,3.30076,-0.0133713,0.307299,0.92522
1271,590,3.30001,-0.0159296,0.308284,0.924751
1273,588,3.29948,-0.0159474,0.30828,0.92471
1275,586,3.2998,-0.0148808,0.307795,0.92422
1277,584,3.29972,-0.0136438,0.307303,0.923834
1279,582,3.29819,-0.0163586,0.308772,0.923053
1281,580,3.30057,-0.0128511,0.30713,0.923039
1283,578,3.30077,-0.0116006,0.306564,0.922621
1285,576,3.30005,-0.0123769,0.307059,0.922026
1287,574,3.29949,-0.0113868,0.307057,0.921312
1289,572,3.29925,-0.012017,0.307064,0.920987
1291,570,3.29933,-0.0126641,0.307059,0.920623
1293,568,3.30101,-0.00916604,0.305837,0.920396
1295,566,3.30011,-0.00996961,0.306324,0.919753
1297,564,3.29959,-0.0177869,0.30682,0.919214
1299,562,3.29938,-0.0184581,0.306817,0.918839
1301,560,3.29922,-0.0114591,0.306817,0.918779
1303,558,3.29862,-0.0174314,0.306816,0.918143
1305,556,3.29872,-0.016227,0.306322,0.917712
1307,554,3.3,-0.0164692,0.306089,0.917625
1309,552,3.30015,-0.0152599,0.305594,0.917196
1311,550,3.29956,-0.0142277,0.305594,0.916504
1313,548,3.29933,-0.0149028,0.305599,0.916143
1315,546,3.29887,-0.013841,0.305599,0.915476
1317,544,3.29793,-0.0164864,0.306591,0.914957
1319,542,3.30005,-0.0117452,0.304874,0.914302
1321,540,3.29971,-0.0117159,0.30487,0.914311
1323,538,3.29973,-0.0124544,0.304868,0.913901
1325,536,3.29899,-0.013229,0.30536,0.913316
1327,534,3.29861,-0.0133261,0.305364,0.913265
1329,532,3.29856,-0.0192188,0.304861,0.912849
1331,530,3.3,-0.0164068,0.304136,0.912084
1333,528,3.29988,-0.010074,0.304135,0.911618
1335,526,3.2991,-0.0179341,0.304628,0.911087
1337,524,3.29867,-0.0179701,0.304629,0.911056
1339,522,3.29871,-0.0167836,0.304136,0.910614
1341,520,3.29856,-0.0174415,0.304138,0.910274
1343,518,3.29991,-0.0148089,0.303416,0.909395
1345,516,3.30007,-0.0117147,0.302426,0.908893
1347,514,3.29926,-0.0125244,0.302918,0.908275
1349,512,3.29949,-0.0113978,0.302425,0.90781
1351,510,3.29863,-0.0121771,0.302918,0.907226
1353,508,3.29821,-0.0147095,0.303409,0.906929
1355,506,3.30016,-0.00933285,0.301577,0.906608
1357,504,3.2995,-0.0100489,0.302179,0.906036
1359,502,3.29938,-0.010778,0.302182,0.905639
1361,500,3.29848,-0.0187213,0.302675,0.90509
1363,498,3.29844,-0.0122476,0.302675,0.904675
1365,496,3.29738,-0.0202333,0.303171,0.904118
1367,494,3.29946,-0.015511,0.301458,0.903414
1369,492,3.29902,-0.0144298,0.301459,0.902758
1371,490,3.29867,-0.0151107,0.301477,0.902452
1373,488,3.29868,-0.0139618,0.300963,0.90192
1375,486,3.29844,-0.0139391,0.300947,0.901898
1377,484,3.29724,-0.0166851,0.301933,0.901327
1379,482,3.29967,-0.0118264,0.300215,0.900943
1381,480,3.29892,-0.0125786,0.300709,0.900121
1383,478,3.29839,-0.0145119,0.301203,0.900189
1385,476,3.29851,-0.0133039,0.300705,0.899731
1387,474,3.29747,-0.0159852,0.301696,0.899212
1389,472,3.29704,-0.0149565,0.301698,0.898515
1391,470,3.29916,-0.0101965,0.29998,0.897822
1393,468,3.2985,-0.0109456,0.300599,0.897247
1395,466,3.29789,-0.0189277,0.300475,0.896889
1397,464,3.29771,-0.0195862,0.300472,0.896543
1399,462,3.29694,-0.0204139,0.301132,0.895955
1401,460,3.29892,-0.0156712,0.299257,0.895237
1403,458,3.29825,-0.0164469,0.299746,0.89466
1405,456,3.29782,-0.0164356,0.299743,0.894898
1407,454,3.29779,-0.0170771,0.299739,0.894303
1409,452,3.2972,-0.0159917,0.299742,0.893627
1411,450,3.29695,-0.0167554,0.299868,0.893226
1413,448,3.29837,-0.0138748,0.299013,0.892437
1415,446,3.29794,-0.0165446,0.299511,0.892118
1417,444,3.29749,-0.0136201,0.299012,0.891311
1419,442,3.29692,-0.0161337,0.299507,0.891056
1421,440,3.29652,-0.0151204,0.300284,0.89035
1423,438,3.29844,-0.0102397,0.297943,0.888277
1425,436,3.29843,-0.0108963,0.297787,0.889355
1427,434,3.2974,-0.0191118,0.298291,0.888758
1429,432,3.29705,-0.0198046,0.298292,0.888389
1431,430,3.29712,-0.0185824,0.297794,0.887954
1433,428,3.29839,-0.0158045,0.296933,0.887099
1435,426,3.29757,-0.0165722,0.297555,0.886522
1437,424,3.29735,-0.0173106,0.297552,0.886109
1439,422,3.29678,-0.0162006,0.297554,0.885452
1441,420,3.29664,-0.0149629,0.29705,0.884986
1443,418,3.29826,-0.0123102,0.296326,0.884087
1445,416,3.29779,-0.0128095,0.296326,0.883827
1447,414,3.29762,-0.0135329,0.296324,0.883443
1449,412,3.29716,-0.0124913,0.296326,0.882737
1451,410,3.29631,-0.0151324,0.296734,0.88245
1453,408,3.29813,-0.0102944,0.295598,0.881575
1455,406,3.29728,-0.0111549,0.2961,0.880955
1457,404,3.29698,-0.0118624,0.296221,0.880575
1459,402,3.29643,-0.019968,0.296096,0.880244
1461,400,3.29578,-0.0207165,0.296594,0.87969
1463,398,3.29749,-0.01779,0.295369,0.879067
1465,396,3.29721,-0.0167329,0.295365,0.878362
1467,394,3.29709,-0.0155271,0.294865,0.877896
1469,392,3.29603,-0.0182977,0.295864,0.877384
1471,390,3.29604,-0.0170305,0.295362,0.876945
1473,388,3.29704,-0.0161376,0.295141,0.876182
1475,386,3.29737,-0.0129741,0.294139,0.875655
1477,384,3.29647,-0.0137898,0.294635,0.875055
1479,382,3.29644,-0.0126775,0.294912,0.874544
1481,380,3.29601,-0.0131769,0.294131,0.872787
1483,378,3.29794,-0.00956813,0.2929,0.873995
1485,376,3.29721,-0.0104571,0.293425,0.873412
1487,374,3.29655,-0.0186647,0.293405,0.87301
1489,372,3.29602,-0.0202159,0.293916,0.872083
1491,370,3.29552,-0.0202286,0.293905,0.872063
1493,368,3.29719,-0.0161396,0.292685,0.870777
1495,366,3.29628,-0.0169632,0.293183,0.870169
1497,364,3.29639,-0.0157461,0.292683,0.869723
1499,362,3.29531,-0.0165803,0.29318,0.869107
1501,360,3.29542,-0.0153421,0.292682,0.868662
1503,358,3.2968,-0.0123733,0.291958,0.867877
1505,356,3.29653,-0.0131486,0.291953,0.86747
1507,354,3.29638,-0.0138433,0.291955,0.867133
1509,352,3.29544,-0.0147613,0.292452,0.866495
1511,350,3.29516,-0.0209717,0.291994,0.866099
1513,348,3.29694,-0.010616,0.291228,0.865214
1515,346,3.29652,-0.0113306,0.291228,0.864862
1517,344,3.2954,-0.0196971,0.291732,0.864299
1519,342,3.29532,-0.0184885,0.292005,0.863828
1521,340,3.29675,-0.0162469,0.289748,0.862653
1523,338,3.29706,-0.0131294,0.2895,0.862053
1525,336,3.29595,-0.0139019,0.289996,0.861477
1527,334,3.29552,-0.0147866,0.290494,0.860866
1529,332,3.29493,-0.0154508,0.290495,0.860531
1531,330,3.29704,-0.0123794,0.289274,0.859966
1533,328,3.29662,-0.0112827,0.289271,0.859251
1535,326,3.29595,-0.014021,0.289771,0.85896
1537,324,3.29582,-0.0127943,0.289272,0.858504
1539,322,3.29494,-0.0136538,0.28977,0.857891
1541,320,3.29652,-0.0106763,0.289051,0.857101
1543,318,3.29579,-0.0190616,0.289049,0.856726
1545,316,3.29519,-0.0179323,0.289049,0.856047
1547,314,3.29457,-0.0204876,0.289551,0.855844
1549,312,3.2963,-0.0156972,0.288324,0.854869
1551,310,3.29631,-0.0143904,0.28782,0.854439
1553,308,3.29611,-0.0151424,0.287822,0.854058
1555,306,3.29522,-0.0159935,0.28832,0.853466
1557,304,3.295324,-0.0147751,0.287819,0.85298
1559,302,3.29635,-0.0138132,0.287598,0.852256
1561,300,3.29632,-0.0126852,0.287867,0.851726
1563,298,3.29555,-0.0133647,0.287595,0.851226
1565,296,3.29464,-0.0142571,0.288097,0.850594
1567,294,3.29469,-0.0130008,0.287592,0.850136
1569,292,3.2958,-0.0120085,0.287376,0.84941
1571,290,3.29556,-0.0185304,0.286871,0.848935
1573,288,3.295,-0.0191566,0.287009,0.848631
1575,286,3.29458,-0.02003,0.287372,0.848034
1577,284,3.29437,-0.0167728,0.286358,0.847436
1579,282,3.29619,-0.0156981,0.285633,0.846944
1581,280,3.29556,-0.0146919,0.285632,0.84615
1583,278,3.29503,-0.0174561,0.286133,0.845895
1585,276,3.2946,-0.0169356,0.286134,0.844897
1587,274,3.2936,-0.0178296,0.286637,0.844295
1589,272,3.29593,-0.0127543,0.284907,0.843594
1591,270,3.29502,-0.0134753,0.285412,0.84306
1593,268,3.29469,-0.0201107,0.285033,0.842549
1595,266,3.2942,-0.0131845,0.28541,0.841947
1597,264,3.29365,-0.0216425,0.28541,0.841631
1599,262,3.29509,-0.0187108,0.28469,0.840785
1601,260,3.29494,-0.0108992,0.284802,0.840713
1603,258,3.29435,-0.0193951,0.284676,0.840406
1605,256,3.29404,-0.0201751,0.284677,0.840033
1607,254,3.294,-0.0176899,0.284177,0.838936
1609,252,3.29517,-0.0168062,0.283958,0.838156
1611,250,3.29507,-0.0155158,0.28345,0.837704
1613,248,3.2942,-0.0164418,0.283955,0.837084
1615,246,3.29406,-0.015184,0.283449,0.836614
1617,244,3.29576,-0.0101128,0.282222,0.835954
1619,242,3.2952,-0.0186904,0.28222,0.835343
1621,240,3.29431,-0.0195615,0.282722,0.834755
1623,238,3.29409,-0.0202822,0.282721,0.834387
1625,236,3.29348,-0.0191539,0.282718,0.833689
1627,234,3.29555,-0.0159345,0.281496,0.833135
1629,232,3.29467,-0.0167949,0.281994,0.832534
1631,230,3.2946,-0.0176042,0.281994,0.83215
1633,228,3.29401,-0.0182879,0.281992,0.831813
1635,226,3.29345,-0.0172401,0.281991,0.831072
1637,224,3.29547,-0.0141088,0.280767,0.830476
1639,222,3.29467,-0.0149376,0.281936,0.829898
1641,220,3.29441,-0.0125453,0.28077,0.828728
1643,218,3.29379,-0.0152941,0.281269,0.828472
1645,216,3.29288,-0.0220203,0.281267,0.82779
1647,214,3.29524,-0.0109287,0.280043,0.827185
1649,212,3.29414,-0.0197836,0.280546,0.826582
1651,210,3.29368,-0.0204711,0.280545,0.826242
1653,208,3.29347,-0.0211772,0.281313,0.825901
1655,206,3.29244,-0.0220994,0.281046,0.825294
1657,204,3.29492,-0.0168708,0.279316,0.824601
1659,202,3.29394,-0.0177682,0.279818,0.824004
1661,200,3.29393,-0.016516,0.2793,0.82351
1663,198,3.29302,-0.0173913,0.279819,0.822939
1665,196,3.29273,-0.018259,0.279819,0.82251
1667,194,3.29452,-0.0130866,0.278598,0.821634
1669,192,3.29411,-0.0138686,0.278601,0.821266
1671,190,3.29374,-0.020523,0.278098,0.820827
1673,188,3.29282,-0.0213454,0.278599,0.820267
1675,186,3.29494,-0.0182293,0.277375,0.819639
1677,184,3.29405,-0.0190549,0.277876,0.819069
1679,182,3.29409,-0.0177531,0.277372,0.818607
1681,180,3.29315,-0.0186515,0.277871,0.818001
1683,178,3.293,-0.0193982,0.277864,0.81763
1685,176,3.29496,-0.0161998,0.276636,0.817039
1687,174,3.29422,-0.0172094,0.277141,0.816377
1689,172,3.29326,-0.0179785,0.277645,0.815845
1691,170,3.29319,-0.016755,0.277136,0.815333
1693,168,3.29232,-0.0176477,0.277769,0.814739
1695,166,3.2945,-0.0123392,0.275908,0.814042
1697,164,3.29451,-0.0110597,0.275407,0.813579
1699,162,3.29368,-0.0118963,0.275914,0.813016
1701,160,3.29334,-0.0126939,0.275912,0.81264
1703,158,3.2926,-0.0202435,0.275914,0.811635
1705,156,3.29428,-0.018385,0.275195,0.810063
1707,154,3.29388,-0.0179407,0.275192,0.810446
1709,152,3.29344,-0.0187714,0.275189,0.810048
1711,150,3.29258,-0.0196678,0.275692,0.80946
1713,148,3.29183,-0.0185155,0.275696,0.808744
1715,146,3.29396,-0.0152544,0.274468,0.808159
1717,144,3.29298,-0.0161527,0.274973,0.807563
1719,142,3.29301,-0.014818,0.274461,0.807092
1721,140,3.29205,-0.0156978,0.27497,0.806512
1723,138,3.29207,-0.014394,0.27446,0.806041
1725,136,3.29419,-0.0111227,0.273239,0.805466
1727,134,3.29335,-0.0120824,0.273744,0.804843
1729,132,3.29309,-0.0127694,0.273739,0.804762
1731,130,3.2921,-0.0137196,0.274245,0.80389
1733,128,3.29145,-0.0226465,0.274242,0.80353
1735,126,3.29318,-0.0174102,0.273018,0.802612
1737,124,3.29297,-0.0181946,0.273019,0.802246
1739,122,3.29232,-0.0169839,0.273136,0.801545
1741,120,3.29185,-0.0198407,0.273523,0.801308
1743,118,3.29115,-0.018639,0.273519,0.80061
1745,116,3.29341,-0.0153386,0.272293,0.800027
1747,114,3.29338,-0.0140567,0.271784,0.799531
1749,112,3.29238,-0.0170839,0.272803,0.799062
1751,110,3.29235,-0.0157331,0.2723,0.798604
1753,108,3.29142,-0.0166701,0.272795,0.797988
1755,106,3.29372,-0.0112766,0.271067,0.797295
1757,104,3.29273,-0.0121183,0.271569,0.796715
1759,102,3.29219,-0.0212596,0.271569,0.796308
1761,100,3.29127,-0.0220453,0.272077,0.795774
1763,98,3.29105,-0.0228599,0.272073,0.795394
1765,96,3.29331,-0.0174458,0.270339,0.794695
1767,94,3.29251,-0.018348,0.270842,0.794115
1769,92,3.29219,-0.0191671,0.271615,0.793736
1771,90,3.29161,-0.0179449,0.270839,0.793033
1773,88,3.29143,-0.0166667,0.270335,0.792539
1775,86,3.29303,-0.0133926,0.269613,0.791751
1777,84,3.29305,-0.0121069,0.269108,0.791263
1779,82,3.29232,-0.0129746,0.269613,0.790696
1781,80,3.29199,-0.013799,0.269612,0.790306
1783,78,3.29119,-0.0147193,0.270241,0.78972
1785,76,3.29314,-0.0114684,0.268891,0.789088
1787,74,3.29264,-0.0204957,0.26889,0.788767
1789,72,3.29153,-0.0214878,0.269398,0.789434
1791,70,3.29166,-0.0201311,0.268888,0.787677
1793,68,3.29055,-0.020977,0.269398,0.787133
1795,66,3.29291,-0.0177017,0.268172,0.786508
1797,64,3.29201,-0.0186005,0.268679,0.785933
1799,62,3.29183,-0.0194027,0.268675,0.785558
1801,60,3.29081,-0.0203879,0.26919,0.78476
1803,58,3.29067,-0.0190272,0.268675,0.784477
1805,56,3.29245,-0.0136476,0.267448,0.783559
1807,54,3.2922,-0.0143952,0.267446,0.783208
1809,52,3.29193,-0.0151472,0.267442,0.782868
1811,50,3.29134,-0.0139684,0.267443,0.782153
1813,48,3.29111,-0.0147849,0.267439,0.78178
1815,46,3.29259,-0.0115323,0.266725,0.780965
1817,44,3.29202,-0.0207348,0.266726,0.78061
1819,42,3.29167,-0.0207274,0.266725,0.780615
1821,40,3.29112,-0.019478,0.266723,0.779924
1823,38,3.2905,-0.0224348,0.267231,0.779666
1825,36,3.2924,-0.0170874,0.266111,0.778725
1827,34,3.29204,-0.0179011,0.266003,0.77836
1829,32,3.29183,-0.018755,0.266004,0.777978
1831,30,3.29106,-0.0175103,0.266006,0.777273
1833,28,3.29023,-0.018434,0.267286,0.776694
1835,26,3.29257,-0.0128524,0.264779,0.776005
1837,24,3.29247,-0.0136505,0.264779,0.775648
1839,22,3.29181,-0.0124558,0.264775,0.774937
1841,20,3.29156,-0.0132512,0.264775,0.774574
1843,18,3.29123,-0.0139282,0.264773,0.774271
1845,16,3.29244,-0.0192411,0.264055,0.773406
1847,14,3.29169,-0.0201739,0.264566,0.772827
1849,12,3.29139,-0.0209751,0.264562,0.772472
1851,10,3.29111,-0.0218579,0.264564,0.772074
1853,8,3.29006,-0.0228068,0.265073,0.77149
1855,6,3.29253,-0.0172157,0.263335,0.770777
1857,4,3.29159,-0.0182361,0.263852,0.77016
1858,3,3.29154,-0.0189454,0.263854,0.769862