File: hust_correlation_analysis/matrices/HUST_8-7_cycle_feature_matrix.csv
cycle_number,rul,voltage,current,capacity,charge_capacity
1,2049,3.31799,-0.0128131,0.286855,1.01163
3,2047,3.30341,-0.0162271,0.292881,1.00666
5,2045,3.30589,-0.0141922,0.291536,1.00583
7,2043,3.30559,-0.0148241,0.291535,1.00553
9,2041,3.30574,-0.0155047,0.291519,1.00516
11,2039,3.30596,-0.0154295,0.291078,1.00567
13,2037,3.30579,-0.0160051,0.29107,1.00512
15,2035,3.30619,-0.0161322,0.291072,1.00508
17,2033,3.30596,-0.0168129,0.291076,1.00475
19,2031,3.30633,-0.0167422,0.290637,1.00502
21,2029,3.30606,-0.0173646,0.290636,1.00471
23,2027,3.30831,-0.0140962,0.289293,1.00445
25,2025,3.30823,-0.0147384,0.289282,1.00412
27,2023,3.30815,-0.0153241,0.289285,1.00385
29,2021,3.30767,-0.0154642,0.289282,1.00377
31,2019,3.30732,-0.015487,0.289275,1.00376
33,2017,3.30722,-0.0153811,0.289266,1.00377
35,2015,3.30784,-0.0161571,0.289269,1.00339
37,2013,3.30766,-0.0161675,0.289274,1.00341
39,2011,3.30776,-0.0159565,0.288825,1.00369
41,2009,3.30759,-0.0166343,0.289249,1.00312
43,2007,3.30753,-0.0166799,0.289254,1.00311
45,2005,3.30725,-0.0166866,0.289248,1.00309
47,2003,3.30708,-0.0168012,0.289249,1.00304
49,2001,3.30698,-0.0174091,0.289253,1.00273
51,1999,3.30668,-0.0173712,0.289241,1.00273
53,1997,3.30675,-0.0173777,0.28924,1.00273
55,1995,3.30756,-0.0172446,0.288806,1.00301
57,1993,3.30907,-0.0147842,0.287883,1.00211
59,1991,3.3084,-0.014773,0.287882,1.00213
61,1989,3.30819,-0.0147525,0.287879,1.00212
63,1987,3.309,-0.0147063,0.287448,1.00237
65,1985,3.30877,-0.0154272,0.287883,1.0018
67,1983,3.30849,-0.0154139,0.287881,1.00179
69,1981,3.30816,-0.0154333,0.287878,1.00177
71,1979,3.30818,-0.0154227,0.287884,1.00204
73,1977,3.30845,-0.0154084,0.287875,1.00177
75,1975,3.3086,-0.0160947,0.287872,1.00145
77,1973,3.30819,-0.0161828,0.287878,1.0014
79,1971,3.3076,-0.0158219,0.287867,1.00155
81,1969,3.30783,-0.0167215,0.287879,1.00114
83,1967,3.30795,-0.0167083,0.28788,1.00116
85,1965,3.30876,-0.0167876,0.287451,1.00135
87,1963,3.30889,-0.0167343,0.287451,1.00163
89,1961,3.30866,-0.0173254,0.287454,1.00108
91,1959,3.30824,-0.0173033,0.287442,1.00107
93,1957,3.30765,-0.0174967,0.287879,1.00075
95,1955,3.30808,-0.0173525,0.287444,1.00104
97,1953,3.30751,-0.0174548,0.287875,1.00078
99,1951,3.31015,-0.0140579,0.286093,1.00079
101,1949,3.30924,-0.0147629,0.286513,1.00018
103,1947,3.30929,-0.0148403,0.286526,1.00018
105,1945,3.30993,-0.014783,0.286095,1.00044
107,1943,3.30988,-0.0154714,0.286528,0.99989
109,1941,3.30963,-0.0154795,0.286533,0.99989
111,1939,3.3097,-0.0153398,0.286306,1.00017
113,1937,3.30908,-0.0154301,0.286522,0.999892
115,1935,3.30977,-0.0153486,0.286095,1.00015
117,1933,3.31017,-0.0153494,0.286085,1.00014
119,1931,3.30961,-0.0161717,0.286525,0.999522
121,1929,3.3092,-0.016082,0.286521,0.999568
123,1927,3.30933,-0.0160415,0.28609,0.999808
125,1925,3.30929,-0.0160159,0.286179,0.999807
127,1923,3.309,-0.0162159,0.286517,0.999485
129,1921,3.30925,-0.0167613,0.286524,0.999254
131,1919,3.30924,-0.0167726,0.286518,0.999233
133,1917,3.30917,-0.0168938,0.286736,0.999183
135,1915,3.30904,-0.0167983,0.28652,0.999213
137,1913,3.30949,-0.0167925,0.286102,0.99946
139,1911,3.30915,-0.0173922,0.286522,0.998933
141,1909,3.30875,-0.0174478,0.286519,0.998889
143,1907,3.30828,-0.017477,0.286926,0.998881
145,1905,3.30844,-0.0174567,0.286522,0.998879
147,1903,3.30907,-0.017355,0.286091,0.999156
149,1901,3.30932,-0.0173881,0.286094,0.999142
151,1899,3.31092,-0.0147955,0.285168,0.998307
153,1897,3.31038,-0.014762,0.285443,0.998344
155,1895,3.31032,-0.0148184,0.285168,0.998294
157,1893,3.31073,-0.0147669,0.284752,0.998577
159,1891,3.31094,-0.0147598,0.284745,0.998574
161,1889,3.31058,-0.0154691,0.285174,0.997985
163,1887,3.31028,-0.0154486,0.285182,0.998035
165,1885,3.31025,-0.0153861,0.285175,0.998041
167,1883,3.31048,-0.0154384,0.285176,0.998045
169,1881,3.31069,-0.0155134,0.285184,0.998004
171,1879,3.31032,-0.0154356,0.285176,0.998029
173,1877,3.31051,-0.0153815,0.28515,0.998279
175,1875,3.31025,-0.0161587,0.285173,0.997675
177,1873,3.3102,-0.0161629,0.285173,0.997659
179,1871,3.31077,-0.0160881,0.285158,0.997943
181,1869,3.31022,-0.0161631,0.285183,0.997684
183,1867,3.31077,-0.0160644,0.284757,0.997958
185,1865,3.31056,-0.0160702,0.284754,0.997956
187,1863,3.31009,-0.0167194,0.285189,0.997412
189,1861,3.31048,-0.0168284,0.285187,0.997375
191,1859,3.31015,-0.0167991,0.285191,0.997396
193,1857,3.31061,-0.0167526,0.284761,0.997653
195,1855,3.31018,-0.0167548,0.284753,0.997615
197,1853,3.30929,-0.0169584,0.285192,0.997318
199,1851,3.30965,-0.0173981,0.285185,0.997084
201,1849,3.30991,-0.0174905,0.28519,0.99706
203,1847,3.30997,-0.0175342,0.285185,0.99703
205,1845,3.31012,-0.0174087,0.28476,0.997305
207,1843,3.31005,-0.0173246,0.284755,0.997348
209,1841,3.30967,-0.017413,0.285184,0.997085
211,1839,3.31018,-0.0173991,0.284761,0.997309
213,1837,3.30977,-0.017394,0.284746,0.997268
215,1835,3.30948,-0.0174264,0.284748,0.997259
217,1833,3.31128,-0.014896,0.283831,0.996416
219,1831,3.31112,-0.0148807,0.283825,0.996413
221,1829,3.31179,-0.014736,0.283398,0.996711
223,1827,3.31186,-0.0147677,0.283397,0.996684
225,1825,3.31187,-0.0147691,0.283408,0.996709
227,1823,3.31145,-0.0147658,0.283399,0.996692
229,1821,3.3114,-0.0147497,0.283397,0.996705
231,1819,3.31184,-0.0147538,0.283395,0.996707
233,1817,3.31205,-0.0154747,0.283398,0.996336
235,1815,3.31176,-0.0154768,0.283675,0.996352
237,1813,3.31131,-0.0154786,0.28339,0.996328
239,1811,3.31117,-0.0154697,0.283405,0.996358
241,1809,3.31102,-0.0154388,0.283403,0.99637
243,1807,3.31148,-0.0154825,0.283608,0.996353
245,1805,3.3123,-0.0154133,0.282967,0.996576
247,1803,3.31158,-0.0160561,0.28339,0.996033
249,1801,3.31142,-0.0160182,0.283664,0.996041
251,1799,3.3113,-0.0160856,0.283396,0.996012
253,1797,3.31154,-0.0160265,0.283394,0.996042
255,1795,3.31136,-0.0161207,0.283382,0.995973
257,1793,3.31117,-0.0160622,0.283381,0.995994
259,1791,3.31017,-0.0161186,0.283803,0.995715
261,1789,3.3107,-0.016106,0.283377,0.995935
263,1787,3.31003,-0.0162467,0.283794,0.995599
265,1785,3.31011,-0.0164325,0.283798,0.995534
267,1783,3.30989,-0.0163165,0.283776,0.995566
269,1781,3.31078,-0.0161546,0.283363,0.995884
271,1779,3.31069,-0.0162062,0.283366,0.995866
273,1777,3.3107,-0.0167613,0.283361,0.99556
275,1775,3.31092,-0.0167956,0.28336,0.995542
277,1773,3.3109,-0.0168294,0.283363,0.995543
279,1771,3.31074,-0.0168407,0.283369,0.995552
281,1769,3.31052,-0.0167617,0.283361,0.995573
283,1767,3.30994,-0.0168364,0.283357,0.995525
285,1765,3.31013,-0.0168572,0.283358,0.995531
287,1763,3.31095,-0.0174054,0.28314,0.995473
289,1761,3.31076,-0.0173901,0.28294,0.995491
291,1759,3.31049,-0.017398,0.282943,0.995521
293,1757,3.31264,-0.0147654,0.281596,0.994915
295,1755,3.31278,-0.0148643,0.281603,0.994873
297,1753,3.31269,-0.0148804,0.281605,0.994869
299,1751,3.3129,-0.0148257,0.281599,0.994897
301,1749,3.31343,-0.0147236,0.281166,0.995143
303,1747,3.31263,-0.0148294,0.28159,0.994873
305,1745,3.31251,-0.0148534,0.281593,0.994868
307,1743,3.31208,-0.0148431,0.281596,0.994874
309,1741,3.31289,-0.0148345,0.281174,0.995097
311,1739,3.31298,-0.0154578,0.281166,0.994785
313,1737,3.31272,-0.0154801,0.281182,0.994811
315,1735,3.31239,-0.0154152,0.28118,0.99484
317,1733,3.31256,-0.015507,0.281185,0.994823
319,1731,3.313,-0.0160418,0.281178,0.994525
321,1729,3.31286,-0.0160504,0.281183,0.994524
323,1727,3.3129,-0.0160896,0.281167,0.994465
325,1725,3.31273,-0.0161828,0.281174,0.994432
327,1723,3.31252,-0.0161261,0.281571,0.994461
329,1721,3.31247,-0.0161018,0.281167,0.994455
331,1719,3.31262,-0.0161018,0.28116,0.994447
333,1717,3.31279,-0.0161973,0.281443,0.994418
335,1715,3.31248,-0.0166967,0.281156,0.99413
337,1713,3.31234,-0.0167345,0.281367,0.994139
339,1711,3.31267,-0.0167052,0.280748,0.994385
341,1709,3.31259,-0.0166919,0.280756,0.994412
343,1707,3.31258,-0.0174838,0.281178,0.993798
345,1705,3.31227,-0.017399,0.280993,0.993843
347,1703,3.31208,-0.0174455,0.281173,0.993819
349,1701,3.31178,-0.0174864,0.281573,0.993788
351,1699,3.31237,-0.0174265,0.28076,0.994039
353,1697,3.31229,-0.0173904,0.280757,0.994048
355,1695,3.31212,-0.0173498,0.280741,0.994046
357,1693,3.31454,-0.0141706,0.279416,0.993786
359,1691,3.31443,-0.0147857,0.279409,0.993448
361,1689,3.31426,-0.0147754,0.279407,0.993454
363,1687,3.31393,-0.0148024,0.279403,0.993432
365,1685,3.31499,-0.0147265,0.279003,0.993734
367,1683,3.31488,-0.0154992,0.279417,0.993122
369,1681,3.31461,-0.0154332,0.279421,0.993165
371,1679,3.31418,-0.0154579,0.279171,0.993408
373,1677,3.31431,-0.0153683,0.279002,0.993417
375,1675,3.31404,-0.0154645,0.279821,0.993145
377,1673,3.31447,-0.0155347,0.278997,0.993314
379,1671,3.31452,-0.0154351,0.279002,0.993373
381,1669,3.31399,-0.0161054,0.279406,0.9928
383,1667,3.31364,-0.0160733,0.279808,0.992818
385,1665,3.31349,-0.0161547,0.279404,0.992751
387,1663,3.31342,-0.016118,0.27941,0.992796
389,1661,3.31438,-0.0161281,0.279,0.993023
391,1659,3.31388,-0.016852,0.279421,0.992432
393,1657,3.31368,-0.0168675,0.279424,0.992452
395,1655,3.31379,-0.016834,0.279417,0.992456
397,1653,3.31402,-0.0167152,0.278998,0.992716
399,1651,3.31406,-0.0167536,0.279002,0.992713
401,1649,3.31396,-0.0174621,0.279414,0.992138
403,1647,3.31463,-0.0173993,0.279092,0.992396
405,1645,3.31412,-0.0174488,0.279003,0.992371
407,1643,3.31365,-0.0173253,0.279004,0.992433
409,1641,3.31384,-0.0173762,0.279081,0.992374
411,1639,3.31402,-0.0173866,0.278992,0.992385
413,1637,3.31622,-0.0141861,0.277656,0.992102
415,1635,3.31584,-0.0147339,0.277655,0.991809
417,1633,3.31572,-0.014777,0.277654,0.991796
419,1631,3.31618,-0.0147378,0.277247,0.992042
421,1629,3.31554,-0.0147411,0.277655,0.991805
423,1627,3.3162,-0.0147505,0.277332,0.992017
425,1625,3.31576,-0.0154857,0.277663,0.991449
427,1623,3.31572,-0.0155038,0.277662,0.991443
429,1621,3.31572,-0.0153841,0.277246,0.991709
431,1619,3.31509,-0.0155016,0.277658,0.991438
433,1617,3.31511,-0.0154604,0.27766,0.991461
435,1615,3.31515,-0.0154729,0.277656,0.991438
437,1613,3.31554,-0.0160997,0.277923,0.991112
439,1611,3.3153,-0.0161293,0.277657,0.991104
441,1609,3.31511,-0.016154,0.277665,0.991113
443,1607,3.31497,-0.0161535,0.277661,0.99112
445,1605,3.31521,-0.0161715,0.277669,0.991119
447,1603,3.31555,-0.0167939,0.277659,0.990784
449,1601,3.31527,-0.0168339,0.277665,0.990779
451,1599,3.31566,-0.0167175,0.277239,0.991025
453,1597,3.31551,-0.0166493,0.277244,0.99108
455,1595,3.31552,-0.0166973,0.277245,0.991053
457,1593,3.315,-0.0174654,0.277663,0.99045
459,1591,3.31523,-0.017462,0.277662,0.990459
461,1589,3.31583,-0.0173136,0.277236,0.990712
463,1587,3.31522,-0.0173469,0.277508,0.99069
465,1585,3.31506,-0.0173458,0.276934,0.990696
467,1583,3.31688,-0.0148065,0.276316,0.989861
469,1581,3.31695,-0.0147376,0.276317,0.990158
471,1579,3.31739,-0.0148586,0.275919,0.990087
473,1577,3.31745,-0.014758,0.275923,0.990158
475,1575,3.31787,-0.0146873,0.275506,0.990588
477,1573,3.31703,-0.0153865,0.275912,0.989809
479,1571,3.3163,-0.0154052,0.276312,0.989559
481,1569,3.31686,-0.0153925,0.275834,0.989784
483,1567,3.31707,-0.0154559,0.275911,0.989757
485,1565,3.31702,-0.0154123,0.275902,0.989779
487,1563,3.31682,-0.0153639,0.275485,0.989993
489,1561,3.31691,-0.0153618,0.275482,0.989991
491,1559,3.31635,-0.0161074,0.275516,0.989379
493,1557,3.31659,-0.0160779,0.275894,0.989417
495,1555,3.31695,-0.0160589,0.275491,0.98965
497,1553,3.31685,-0.0160247,0.27548,0.989638
499,1551,3.31669,-0.0160604,0.275486,0.989645
501,1549,3.31596,-0.0167306,0.275896,0.989072
503,1547,3.31594,-0.0167635,0.275905,0.989082
505,1545,3.31656,-0.0166896,0.275749,0.989296
507,1543,3.31667,-0.0167562,0.275296,0.989268
509,1541,3.31649,-0.0167585,0.27557,0.989267
511,1539,3.31628,-0.0167867,0.275482,0.98925
513,1537,3.31635,-0.0173738,0.275481,0.988942
515,1535,3.31546,-0.0173977,0.275883,0.98869
517,1533,3.31558,-0.0174553,0.275888,0.98868
519,1531,3.3183,-0.0141835,0.274142,0.988899
521,1529,3.31839,-0.014778,0.274154,0.988367
523,1527,3.31758,-0.0148449,0.274557,0.988114
525,1525,3.31774,-0.014751,0.274148,0.98838
527,1523,3.31784,-0.0147383,0.274231,0.988131
529,1521,3.31747,-0.0154331,0.274553,0.987787
531,1519,3.3176,-0.0154899,0.274552,0.987761
533,1517,3.31807,-0.0154314,0.274143,0.987997
535,1515,3.31716,-0.015482,0.274554,0.987767
537,1513,3.31743,-0.0154532,0.274413,0.987985
539,1511,3.31736,-0.015406,0.274145,0.988029
541,1509,3.31717,-0.0160226,0.274552,0.987492
543,1507,3.31763,-0.0161514,0.274148,0.987639
545,1505,3.31758,-0.016153,0.274149,0.987644
547,1503,3.31746,-0.0160901,0.274142,0.987678
549,1501,3.31699,-0.0166951,0.274558,0.987162
551,1499,3.31695,-0.0168152,0.27456,0.987105
553,1497,3.31723,-0.0166923,0.274144,0.98737
555,1495,3.31748,-0.0167897,0.274142,0.987309
557,1493,3.31744,-0.0168494,0.274142,0.987271
559,1491,3.31656,-0.0174861,0.274549,0.986731
561,1489,3.31636,-0.0175249,0.274553,0.986709
563,1487,3.31628,-0.0174921,0.274554,0.986732
565,1485,3.31646,-0.017511,0.274543,0.986692
567,1483,3.31685,-0.0174407,0.274136,0.986955
569,1481,3.3189,-0.0141371,0.272793,0.986543
571,1479,3.31892,-0.0148268,0.272894,0.986361
573,1477,3.31863,-0.0147876,0.272801,0.986401
575,1475,3.31886,-0.014803,0.272806,0.986405
577,1473,3.31844,-0.0154428,0.273218,0.985859
579,1471,3.31895,-0.0154212,0.272804,0.986073
581,1469,3.31889,-0.0154731,0.272808,0.986058
583,1467,3.31836,-0.0154391,0.272807,0.986068
585,1465,3.31815,-0.0154614,0.272808,0.986057
587,1463,3.31818,-0.0155439,0.272805,0.986015
589,1461,3.3184,-0.0160676,0.2728,0.985707
591,1459,3.3183,-0.0161404,0.273202,0.985689
593,1457,3.3186,-0.0161659,0.272805,0.985681
595,1455,3.31902,-0.016082,0.272393,0.985927
597,1453,3.31792,-0.016138,0.272813,0.985721
599,1451,3.31842,-0.0167049,0.272819,0.985445
601,1449,3.31801,-0.0169228,0.27324,0.985155
603,1447,3.31865,-0.0169357,0.272827,0.985355
605,1445,3.31889,-0.0168026,0.272418,0.985619
607,1443,3.31828,-0.0175197,0.272828,0.985051
609,1441,3.31809,-0.0174935,0.272817,0.985047
611,1439,3.31766,-0.0174889,0.27282,0.985045
613,1437,3.31784,-0.0174758,0.272809,0.985018
615,1435,3.32063,-0.014146,0.271274,0.985042
617,1433,3.32025,-0.014874,0.271485,0.984464
619,1431,3.32005,-0.0148304,0.271484,0.984479
621,1429,3.32023,-0.0148098,0.27108,0.984701
623,1427,3.31964,-0.014903,0.271492,0.984469
625,1425,3.31961,-0.0154991,0.271489,0.984134
627,1423,3.31994,-0.015537,0.271495,0.98415
629,1421,3.32006,-0.01553,0.271494,0.984132
631,1419,3.32038,-0.0155279,0.271091,0.984356
633,1417,3.32007,-0.0154737,0.271089,0.984398
635,1415,3.31938,-0.0161148,0.271494,0.983838
637,1413,3.31959,-0.0161764,0.271126,0.983797
639,1411,3.32011,-0.0161046,0.271091,0.984055
641,1409,3.31952,-0.016248,0.271766,0.983789
643,1407,3.31986,-0.0168601,0.271494,0.983465
645,1405,3.31964,-0.0167495,0.271092,0.983736
647,1403,3.31885,-0.0168643,0.271506,0.983488
649,1401,3.31889,-0.0168433,0.271512,0.98352
651,1399,3.31927,-0.0175315,0.271506,0.983137
653,1397,3.3194,-0.0175416,0.271503,0.983128
655,1395,3.31906,-0.017508,0.271499,0.983126
657,1393,3.31873,-0.0175619,0.271503,0.98447
659,1391,3.31855,-0.017548,0.271499,0.983113
661,1389,3.32041,-0.0149293,0.270839,0.982311
663,1387,3.32064,-0.0148975,0.26981,0.982538
665,1385,3.32069,-0.0148714,0.270359,0.98254
667,1383,3.32086,-0.0149146,0.270166,0.982516
669,1381,3.31992,-0.0149395,0.270159,0.982504
671,1379,3.32029,-0.0155122,0.270162,0.982208
673,1377,3.32006,-0.0155473,0.270164,0.981997
675,1375,3.32034,-0.015576,0.270153,0.982157
677,1373,3.32025,-0.0156192,0.270161,0.98216
679,1371,3.32048,-0.0155934,0.270166,0.982168
681,1369,3.32062,-0.0156571,0.269754,0.982341
683,1367,3.3203,-0.0161472,0.270017,0.979451
685,1365,3.32008,-0.0162094,0.270155,0.98184
687,1363,3.32049,-0.0161222,0.269739,0.982049
689,1361,3.32063,-0.0161494,0.27008,0.98207
691,1359,3.32132,-0.0160784,0.269341,0.982547
693,1357,3.31989,-0.0168755,0.270147,0.981466
695,1355,3.3198,-0.0168859,0.270156,0.981481
697,1353,3.32013,-0.0168043,0.269729,0.981657
699,1351,3.31954,-0.0168042,0.270144,0.981325
701,1349,3.32024,-0.0174603,0.270151,0.98116
703,1347,3.31981,-0.0175581,0.27015,0.981106
705,1345,3.31998,-0.0175992,0.270156,0.981092
707,1343,3.31928,-0.017624,0.270159,0.981099
709,1341,3.32142,-0.0148717,0.268811,0.980533
711,1339,3.32143,-0.014823,0.268807,0.980555
713,1337,3.32132,-0.0149463,0.26882,0.980527
715,1335,3.32148,-0.0150154,0.268811,0.980466
717,1333,3.32172,-0.0148419,0.268607,0.980759
719,1331,3.32139,-0.0156245,0.26881,0.980144
721,1329,3.32157,-0.0154712,0.268404,0.980414
723,1327,3.32086,-0.0155543,0.268812,0.980187
725,1325,3.32195,-0.0155631,0.268492,0.980281
727,1323,3.32193,-0.0155796,0.268418,0.980397
729,1321,3.32211,-0.0162078,0.268423,0.980086
731,1319,3.32162,-0.0161647,0.268418,0.980083
733,1317,3.32132,-0.0161915,0.268417,0.980075
735,1315,3.32108,-0.0169138,0.268819,0.979485
737,1313,3.32057,-0.01697,0.268825,0.979479
739,1311,3.32078,-0.0169661,0.268824,0.979479
741,1309,3.32078,-0.0169643,0.268608,0.979472
743,1307,3.32067,-0.0175721,0.268827,0.979164
745,1305,3.32023,-0.0175485,0.268822,0.979171
747,1303,3.32023,-0.0175112,0.268824,0.979189
749,1301,3.32088,-0.0175565,0.268415,0.979354
751,1299,3.3202,-0.0181859,0.26881,0.979052
753,1297,3.32281,-0.014238,0.267062,0.979078
755,1295,3.32082,-0.0175176,0.268595,0.979338
757,1293,3.32231,-0.0149617,0.267483,0.978524
759,1291,3.3223,-0.0149087,0.267467,0.97852
761,1289,3.32206,-0.0149997,0.267482,0.9783
763,1287,3.3229,-0.0156598,0.26709,0.978387
765,1285,3.32216,-0.0156437,0.267479,0.978164
767,1283,3.32209,-0.0156753,0.267482,0.978151
769,1281,3.32167,-0.0156116,0.267479,0.978179
771,1279,3.32096,-0.0163416,0.267886,0.977607
773,1277,3.32172,-0.0162239,0.267473,0.97785
775,1275,3.32148,-0.0163962,0.267871,0.977771
777,1273,3.32196,-0.0162321,0.267156,0.977834
779,1271,3.32208,-0.016248,0.267057,0.977998
781,1269,3.32166,-0.0163102,0.26768,0.97784
783,1267,3.32141,-0.0169241,0.267475,0.977477
785,1265,3.32151,-0.0168694,0.26747,0.977498
787,1263,3.32149,-0.0170259,0.267478,0.977492
789,1261,3.32163,-0.017624,0.267484,0.977144
791,1259,3.32138,-0.017621,0.267489,0.977155
793,1257,3.32101,-0.017537,0.267475,0.977167
795,1255,3.32239,-0.0149799,0.266547,0.976333
797,1253,3.32233,-0.0150027,0.266547,0.976313
799,1251,3.32319,-0.0149887,0.266141,0.976514
801,1249,3.32323,-0.0149853,0.266139,0.976769
803,1247,3.32379,-0.0149371,0.26557,0.976757
805,1245,3.323,-0.0149954,0.266133,0.976498
807,1243,3.32292,-0.0156642,0.266133,0.976124
809,1241,3.32227,-0.0157113,0.266534,0.975918
811,1239,3.32291,-0.0156625,0.266148,0.976171
813,1237,3.32256,-0.0164174,0.266192,0.975557
815,1235,3.32236,-0.01634,0.266934,0.975603
817,1233,3.3223,-0.0162725,0.266132,0.975812
819,1231,3.32173,-0.0169087,0.266525,0.975265
821,1229,3.32122,-0.0169793,0.266916,0.974991
823,1227,3.32227,-0.0168674,0.266107,0.975434
825,1225,3.32251,-0.0168246,0.266507,0.975462
827,1223,3.32241,-0.0168772,0.266111,0.975432
829,1221,3.32213,-0.0169375,0.266122,0.975409
831,1219,3.32152,-0.0175982,0.266512,0.974834
833,1217,3.32342,-0.0143924,0.265201,0.974603
835,1215,3.32319,-0.0151098,0.265603,0.974023
837,1213,3.3238,-0.0149871,0.2652,0.974295
839,1211,3.32349,-0.0150368,0.265037,0.974251
841,1209,3.32341,-0.0156764,0.265193,0.973906
843,1207,3.32323,-0.015624,0.265191,0.973928
845,1205,3.32329,-0.0155956,0.265581,0.973936
847,1203,3.3233,-0.015654,0.265184,0.973902
849,1201,3.32344,-0.016245,0.265574,0.973571
851,1199,3.32277,-0.0163132,0.26558,0.973336
853,1197,3.32276,-0.0162317,0.265169,0.973551
855,1195,3.3217,-0.0170564,0.265993,0.972766
857,1193,3.32213,-0.0170479,0.265587,0.972964
859,1191,3.32235,-0.0170796,0.26559,0.972964
861,1189,3.32331,-0.0170037,0.265186,0.973209
863,1187,3.32279,-0.0177287,0.265604,0.972657
865,1185,3.32269,-0.0175203,0.265186,0.972927
867,1183,3.32381,-0.0151397,0.264669,0.971821
869,1181,3.32354,-0.0150917,0.264672,0.971851
871,1179,3.32349,-0.0151102,0.264666,0.971822
873,1177,3.32389,-0.0149824,0.264263,0.97208
875,1175,3.32361,-0.0158249,0.264746,0.971444
877,1173,3.3239,-0.0157638,0.264263,0.971686
879,1171,3.32358,-0.0156458,0.264262,0.971723
881,1169,3.32342,-0.0157636,0.264666,0.971487
883,1167,3.32346,-0.0163996,0.264674,0.97116
885,1165,3.32345,-0.0164558,0.26467,0.971125
887,1163,3.3227,-0.0172085,0.265157,0.970532
889,1161,3.32221,-0.0171667,0.265075,0.970554
891,1159,3.32273,-0.0170738,0.264666,0.97079
893,1157,3.32236,-0.0177886,0.265076,0.970231
895,1155,3.32327,-0.0177162,0.264668,0.970455
897,1153,3.32245,-0.0177875,0.265084,0.970254
899,1151,3.32449,-0.0151225,0.263736,0.969634
901,1149,3.32413,-0.015102,0.263734,0.969626
903,1147,3.32289,-0.0158892,0.264145,0.96904
905,1145,3.3231,-0.0158489,0.264146,0.96905
907,1143,3.32366,-0.0158091,0.263734,0.969253
909,1141,3.32393,-0.0157612,0.263736,0.969297
911,1139,3.32378,-0.0158953,0.263743,0.969238
913,1137,3.32325,-0.0164475,0.263739,0.968939
915,1135,3.32338,-0.0164665,0.263996,0.968933
917,1133,3.3222,-0.0172986,0.264547,0.968088
919,1131,3.32263,-0.017179,0.264131,0.968326
921,1129,3.32233,-0.0179856,0.264548,0.96774
923,1127,3.32265,-0.0178886,0.264148,0.967999
925,1125,3.3223,-0.0178304,0.264132,0.96825
927,1123,3.32379,-0.0152422,0.263208,0.967168
929,1121,3.32422,-0.0151017,0.262794,0.967424
931,1119,3.32405,-0.0151396,0.262793,0.967389
933,1117,3.32359,-0.0158932,0.263197,0.966796
935,1115,3.32319,-0.0157938,0.263186,0.966813
937,1113,3.32286,-0.01592,0.263185,0.966763
939,1111,3.32313,-0.0165928,0.263592,0.966218
941,1109,3.32349,-0.0166062,0.263198,0.966432
943,1107,3.32334,-0.016556,0.263189,0.966435
945,1105,3.32289,-0.0173275,0.2636,0.96577
947,1103,3.32245,-0.0172706,0.2636,0.965876
949,1101,3.32233,-0.0180255,0.263604,0.965486
951,1099,3.32273,-0.0178006,0.263184,0.965767
953,1097,3.32291,-0.0178717,0.263188,0.965731
955,1095,3.3249,-0.0152306,0.262258,0.964928
957,1093,3.32423,-0.0151777,0.262251,0.964949
959,1091,3.32386,-0.0152489,0.26224,0.964873
961,1089,3.32334,-0.0159292,0.262657,0.964342
963,1087,3.32401,-0.0159838,0.262258,0.964527
965,1085,3.32411,-0.0159793,0.262265,0.964557
967,1083,3.32426,-0.016533,0.262262,0.964264
969,1081,3.3234,-0.016631,0.262676,0.964035
971,1079,3.32252,-0.0173723,0.263075,0.963443
973,1077,3.32248,-0.0173508,0.263066,0.963421
975,1075,3.32291,-0.0174013,0.262858,0.963607
977,1073,3.32302,-0.0179897,0.262666,0.963309
979,1071,3.32296,-0.0179067,0.262664,0.963342
981,1069,3.32439,-0.0146599,0.26132,0.963015
983,1067,3.32372,-0.0153397,0.261724,0.962474
985,1065,3.32357,-0.0153581,0.261718,0.962438
987,1063,3.32385,-0.0159778,0.261713,0.962099
989,1061,3.32406,-0.0159645,0.261708,0.962089
991,1059,3.32365,-0.0160187,0.261716,0.962091
993,1057,3.32382,-0.0166458,0.261725,0.961785
995,1055,3.32309,-0.0167807,0.26214,0.961535
997,1053,3.32311,-0.0174352,0.262134,0.961187
999,1051,3.3232,-0.0174683,0.262131,0.961162
1001,1049,3.32351,-0.0179335,0.261718,0.961098
1003,1047,3.3235,-0.0178925,0.26171,0.961093
1005,1045,3.32239,-0.0180729,0.262126,0.960844
1007,1043,3.32398,-0.01535,0.261179,0.960011
1009,1041,3.32402,-0.0153965,0.261181,0.959998
1011,1039,3.32429,-0.015328,0.260782,0.960239
1013,1037,3.32382,-0.0161198,0.261259,0.959611
1015,1035,3.32352,-0.0160278,0.260808,0.959637
1017,1033,3.32325,-0.0168237,0.261767,0.959025
1019,1031,3.3232,-0.0169102,0.26159,0.959006
1021,1029,3.32349,-0.0167201,0.261174,0.959272
1023,1027,3.32344,-0.0174749,0.261172,0.958885
1025,1025,3.32289,-0.0173774,0.260985,0.958964
1027,1023,3.3228,-0.0181027,0.261592,0.958387
1029,1021,3.32246,-0.0182125,0.261599,0.958362
1031,1019,3.32423,-0.0155153,0.260661,0.957557
1033,1017,3.32459,-0.0155097,0.260261,0.957768
1035,1015,3.32418,-0.0154702,0.260249,0.957772
1037,1013,3.32408,-0.0212043,0.259846,0.957309
1039,1011,3.32418,-0.0142326,0.259842,0.957344
1041,1009,3.32371,-0.0220007,0.260254,0.956712
1043,1007,3.32428,-0.0151497,0.259855,0.956897
1045,1005,3.32404,-0.0150286,0.259847,0.956958
1047,1003,3.32376,-0.0225828,0.259856,0.956624
1049,1001,3.32293,-0.0225709,0.260262,0.956458
1051,999,3.32267,-0.0234635,0.260662,0.955771
1053,997,3.323,-0.021531,0.259845,0.955903
1055,995,3.32332,-0.0232568,0.259854,0.956265
1057,993,3.32516,-0.0188395,0.258512,0.955302
1059,991,3.32408,-0.0178954,0.258506,0.954528
1061,989,3.32459,-0.0160101,0.258098,0.954435
1063,987,3.32428,-0.0178562,0.258499,0.954545
1065,985,3.32475,-0.0185443,0.258502,0.954176
1067,983,3.32418,-0.0168242,0.258097,0.954018
1069,981,3.3232,-0.0186132,0.258908,0.953961
1071,979,3.32341,-0.0175065,0.258503,0.95348
1073,977,3.32365,-0.0183061,0.258499,0.953307
1075,975,3.32469,-0.016364,0.257696,0.953203
1077,973,3.32355,-0.0164293,0.2581,0.952986
1079,971,3.32525,-0.0154609,0.257161,0.952527
1081,969,3.32456,-0.0154749,0.257556,0.952305
1083,967,3.3255,-0.0136958,0.256757,0.95238
1085,965,3.32476,-0.0213074,0.257151,0.951804
1087,963,3.32495,-0.0142458,0.256758,0.952079
1089,961,3.32406,-0.0220667,0.257152,0.951402
1091,959,3.32417,-0.0151117,0.257149,0.951426
1093,957,3.32341,-0.0209303,0.257145,0.950716
1095,955,3.32381,-0.0208986,0.256738,0.950905
1097,953,3.32364,-0.0227022,0.257137,0.951027
1099,951,3.32405,-0.0216191,0.256739,0.95054
1101,949,3.32342,-0.0215291,0.256743,0.950587
1103,947,3.32528,-0.0171399,0.255793,0.949616
1105,945,3.32493,-0.0189411,0.255798,0.949715
1107,943,3.32537,-0.0171501,0.255382,0.949556
1109,941,3.3256,-0.0161065,0.254986,0.949035
1111,939,3.32487,-0.0160622,0.254983,0.949056
1113,937,3.32466,-0.0185052,0.255377,0.948834
1115,935,3.32408,-0.0185609,0.25578,0.948629
1117,933,3.3244,-0.017417,0.255377,0.948141
1119,931,3.32441,-0.0157463,0.254977,0.947936
1121,929,3.32464,-0.0174023,0.255159,0.948323
1123,927,3.32452,-0.0174198,0.254979,0.948318
1125,925,3.32578,-0.0147515,0.254037,0.947507
1127,923,3.32555,-0.01359,0.254038,0.946862
1129,921,3.32568,-0.0138446,0.254055,0.946773
1131,919,3.32578,-0.0213812,0.254061,0.946471
1133,917,3.32552,-0.0145098,0.253737,0.946414
1135,915,3.32553,-0.0143569,0.253649,0.94668
1137,913,3.32503,-0.0219573,0.254039,0.946102
1139,911,3.32398,-0.022037,0.254439,0.945874
1141,909,3.32417,-0.0228414,0.254439,0.945464
1143,907,3.32473,-0.0227018,0.254033,0.945703
1145,905,3.32479,-0.0209211,0.253633,0.945825
1147,903,3.32363,-0.0234379,0.254432,0.945138
1149,901,3.32344,-0.0233913,0.254432,0.94517
1151,899,3.32563,-0.0189441,0.253094,0.944194
1153,897,3.32536,-0.019027,0.253099,0.94417
1155,895,3.32555,-0.0196167,0.253099,0.943878
1157,893,3.32584,-0.0178591,0.252313,0.943933
1159,891,3.32522,-0.0185533,0.252704,0.943363
1161,889,3.32456,-0.0203039,0.253496,0.94334
1163,887,3.32513,-0.0185097,0.252695,0.943376
1165,885,3.3248,-0.0175661,0.252698,0.9426
1167,883,3.32398,-0.01835,0.253094,0.941984
1169,881,3.32408,-0.019942,0.25309,0.942433
1171,879,3.326,-0.0165935,0.251751,0.942138
1173,877,3.32522,-0.0155126,0.251746,0.941427
1175,875,3.32629,-0.0137605,0.251144,0.941483
1177,873,3.32563,-0.0214077,0.251083,0.940928
1179,871,3.32558,-0.0144792,0.251358,0.940927
1181,869,3.32556,-0.0161517,0.251358,0.941322
1183,867,3.32451,-0.0221268,0.251756,0.940394
1185,865,3.32454,-0.0228031,0.251758,0.940041
1187,863,3.32492,-0.0227738,0.25136,0.94049
1189,861,3.32475,-0.021755,0.25136,0.939501
1191,859,3.32387,-0.0235802,0.251746,0.939594
1193,857,3.3264,-0.019995,0.250022,0.939656
1195,855,3.32562,-0.0189804,0.250409,0.938722
1197,853,3.3252,-0.0207677,0.250808,0.938871
1199,851,3.32611,-0.0179697,0.250016,0.938179
1201,849,3.32558,-0.0197986,0.250416,0.938315
1203,847,3.32542,-0.0204711,0.250414,0.937967
1205,845,3.3255,-0.0203291,0.250021,0.938234
1207,843,3.32442,-0.0193562,0.250413,0.93729
1209,841,3.32519,-0.0175684,0.24963,0.937334
1211,839,3.32496,-0.0182795,0.250019,0.936777
1213,837,3.32479,-0.0183345,0.250019,0.936739
1215,835,3.32671,-0.0155269,0.248679,0.93617
1217,833,3.32616,-0.0154525,0.248678,0.936199
1219,831,3.32566,-0.0162997,0.249074,0.935589
1221,829,3.32584,-0.0144739,0.248622,0.935458
1223,827,3.32567,-0.0221667,0.248681,0.935085
1225,825,3.32594,-0.0151759,0.248676,0.935087
1227,823,3.32519,-0.0228355,0.248676,0.934734
1229,821,3.32516,-0.0158187,0.248674,0.934751
1231,819,3.32522,-0.0158257,0.24867,0.934741
1233,817,3.32428,-0.0235274,0.249065,0.934177
1235,815,3.32619,-0.0209296,0.248123,0.933337
1237,813,3.32686,-0.0190634,0.247342,0.933409
1239,811,3.32577,-0.0198526,0.24773,0.932808
1241,809,3.32614,-0.0198269,0.247345,0.933032
1243,807,3.32528,-0.018748,0.247732,0.932118
1245,805,3.32536,-0.0204293,0.247731,0.932515
1247,803,3.32563,-0.0176897,0.247343,0.931585
1249,801,3.32501,-0.0195417,0.247733,0.931716
1251,799,3.32508,-0.0211474,0.247735,0.932167
1253,797,3.32455,-0.0200856,0.247726,0.931421
1255,795,3.32607,-0.0173385,0.246781,0.930627
1257,793,3.32672,-0.0154883,0.246003,0.930696
1259,791,3.32565,-0.0164541,0.246788,0.92983
1261,789,3.32703,-0.0143941,0.245612,0.930189
1263,787,3.32607,-0.0151708,0.245996,0.929595
1265,785,3.32507,-0.0169776,0.24639,0.929756
1267,783,3.32488,-0.022908,0.24639,0.929036
1269,781,3.32473,-0.0229666,0.246155,0.929007
1271,779,3.32519,-0.0236167,0.24639,0.928674
1273,777,3.32477,-0.0235595,0.246388,0.928681
1275,775,3.32665,-0.0138591,0.24505,0.928075
1277,773,3.32585,-0.0209431,0.245435,0.927832
1279,771,3.3252,-0.0198471,0.245439,0.927138
1281,769,3.32606,-0.0204279,0.245045,0.927016
1283,767,3.32569,-0.020433,0.245044,0.927004
1285,765,3.32534,-0.0213223,0.245439,0.926396
1287,763,3.32489,-0.0212503,0.245437,0.926415
1289,761,3.32416,-0.0219536,0.245824,0.925857
1291,759,3.32428,-0.0201608,0.245433,0.925685
1293,757,3.32628,-0.0174736,0.244091,0.925047
1295,755,3.32681,-0.0156253,0.243705,0.924913
1297,753,3.32675,-0.016358,0.243711,0.92455
1299,751,3.32566,-0.0199408,0.244478,0.924872
1301,749,3.32548,-0.0170169,0.244145,0.923986
1303,747,3.32459,-0.0171286,0.244459,0.923753
1305,745,3.32565,-0.0159358,0.243756,0.923456
1307,743,3.32546,-0.0159909,0.243676,0.923389
1309,741,3.32508,-0.0183858,0.244073,0.92326
1311,739,3.32656,-0.0138566,0.242734,0.922294
1313,737,3.32644,-0.0139009,0.242739,0.92254
1315,735,3.32593,-0.0216535,0.243124,0.921749
1317,733,3.32608,-0.0147167,0.243131,0.921704
1319,731,3.32564,-0.0206491,0.243309,0.921018
1321,729,3.32464,-0.0224868,0.24352,0.92115
1323,727,3.32475,-0.0230686,0.243521,0.920864
1325,725,3.32378,-0.0222271,0.243913,0.919829
1327,723,3.3247,-0.0219741,0.243117,0.920291
1329,721,3.32618,-0.0174749,0.241773,0.919273
1331,719,3.32628,-0.0199295,0.242164,0.919132
1333,717,3.32614,-0.0163661,0.241388,0.91876
1335,715,3.32508,-0.0207572,0.242541,0.918736
1337,713,3.325,-0.018838,0.242145,0.918362
1339,711,3.32435,-0.0178032,0.24214,0.917607
1341,709,3.32516,-0.0177661,0.241707,0.917845
1343,707,3.32461,-0.0167222,0.241756,0.917074
1345,705,3.32675,-0.0149737,0.240415,0.91722
1347,703,3.32536,-0.0158687,0.241203,0.916422
1349,701,3.32556,-0.0146164,0.240816,0.915974
1351,699,3.32509,-0.0225388,0.241197,0.915366
1353,697,3.32558,-0.0224936,0.240809,0.915579
1355,695,3.32533,-0.0230509,0.240802,0.915285
1357,693,3.32495,-0.016081,0.240797,0.915192
1359,691,3.32385,-0.0237642,0.241187,0.91473
1361,689,3.32568,-0.0192531,0.239842,0.913696
1363,687,3.32575,-0.0193453,0.239841,0.913658
1365,685,3.32561,-0.0200022,0.239837,0.913302
1367,683,3.32532,-0.0199585,0.239842,0.913344
1369,681,3.32392,-0.0225799,0.240285,0.912907
1371,679,3.32461,-0.0196224,0.2399,0.91225
1373,677,3.32413,-0.01856,0.239837,0.911503
1375,675,3.32658,-0.015059,0.238502,0.91127
1377,673,3.32585,-0.0158609,0.238882,0.91067
1379,671,3.32624,-0.0174504,0.238496,0.911334
1381,669,3.3251,-0.0165548,0.238883,0.910324
1383,667,3.32482,-0.015515,0.238883,0.909572
1385,665,3.32474,-0.0161587,0.238879,0.909237
1387,663,3.32483,-0.0162097,0.238886,0.910661
1389,661,3.32408,-0.0167554,0.238684,0.908959
1391,659,3.3259,-0.0150684,0.237918,0.908847
1393,657,3.32447,-0.0212678,0.238306,0.907877
1395,655,3.32534,-0.0218617,0.237918,0.907758
1397,653,3.32504,-0.0208071,0.238161,0.907023
1399,651,3.32457,-0.0226409,0.238193,0.907203
1401,649,3.32363,-0.0234765,0.238702,0.90663
1403,647,3.32366,-0.0241744,0.23887,0.906273
1405,645,3.32565,-0.0178129,0.23698,0.905108
1407,643,3.32616,-0.0176821,0.236589,0.90535
1409,641,3.32504,-0.0183925,0.236976,0.904803
1411,639,3.32491,-0.018417,0.236966,0.904786
1413,637,3.32386,-0.0191778,0.237594,0.904218
1415,635,3.32442,-0.0180271,0.236971,0.903701
1417,633,3.32434,-0.0187028,0.236969,0.903377
1419,631,3.32639,-0.0151454,0.235635,0.903156
1421,629,3.32485,-0.0160738,0.236399,0.902313
1423,627,3.32525,-0.0166321,0.236007,0.902221
1425,625,3.32427,-0.0157502,0.236398,0.901194
1427,623,3.32551,-0.0155529,0.235625,0.901676
1429,621,3.32417,-0.0164304,0.236403,0.900877
1431,619,3.32396,-0.0170654,0.236638,0.900552
1433,617,3.3249,-0.0144933,0.23583,0.89945
1435,615,3.32506,-0.0214263,0.235447,0.899818
1437,613,3.32486,-0.0222949,0.235442,0.899354
1439,611,3.32434,-0.0210805,0.235432,0.898663
1441,609,3.32345,-0.0238543,0.236214,0.89823
1443,607,3.32279,-0.0227376,0.236213,0.897503
1445,605,3.32528,-0.0190328,0.234471,0.897485
1447,603,3.32501,-0.0179719,0.23447,0.896736
1449,601,3.32486,-0.0186285,0.234468,0.896405
1451,599,3.32384,-0.0193748,0.234847,0.895849
1453,597,3.32371,-0.0194261,0.234828,0.895841
1455,595,3.32295,-0.0202565,0.235248,0.89526
1457,593,3.32392,-0.0190324,0.234481,0.894986
1459,591,3.32523,-0.0162576,0.233523,0.894166
1461,589,3.32465,-0.015158,0.233687,0.89345
1463,587,3.32396,-0.0170249,0.233901,0.893603
1465,585,3.32384,-0.0231072,0.233516,0.893127
1467,583,3.32402,-0.0237839,0.23351,0.892761
1469,581,3.32289,-0.0245369,0.233889,0.892462
1471,579,3.32437,-0.0217453,0.232717,0.891409
1473,577,3.3239,-0.0217817,0.232929,0.891353
1475,575,3.3244,-0.0205158,0.232536,0.890887
1477,573,3.32382,-0.0214158,0.232924,0.890259
1479,571,3.32273,-0.0220353,0.23331,0.889769
1481,569,3.32242,-0.024097,0.233706,0.889877
1483,567,3.32457,-0.0192524,0.231963,0.889137
1485,565,3.32501,-0.0180486,0.231571,0.888881
1487,563,3.32415,-0.0171244,0.231578,0.88784
1489,561,3.32401,-0.0176843,0.231577,0.887565
1491,559,3.3233,-0.016677,0.23157,0.886767
1493,557,3.32298,-0.0166801,0.23156,0.886269
1495,555,3.32276,-0.0191448,0.231941,0.886594
1497,553,3.32418,-0.0144957,0.23058,0.885561
1499,551,3.32379,-0.0225054,0.230592,0.885285
1501,549,3.3234,-0.0160318,0.231353,0.884633
1503,547,3.3234,-0.023184,0.230585,0.88493
1505,545,3.32267,-0.0166456,0.23096,0.884316
1507,543,3.32115,-0.0248466,0.231731,0.883534
1509,541,3.32349,-0.0219349,0.230381,0.882956
1511,539,3.32311,-0.0208557,0.230381,0.881975
1513,537,3.324,-0.0206768,0.229612,0.882696
1515,535,3.32218,-0.0235741,0.230765,0.881998
1517,533,3.32236,-0.0203816,0.229988,0.881355
1519,531,3.32474,-0.0174446,0.228643,0.880795
1521,529,3.32334,-0.0183707,0.229407,0.879942
1523,527,3.3234,-0.0189504,0.229022,0.879866
1525,525,3.32256,-0.0190885,0.229396,0.879568
1527,523,3.32264,-0.0178373,0.229007,0.879084
1529,521,3.32281,-0.0165633,0.228625,0.878628
1531,519,3.32121,-0.0195766,0.229783,0.877881
1533,517,3.32345,-0.0145753,0.228032,0.877181
1535,515,3.32352,-0.0153723,0.228042,0.876807
1537,513,3.32216,-0.0162385,0.228811,0.87601
1539,511,3.32225,-0.0160605,0.22842,0.876295
1541,509,3.32155,-0.0170223,0.228812,0.875653
1543,507,3.32331,-0.0214797,0.227461,0.875107
1545,505,3.3239,-0.0201725,0.227077,0.874663
1547,503,3.3225,-0.0230606,0.227853,0.874207
1549,501,3.32188,-0.0218176,0.227859,0.873537
1551,499,3.32215,-0.0225441,0.227847,0.873175
1553,497,3.32143,-0.021542,0.227846,0.872365
1555,495,3.32353,-0.0176429,0.226094,0.872404
1557,493,3.32275,-0.0204289,0.226864,0.871961
1559,491,3.32211,-0.0193396,0.22686,0.871207
1561,489,3.32251,-0.0162441,0.226097,0.870527
1563,487,3.32147,-0.0208163,0.226863,0.870497
1565,485,3.32042,-0.0197655,0.227248,0.869796
1567,483,3.32357,-0.014836,0.225117,0.86901
1569,481,3.32277,-0.0156291,0.225163,0.868423
1571,479,3.32113,-0.0239282,0.225884,0.867881
1573,477,3.32089,-0.0245609,0.225882,0.867589
1575,475,3.32142,-0.0235258,0.225502,0.867017
1577,473,3.32301,-0.0186207,0.22413,0.866018
1579,471,3.32264,-0.0223251,0.224521,0.866664
1581,469,3.32213,-0.0212269,0.224515,0.865895
1583,467,3.32164,-0.0201308,0.224514,0.865135
1585,465,3.32174,-0.0208339,0.224517,0.864812
1587,463,3.32046,-0.0236228,0.225287,0.864652
1589,461,3.32248,-0.0166825,0.223527,0.863267
1591,459,3.32267,-0.017507,0.223537,0.862916
1593,457,3.32167,-0.0214606,0.224301,0.863209
1595,455,3.32093,-0.0183343,0.223915,0.862315
1597,453,3.321,-0.0190158,0.223917,0.862013
1599,451,3.32099,-0.0197133,0.223913,0.861439
1601,449,3.32114,-0.0189928,0.223701,0.86069
1603,447,3.32139,-0.0157052,0.222926,0.860069
1605,445,3.32182,-0.0164747,0.222927,0.859706
1607,443,3.32114,-0.0164901,0.222917,0.859696
1609,441,3.32005,-0.0172246,0.223298,0.859131
1611,439,3.32211,-0.0218638,0.22195,0.858599
1613,437,3.32222,-0.0226487,0.221936,0.858204
1615,435,3.32107,-0.0215353,0.221946,0.857467
1617,433,3.32063,-0.020326,0.221943,0.85676
1619,431,3.32071,-0.0231223,0.222327,0.856562
1621,429,3.32011,-0.021991,0.22232,0.855782
1623,427,3.32166,-0.0208468,0.221344,0.855412
1625,425,3.32114,-0.0195949,0.221342,0.854715
1627,423,3.32098,-0.0185933,0.221335,0.85389
1629,421,3.3201,-0.0213481,0.22172,0.853702
1631,419,3.32016,-0.0199843,0.221344,0.853296
1633,417,3.32229,-0.016281,0.219962,0.852965
1635,415,3.32169,-0.0152577,0.219967,0.852173
1637,413,3.32094,-0.0158402,0.219969,0.851927
1639,411,3.32047,-0.0166612,0.220354,0.851355
1641,409,3.32049,-0.0253304,0.220356,0.85094
1643,407,3.32218,-0.0200773,0.218596,0.850253
1645,405,3.32141,-0.0208061,0.218981,0.849738
1647,403,3.32161,-0.0216669,0.218969,0.849325
1649,401,3.3207,-0.0225081,0.219352,0.848998
1651,399,3.31937,-0.0253966,0.220127,0.848319
1653,397,3.31936,-0.0240865,0.219746,0.847861
1655,395,3.32201,-0.0191144,0.217986,0.847054
1657,393,3.32069,-0.0198574,0.218371,0.846526
1659,391,3.32023,-0.0186595,0.218362,0.845584
1661,389,3.3204,-0.0195124,0.218361,0.845399
1663,387,3.32029,-0.0183728,0.21798,0.844851
1665,385,3.32126,-0.0172708,0.217367,0.844219
1667,383,3.32197,-0.0151144,0.216647,0.844348
1669,381,3.32132,-0.0160004,0.216988,0.843746
1671,379,3.31987,-0.0188766,0.217754,0.843314
1673,377,3.31909,-0.0254518,0.217759,0.842618
1675,375,3.32229,-0.0203144,0.215616,0.842068
1677,373,3.32105,-0.023206,0.216376,0.841651
1679,371,3.32024,-0.0220132,0.216375,0.840916
1681,369,3.32068,-0.0208287,0.215992,0.840371
1683,367,3.3201,-0.0214214,0.215991,0.840104
1685,365,3.31906,-0.0243087,0.216761,0.839707
1687,363,3.32099,-0.0194004,0.215375,0.83863
1689,361,3.32088,-0.0176639,0.214923,0.838328
1691,359,3.31999,-0.0188733,0.215379,0.837599
1693,357,3.32015,-0.0197002,0.215371,0.837229
1695,355,3.3196,-0.0186907,0.215378,0.836418
1697,353,3.32091,-0.0165765,0.214371,0.836668
1699,351,3.32095,-0.0152005,0.213981,0.835939
1701,349,3.32046,-0.0183474,0.214752,0.83536
1703,347,3.31975,-0.0190531,0.214751,0.835127
1705,345,3.31914,-0.0178099,0.214753,0.834406
1707,343,3.31911,-0.0264375,0.214752,0.834096
1709,341,3.32114,-0.0147158,0.213409,0.833791
1711,339,3.31988,-0.0234464,0.213755,0.83325
1713,337,3.3203,-0.0222189,0.213364,0.832697
1715,335,3.32008,-0.0229424,0.213365,0.832401
1717,333,3.31895,-0.0236883,0.213742,0.831857
1719,331,3.31888,-0.02459,0.213745,0.831457
1721,329,3.32022,-0.0213412,0.212722,0.83064
1723,327,3.3195,-0.0202067,0.212726,0.829898
1725,325,3.32,-0.0202131,0.21235,0.830369
1727,323,3.31962,-0.021893,0.212737,0.829194
1729,321,3.31829,-0.0226422,0.213114,0.828652
1731,319,3.32079,-0.0167498,0.211351,0.828208
1733,317,3.3211,-0.0154749,0.210973,0.827709
1735,315,3.31977,-0.0183442,0.211732,0.827329
1737,313,3.31933,-0.0171964,0.211729,0.826532
1739,311,3.31895,-0.0259862,0.211727,0.826184
1741,309,3.32042,-0.0148452,0.21072,0.825368
1743,307,3.32022,-0.0235616,0.210723,0.825081
1745,305,3.31968,-0.0245765,0.211101,0.82443
1747,303,3.31924,-0.0173358,0.211093,0.824043
1749,301,3.31831,-0.024041,0.211092,0.82336
1751,299,3.31858,-0.0227801,0.210706,0.822839
1753,297,3.32019,-0.0208662,0.209712,0.822803
1755,295,3.31973,-0.021802,0.210132,0.822195
1757,293,3.31971,-0.0205882,0.209711,0.82165
1759,291,3.31858,-0.0214105,0.210093,0.821104
1761,289,3.31873,-0.0200229,0.209708,0.820629
1763,287,3.32143,-0.0169426,0.208323,0.819997
1765,285,3.31977,-0.0198431,0.209087,0.819615
1767,283,3.31944,-0.0165933,0.20892,0.818656
1769,281,3.31961,-0.017364,0.208704,0.818336
1771,279,3.31913,-0.0180756,0.208697,0.81805
1773,277,3.3181,-0.0202747,0.20947,0.817957
1775,275,3.32066,-0.0150747,0.207687,0.817143
1777,273,3.31999,-0.0158426,0.207686,0.816812
1779,271,3.31919,-0.022637,0.207683,0.816104
1781,269,3.31917,-0.0234744,0.207688,0.815766
1783,267,3.31847,-0.0262597,0.208062,0.815635
1785,265,3.31803,-0.025194,0.208068,0.814832
1787,263,3.31988,-0.0221285,0.20706,0.813988
1789,261,3.31864,-0.02289,0.207449,0.813482
1791,259,3.31916,-0.0215424,0.207057,0.812975
1793,257,3.31899,-0.0225227,0.207061,0.812577
1795,255,3.31781,-0.0254551,0.207826,0.812189
1797,253,3.32045,-0.017975,0.205658,0.811245
1799,251,3.32016,-0.017966,0.205654,0.811248
1801,249,3.31884,-0.0208177,0.206422,0.810908
1803,247,3.31916,-0.0196065,0.206039,0.81035
1805,245,3.31898,-0.018321,0.205653,0.80982
1807,243,3.31767,-0.0212766,0.206411,0.809428
1809,241,3.31988,-0.016056,0.205015,0.808402
1811,239,3.31966,-0.0168315,0.205011,0.808054
1813,237,3.31884,-0.0167543,0.205041,0.808094
1815,235,3.31878,-0.0258048,0.20501,0.807502
1817,233,3.31836,-0.0186021,0.205401,0.80739
1819,231,3.3191,-0.0235611,0.204372,0.806336
1821,229,3.31955,-0.022308,0.203995,0.80579
1823,227,3.31845,-0.0231616,0.204378,0.805243
1825,225,3.31855,-0.0217532,0.204,0.804777
1827,223,3.31806,-0.0227338,0.204012,0.804165
1829,221,3.31787,-0.024755,0.204372,0.804581
1831,219,3.3197,-0.0194622,0.202976,0.803569
1833,217,3.32,-0.0181323,0.202594,0.803059
1835,215,3.31855,-0.0211103,0.203352,0.802674
1837,213,3.31858,-0.0197848,0.202975,0.802165
1839,211,3.31803,-0.0208158,0.203354,0.801532
1841,209,3.31746,-0.0215673,0.203345,0.801198
1843,207,3.31941,-0.0162272,0.201945,0.800203
1845,205,3.31936,-0.0243187,0.201779,0.800502
1847,203,3.31874,-0.0169426,0.201949,0.799921
1849,201,3.31908,-0.0178454,0.201947,0.799539
1851,199,3.31848,-0.0185647,0.201937,0.799229
1853,197,3.31696,-0.0197152,0.202706,0.798353
1855,195,3.31923,-0.0225519,0.200918,0.7976
1857,193,3.31818,-0.0233931,0.201294,0.797036
1859,191,3.31799,-0.023281,0.201291,0.79708
1861,189,3.31828,-0.0219696,0.200907,0.796548
1863,187,3.31747,-0.0250412,0.201287,0.796594
1865,185,3.31677,-0.0236943,0.201281,0.795619
1867,183,3.31936,-0.0204507,0.199881,0.795012
1869,181,3.31808,-0.0212692,0.200263,0.794474
1871,179,3.31859,-0.0199362,0.199873,0.793951
1873,177,3.3178,-0.0221707,0.200257,0.794096
1875,175,3.31692,-0.0229687,0.200625,0.793522
1877,173,3.31727,-0.0216543,0.200243,0.793002
1879,171,3.31867,-0.0184177,0.199213,0.792169
1881,169,3.31801,-0.0170953,0.199217,0.791451
1883,167,3.31847,-0.0179924,0.199224,0.791093
1885,165,3.31709,-0.0202069,0.199603,0.79126
1887,163,3.31753,-0.0189027,0.199229,0.790756
1889,161,3.32005,-0.0155628,0.19781,0.790139
1891,159,3.31809,-0.0165983,0.198574,0.789304
1893,157,3.3182,-0.023618,0.198192,0.789072
1895,155,3.31797,-0.0244293,0.198196,0.788511
1897,153,3.31687,-0.0252643,0.198567,0.787958
1899,151,3.3172,-0.0274271,0.198573,0.788352
1901,149,3.31945,-0.0240986,0.197159,0.786391
1903,147,3.31804,-0.0228994,0.197531,0.786737
1905,145,3.31829,-0.0215752,0.197152,0.786221
1907,143,3.31678,-0.0246446,0.198124,0.785826
1909,141,3.31756,-0.0210149,0.197145,0.78517
1911,139,3.31688,-0.0233202,0.197537,0.785333
1913,137,3.31827,-0.020044,0.196493,0.784494
1915,135,3.3191,-0.0166027,0.195749,0.783782
1917,133,3.31821,-0.0196462,0.196124,0.78362
1919,131,3.31741,-0.0182984,0.196123,0.782892
1921,129,3.31737,-0.0275044,0.196119,0.78261
1923,127,3.31699,-0.0220622,0.196497,0.78242
1925,125,3.31957,-0.0155533,0.194701,0.782021
1927,123,3.31905,-0.0166797,0.195084,0.78137
1929,121,3.31772,-0.0176049,0.19546,0.780798
1931,119,3.31775,-0.0247668,0.195081,0.780289
1933,117,3.31639,-0.0278447,0.195837,0.779916
1935,115,3.31646,-0.0263338,0.195453,0.779456
1937,113,3.31908,-0.0222787,0.194041,0.779132
1939,111,3.31822,-0.0252753,0.194414,0.778993
1941,109,3.31778,-0.0240229,0.194418,0.778219
1943,107,3.31782,-0.0227426,0.194038,0.777679
1945,105,3.31682,-0.0235718,0.194411,0.777125
1947,103,3.31661,-0.023558,0.194405,0.777131
1949,101,3.31882,-0.0201518,0.192991,0.776536
1951,99,3.31789,-0.0210488,0.193368,0.775972
1953,97,3.31838,-0.0197273,0.192993,0.775454
1955,95,3.31715,-0.020768,0.193374,0.774839
1957,93,3.31746,-0.0192977,0.192995,0.774383
1959,91,3.31694,-0.0193386,0.192991,0.774338
1961,89,3.31604,-0.02019,0.19337,0.77381
1963,87,3.31861,-0.0254512,0.19195,0.773215
1965,85,3.31823,-0.0176353,0.19195,0.77288
1967,83,3.31768,-0.0185516,0.192325,0.7723
1969,81,3.31689,-0.0273014,0.192325,0.772268
1971,79,3.31574,-0.0282178,0.192704,0.771714
1973,77,3.31622,-0.0267392,0.192322,0.771228
1975,75,3.31851,-0.0232823,0.190902,0.770631
1977,73,3.31754,-0.0241524,0.191274,0.770084
1979,71,3.31777,-0.0243693,0.191273,0.770253
1981,69,3.31709,-0.0273532,0.191649,0.769873
1983,67,3.31699,-0.0260983,0.19127,0.769322
1985,65,3.31671,-0.0225618,0.191275,0.768407
1987,63,3.31802,-0.021344,0.190224,0.76778
1989,61,3.31853,-0.0200272,0.18985,0.767238
1991,59,3.31775,-0.0199262,0.189845,0.767279
1993,57,3.31803,-0.0207326,0.189845,0.766959
1995,55,3.31721,-0.0218825,0.190225,0.766299
1997,53,3.31596,-0.0226472,0.190599,0.765787
1999,51,3.31955,-0.0161272,0.188422,0.765545
2001,49,3.31862,-0.0170306,0.188788,0.764959
2003,47,3.31819,-0.0177096,0.188791,0.7647
2005,45,3.31773,-0.0187953,0.189166,0.764067
2007,43,3.31687,-0.0209686,0.189532,0.764253
2009,41,3.31655,-0.0197239,0.189535,0.763476
2011,39,3.31639,-0.0206155,0.189534,0.763124
2013,37,3.31758,-0.0238725,0.188102,0.762062
2015,35,3.31773,-0.0246528,0.188108,0.76179
2017,33,3.3173,-0.0253824,0.188102,0.761485
2019,31,3.31722,-0.0231656,0.187723,0.761279
2021,29,3.31705,-0.0240696,0.187731,0.76095
2023,27,3.31576,-0.0272444,0.188481,0.760577
2025,25,3.31905,-0.021601,0.187049,0.759764
2027,23,3.31761,-0.0225686,0.187051,0.759195
2029,21,3.3176,-0.0224238,0.187047,0.759228
2031,19,3.31784,-0.0211082,0.186675,0.758688
2033,17,3.31638,-0.0242524,0.187424,0.75832
2035,15,3.31679,-0.022854,0.187051,0.757814
2037,13,3.31864,-0.020739,0.185994,0.757741
2039,11,3.31809,-0.0194493,0.185999,0.75697
2041,9,3.31797,-0.0203794,0.185989,0.756607
2043,7,3.31691,-0.0212494,0.186355,0.756037
2045,5,3.31764,-0.0277601,0.185612,0.756118
2047,3,3.31668,-0.0198595,0.185988,0.755548