File: hust_correlation_analysis/matrices/HUST_3-2_cycle_feature_matrix.csv
cycle_number,rul,voltage,current,capacity,charge_capacity
1,2285,3.32202,0.014119,0.277543,1.02428
4,2282,3.30301,-0.0251396,0.294681,0.999007
7,2279,3.30634,-0.0233497,0.292206,1.00376
10,2276,3.30779,-0.0238035,0.291368,1.00667
13,2273,3.31059,-0.020964,0.289124,1.00926
16,2270,3.31109,-0.0221517,0.288777,1.01157
19,2267,3.31216,-0.0206886,0.287462,1.01301
22,2264,3.31152,-0.023316,0.288008,1.01413
25,2261,3.31292,-0.0217879,0.286708,1.0156
28,2258,3.31338,-0.0210278,0.285849,1.01648
31,2255,3.31438,-0.0209086,0.284982,1.01699
34,2252,3.3152,-0.0208682,0.284543,1.0172
37,2249,3.31515,-0.0208979,0.284537,1.01718
40,2246,3.31555,-0.0208391,0.284109,1.01745
43,2243,3.31551,-0.0207923,0.283679,1.0177
46,2240,3.31553,-0.0208714,0.283678,1.01765
49,2237,3.31538,-0.0214653,0.283675,1.01736
52,2234,3.31499,-0.0215065,0.283671,1.01733
55,2231,3.31535,-0.0221671,0.283674,1.01703
58,2228,3.31526,-0.022107,0.283242,1.01727
61,2225,3.31755,-0.0195478,0.281851,1.01669
64,2222,3.31762,-0.019491,0.281844,1.0167
67,2219,3.31689,-0.0201622,0.282281,1.01612
70,2216,3.31719,-0.0218141,0.282258,1.0166
73,2213,3.31675,-0.0224767,0.282255,1.01626
76,2210,3.31624,-0.0231964,0.282674,1.01567
79,2207,3.31601,-0.0231699,0.28268,1.0157
82,2204,3.31579,-0.0222307,0.282266,1.01516
85,2201,3.31801,-0.0195715,0.28087,1.0146
88,2198,3.31773,-0.0196142,0.280865,1.01457
91,2195,3.31807,-0.0202283,0.280861,1.01427
94,2192,3.31792,-0.0201614,0.280857,1.01428
97,2189,3.31711,-0.0225705,0.281695,1.01391
100,2186,3.31707,-0.0225583,0.281692,1.0139
103,2183,3.31615,-0.0234186,0.28212,1.01304
106,2180,3.31628,-0.0223292,0.281709,1.0128
109,2177,3.31761,-0.0197035,0.280731,1.01198
112,2174,3.31746,-0.0197888,0.280949,1.01194
115,2171,3.31763,-0.0204039,0.280727,1.01163
118,2168,3.31748,-0.0204104,0.280718,1.01161
121,2165,3.3177,-0.0203608,0.280717,1.01163
124,2162,3.31686,-0.022738,0.281564,1.01127
127,2159,3.31693,-0.0233876,0.281559,1.01095
130,2156,3.31658,-0.0217365,0.281145,1.01073
133,2153,3.31595,-0.0224614,0.281572,1.01016
136,2150,3.31581,-0.0224237,0.281573,1.01019
139,2147,3.31723,-0.0198783,0.280593,1.00932
142,2144,3.31775,-0.0197878,0.280164,1.00959
145,2141,3.31745,-0.0204652,0.280583,1.00885
148,2138,3.31717,-0.0221304,0.281003,1.00922
151,2135,3.31718,-0.0211541,0.281,1.00842
154,2132,3.31641,-0.0228673,0.281428,1.00863
157,2129,3.3161,-0.0219749,0.28144,1.00783
160,2126,3.31581,-0.0218916,0.28203,1.00788
163,2123,3.3151,-0.0226094,0.281874,1.00731
166,2120,3.31576,-0.0225457,0.281445,1.00757
169,2117,3.31718,-0.0199702,0.28046,1.00696
172,2114,3.31737,-0.0198884,0.280459,1.00673
175,2111,3.31739,-0.0199021,0.280457,1.00672
178,2108,3.31666,-0.0206477,0.280886,1.00613
181,2105,3.31696,-0.0212997,0.280894,1.00568
184,2102,3.31585,-0.021386,0.281326,1.00557
187,2099,3.31578,-0.0213619,0.281328,1.0056
190,2096,3.31545,-0.0221308,0.281756,1.00499
193,2093,3.31504,-0.0221587,0.281757,1.00499
196,2090,3.31547,-0.0227314,0.281758,1.00472
199,2087,3.3153,-0.022681,0.281756,1.00473
202,2084,3.31719,-0.0194041,0.280342,1.00442
205,2081,3.31674,-0.0200801,0.280771,1.00386
208,2078,3.31574,-0.020187,0.281196,1.00354
211,2075,3.3158,-0.0208826,0.281791,1.00324
214,2072,3.31608,-0.0206989,0.280765,1.00354
217,2069,3.31547,-0.0209297,0.281189,1.00316
220,2066,3.31596,-0.0214444,0.281191,1.00294
223,2063,3.31534,-0.0215184,0.281626,1.00267
226,2060,3.315402,-0.0222127,0.28163,1.00236
229,2057,3.31516,-0.0222114,0.281628,1.00236
232,2054,3.31474,-0.0222135,0.281993,1.00233
235,2051,3.31423,-0.0229344,0.28206,1.00177
238,2048,3.31403,-0.0229445,0.282064,1.00178
241,2045,3.31623,-0.0202545,0.280645,1.00118
244,2042,3.31641,-0.0202028,0.280641,1.0012
247,2039,3.31618,-0.0201463,0.280636,1.0012
250,2036,3.31561,-0.0209287,0.281003,1.00058
253,2033,3.31542,-0.0209116,0.281152,1.00053
256,2030,3.31449,-0.0227088,0.28191,1.00043
259,2027,3.31484,-0.0226531,0.281473,1.00069
262,2024,3.3149,-0.022646,0.281465,1.00064
265,2021,3.31467,-0.023146,0.281876,1.00011
268,2018,3.31468,-0.023468,0.2819,1.00003
271,2015,3.31446,-0.0239712,0.281894,0.999781
274,2012,3.31398,-0.0240158,0.281893,0.999759
277,2009,3.31347,-0.0241453,0.282332,0.999448
280,2006,3.31333,-0.0247802,0.28233,0.999159
283,2003,3.31337,-0.0248285,0.282332,0.999149
286,2000,3.31335,-0.0247666,0.282921,0.999158
289,1997,3.31543,-0.022093,0.280908,0.998562
292,1994,3.31506,-0.0228188,0.281355,0.998028
295,1991,3.31509,-0.0226162,0.28092,0.998378
298,1988,3.31426,-0.0228718,0.281356,0.998002
301,1985,3.31451,-0.0234955,0.281352,0.997704
304,1982,3.31442,-0.0235316,0.281349,0.997687
307,1979,3.31449,-0.0234909,0.281348,0.997693
310,1976,3.31437,-0.0241764,0.282376,0.99712
313,1973,3.31386,-0.0241995,0.28178,0.997109
316,1970,3.31373,-0.0248289,0.281792,0.996859
319,1967,3.31335,-0.0249025,0.282019,0.99684
322,1964,3.31505,-0.0205245,0.280369,0.995753
325,1961,3.3158,-0.0204139,0.27993,0.996046
328,1958,3.31551,-0.0221041,0.280363,0.996257
331,1955,3.31513,-0.0222715,0.281167,0.995698
334,1952,3.31511,-0.0228144,0.280794,0.995659
337,1949,3.31399,-0.0230062,0.281225,0.995303
340,1946,3.31432,-0.0229038,0.280791,0.995609
343,1943,3.31394,-0.0236912,0.281241,0.995038
346,1940,3.31448,-0.0236023,0.280804,0.995333
349,1937,3.3146,-0.0225322,0.280805,0.994576
352,1934,3.31409,-0.024292,0.281244,0.994776
355,1931,3.31365,-0.0243655,0.281241,0.994736
358,1928,3.31328,-0.0250322,0.281682,0.99418
361,1925,3.31297,-0.0249938,0.281678,0.994188
364,1922,3.31336,-0.0249965,0.281236,0.994424
367,1919,3.31531,-0.0216902,0.280247,0.993849
370,1916,3.31464,-0.0224532,0.280694,0.993279
373,1913,3.31492,-0.0213587,0.280264,0.992812
376,1910,3.31446,-0.0213656,0.280264,0.993056
379,1907,3.31421,-0.0213466,0.28026,0.992805
382,1904,3.31469,-0.0220069,0.280255,0.992489
385,1901,3.31469,-0.0218943,0.280252,0.992525
388,1898,3.31437,-0.0218757,0.280249,0.992522
391,1895,3.31405,-0.0237303,0.280689,0.992681
394,1892,3.31334,-0.0245238,0.281131,0.992063
397,1889,3.31324,-0.022747,0.280701,0.991912
400,1886,3.31385,-0.0233959,0.280704,0.991634
403,1883,3.31322,-0.0234906,0.281149,0.991359
406,1880,3.31312,-0.0234954,0.28115,0.991358
409,1877,3.31507,-0.0207107,0.279712,0.990764
412,1874,3.31409,-0.0207883,0.280154,0.990474
415,1871,3.31454,-0.0206338,0.279707,0.990788
418,1868,3.31438,-0.0215233,0.280148,0.990124
421,1865,3.31435,-0.0214816,0.280149,0.99014
424,1862,3.3144,-0.0214277,0.280154,0.990201
427,1859,3.31424,-0.022093,0.280159,0.989908
430,1856,3.3133,-0.0222387,0.280607,0.989605
433,1853,3.31365,-0.0222423,0.280609,0.989608
436,1850,3.31355,-0.0228921,0.280608,0.989317
439,1847,3.31365,-0.0228337,0.280597,0.989305
442,1844,3.31324,-0.0228735,0.280595,0.989275
445,1841,3.31243,-0.0236879,0.281034,0.988643
448,1838,3.31222,-0.0236648,0.281037,0.988652
451,1835,3.31455,-0.0202265,0.279609,0.988407
454,1832,3.31475,-0.0208408,0.279614,0.988139
457,1829,3.31483,-0.0208113,0.279619,0.988174
460,1826,3.31426,-0.0216131,0.280066,0.987346
463,1823,3.31368,-0.0216262,0.280066,0.98757
466,1820,3.31387,-0.0217239,0.280066,0.987524
469,1817,3.31365,-0.0216204,0.280063,0.987565
472,1814,3.31361,-0.0223705,0.280601,0.986947
475,1811,3.31372,-0.0222429,0.28005,0.987228
478,1808,3.31293,-0.0224773,0.280727,0.986907
481,1805,3.31291,-0.0230265,0.280511,0.986681
484,1802,3.31309,-0.023054,0.280522,0.986707
487,1799,3.31277,-0.0237301,0.280961,0.986126
490,1796,3.31297,-0.0236224,0.2805,0.986374
493,1793,3.31213,-0.02383,0.280941,0.986017
496,1790,3.31158,-0.0237679,0.280934,0.986013
499,1787,3.31441,-0.0202205,0.27904,0.985992
502,1784,3.31411,-0.0209659,0.279484,0.985407
505,1781,3.31396,-0.0210084,0.279487,0.985385
508,1778,3.31394,-0.0210061,0.279491,0.985414
511,1775,3.31326,-0.0217379,0.27994,0.984827
514,1772,3.31356,-0.0216799,0.279489,0.985098
517,1769,3.3139,-0.021678,0.279583,0.985085
520,1766,3.31316,-0.0224075,0.27993,0.984499
523,1763,3.3129,-0.0225007,0.280528,0.98446
526,1760,3.31262,-0.0224217,0.27993,0.984487
529,1757,3.31275,-0.0231254,0.280025,0.984165
532,1754,3.31303,-0.0231035,0.27993,0.984187
535,1751,3.31302,-0.0230793,0.279934,0.984212
538,1748,3.31206,-0.023932,0.28049,0.983618
541,1745,3.31185,-0.023878,0.280391,0.983641
544,1742,3.31427,-0.0211113,0.278934,0.983
547,1739,3.31368,-0.0211518,0.279383,0.982967
550,1736,3.31402,-0.0210046,0.278932,0.983025
553,1733,3.31313,-0.0211955,0.279378,0.982682
556,1730,3.31317,-0.0218225,0.279379,0.982403
559,1727,3.31343,-0.0218464,0.279383,0.982415
562,1724,3.31328,-0.0226604,0.279844,0.981831
565,1721,3.31318,-0.0225032,0.279398,0.982181
568,1718,3.31256,-0.0226927,0.28007,0.981846
571,1715,3.31238,-0.0233247,0.279847,0.981549
574,1712,3.31269,-0.0232433,0.279834,0.981555
577,1709,3.31234,-0.0232593,0.27983,0.981532
580,1706,3.31201,-0.0233302,0.279825,0.981472
583,1703,3.31199,-0.0239796,0.279825,0.981176
586,1700,3.31209,-0.0239722,0.279823,0.981179
589,1697,3.31372,-0.0205843,0.278828,0.980602
592,1694,3.31383,-0.0212887,0.278845,0.980346
595,1691,3.31325,-0.0213021,0.278848,0.980347
598,1688,3.31288,-0.0220388,0.279299,0.979772
601,1685,3.31354,-0.021854,0.278835,0.980065
604,1682,3.31326,-0.0218508,0.278832,0.980045
607,1679,3.31258,-0.0227593,0.279279,0.979376
610,1676,3.31261,-0.0226353,0.279278,0.979436
613,1673,3.31247,-0.0227008,0.279279,0.97941
616,1670,3.31236,-0.02351,0.279745,0.978842
619,1667,3.3119,-0.023537,0.279978,0.978876
622,1664,3.31119,-0.024285,0.280215,0.978302
625,1661,3.3118,-0.0241273,0.279761,0.978638
628,1658,3.31398,-0.0205261,0.2783,0.978339
631,1655,3.31324,-0.0214038,0.278754,0.977709
634,1652,3.3131,-0.0215909,0.278753,0.977618
637,1649,3.31305,-0.0213663,0.279354,0.977727
640,1646,3.31282,-0.0221957,0.27921,0.977106
643,1643,3.31296,-0.0220578,0.278757,0.977423
646,1640,3.31206,-0.0222784,0.279215,0.977097
649,1637,3.3122,-0.0228903,0.279216,0.976837
652,1634,3.31233,-0.0228626,0.279216,0.976834
655,1631,3.311525,-0.0236185,0.279676,0.976268
658,1628,3.31188,-0.0235766,0.279222,0.97654
661,1625,3.31188,-0.0235596,0.279225,0.97646
664,1622,3.31153,-0.0243252,0.279677,0.97596
667,1619,3.31134,-0.0243036,0.279674,0.975969
670,1616,3.3107,-0.0243097,0.280272,0.975948
673,1613,3.3131,-0.0215505,0.278214,0.975317
676,1610,3.31343,-0.0214631,0.278212,0.97534
679,1607,3.31273,-0.0215057,0.278212,0.975324
682,1604,3.31239,-0.0222456,0.278665,0.974739
685,1601,3.31287,-0.0221556,0.278806,0.975024
688,1598,3.31245,-0.0222712,0.278662,0.974723
691,1595,3.31229,-0.0228871,0.27866,0.97444
694,1592,3.31193,-0.0228912,0.27866,0.974426
697,1589,3.31191,-0.0229112,0.278659,0.974418
700,1586,3.31174,-0.0237627,0.279113,0.973784
703,1583,3.31093,-0.0237871,0.279113,0.973761
706,1580,3.3112,-0.0244638,0.27972,0.97349
709,1577,3.31133,-0.0244069,0.279115,0.97351
712,1574,3.31093,-0.024429,0.279114,0.973496
715,1571,3.3125,-0.0216832,0.278107,0.972577
718,1568,3.31304,-0.021549,0.277646,0.972879
721,1565,3.31251,-0.0216641,0.278104,0.97258
724,1562,3.3125,-0.0223503,0.278103,0.972267
727,1559,3.31196,-0.0223384,0.278097,0.972259
730,1556,3.31241,-0.0223652,0.278105,0.972284
733,1553,3.31179,-0.0231021,0.278564,0.97171
736,1550,3.31131,-0.0231773,0.278568,0.97167
739,1547,3.31148,-0.0238686,0.278564,0.971378
742,1544,3.31163,-0.0238152,0.278566,0.971404
745,1541,3.31075,-0.0246389,0.279022,0.970776
748,1538,3.31056,-0.0246289,0.27902,0.970767
751,1535,3.31037,-0.0246633,0.279023,0.970771
754,1532,3.31291,-0.0217259,0.277555,0.970183
757,1529,3.31171,-0.0218089,0.27838,0.967032
760,1526,3.31194,-0.0226633,0.278023,0.969551
763,1523,3.31221,-0.0225313,0.278025,0.969613
766,1520,3.31176,-0.0232094,0.27802,0.9693
769,1517,3.31166,-0.0231837,0.278126,0.969335
772,1514,3.31166,-0.0231594,0.278025,0.969344
775,1511,3.31113,-0.0240065,0.278484,0.968715
778,1508,3.3107,-0.0240853,0.278486,0.968674
781,1505,3.31092,-0.0247498,0.278481,0.968382
784,1502,3.31074,-0.0247229,0.27848,0.968388
787,1499,3.31016,-0.0247458,0.278461,0.968305
790,1496,3.311795,-0.0218727,0.27745,0.967436
793,1493,3.31224,-0.0218641,0.277451,0.96744
796,1490,3.31152,-0.0219839,0.277461,0.967225
799,1487,3.31175,-0.0226666,0.277464,0.967137
802,1484,3.31173,-0.0225921,0.277679,0.967159
805,1481,3.31111,-0.0234019,0.277922,0.966553
808,1478,3.31081,-0.0233885,0.27792,0.966541
811,1475,3.311456,-0.023272,0.277455,0.966839
814,1472,3.31094,-0.0239561,0.277905,0.966269
817,1469,3.31016,-0.024128,0.277917,0.966205
820,1466,3.31078,-0.0248207,0.277918,0.965916
823,1463,3.31211,-0.0212619,0.276908,0.965341
826,1460,3.31137,-0.0221235,0.277601,0.964742
829,1457,3.31216,-0.0219756,0.276918,0.965061
832,1454,3.31148,-0.0227766,0.277379,0.964259
835,1451,3.3112,-0.0227983,0.277375,0.964431
838,1448,3.31133,-0.0234538,0.277371,0.964142
841,1445,3.311,-0.0234986,0.277373,0.964118
844,1442,3.31003,-0.023662,0.278437,0.963761
847,1439,3.31073,-0.0241838,0.277363,0.963787
850,1436,3.31018,-0.0242368,0.277832,0.963522
853,1433,3.30933,-0.0251412,0.278295,0.962867
856,1430,3.31001,-0.0250403,0.277832,0.963184
859,1427,3.31164,-0.0220547,0.276817,0.96233
862,1424,3.31125,-0.0221261,0.276805,0.962255
865,1421,3.31185,-0.0219874,0.276339,0.962565
868,1418,3.31117,-0.0228411,0.276802,0.961934
871,1415,3.31074,-0.0229243,0.2768,0.961887
874,1412,3.31047,-0.0237414,0.277281,0.961319
877,1409,3.31045,-0.0243126,0.277281,0.961098
880,1406,3.30999,-0.0244149,0.277295,0.961095
883,1403,3.31031,-0.0243309,0.277283,0.959757
886,1400,3.30945,-0.0252515,0.277747,0.960436
889,1397,3.30964,-0.0251511,0.277279,0.960724
892,1394,3.31178,-0.022193,0.276257,0.959837
895,1391,3.31112,-0.0222641,0.276252,0.959786
898,1388,3.31126,-0.0229321,0.276251,0.959501
901,1385,3.31055,-0.0230431,0.276721,0.959012
904,1382,3.30986,-0.0240164,0.277207,0.958581
907,1379,3.31045,-0.0238415,0.276739,0.958927
910,1376,3.30987,-0.0245398,0.277427,0.958386
913,1373,3.3094,-0.0246208,0.277427,0.958345
916,1370,3.3099,-0.0253293,0.277208,0.958035
919,1367,3.30912,-0.0253402,0.277205,0.958014
922,1364,3.31116,-0.0224518,0.276185,0.957104
925,1361,3.3109,-0.0224423,0.276184,0.957102
928,1358,3.31068,-0.0231547,0.276184,0.956792
931,1355,3.31069,-0.0231565,0.276187,0.95681
934,1352,3.31008,-0.0240286,0.276665,0.956204
937,1349,3.30971,-0.023986,0.276663,0.956217
940,1346,3.30994,-0.0247058,0.276667,0.955913
943,1343,3.30885,-0.0248314,0.277138,0.955604
946,1340,3.30897,-0.0255871,0.277135,0.955284
949,1337,3.31116,-0.0217618,0.275638,0.95501
952,1334,3.31026,-0.0226512,0.276108,0.954352
955,1331,3.311,-0.0224702,0.275636,0.954932
958,1328,3.31,-0.0233627,0.276108,0.954043
961,1325,3.31034,-0.0231679,0.275628,0.954371
964,1322,3.30978,-0.0240716,0.276104,0.953739
967,1319,3.30893,-0.0242734,0.276677,0.953409
970,1316,3.30897,-0.0248692,0.276575,0.953134
973,1313,3.3086,-0.0249329,0.27658,0.953117
976,1310,3.30885,-0.0255871,0.276579,0.952851
979,1307,3.31043,-0.0226848,0.275552,0.951909
982,1304,3.31006,-0.0227284,0.275546,0.951863
985,1301,3.31013,-0.0226887,0.275546,0.951884
988,1298,3.30963,-0.0233605,0.275534,0.951567
991,1295,3.30971,-0.0233568,0.275533,0.951555
994,1292,3.30889,-0.0241423,0.276014,0.950995
997,1289,3.30898,-0.0249815,0.27602,0.950655
1000,1286,3.30878,-0.0249792,0.27611,0.950658
1003,1283,3.30789,-0.025822,0.276504,0.950057
1006,1280,3.30807,-0.0257846,0.2765,0.950073
1009,1277,3.30941,-0.0229211,0.275473,0.949098
1012,1274,3.31017,-0.0227683,0.274993,0.949419
1015,1271,3.309164,-0.0236591,0.275466,0.948767
1018,1268,3.30934,-0.0235767,0.275467,0.94881
1021,1265,3.30829,-0.0244294,0.275952,0.948216
1024,1262,3.30864,-0.0252506,0.275969,0.947935
1027,1259,3.30774,-0.0261026,0.276455,0.947337
1030,1256,3.30807,-0.0259437,0.275962,0.947614
1033,1253,3.31027,-0.0221387,0.274455,0.947307
1036,1250,3.3093,-0.0229301,0.27493,0.946699
1039,1247,3.30967,-0.0229801,0.274931,0.946689
1042,1244,3.30851,-0.0239066,0.275405,0.946008
1045,1241,3.30894,-0.0244016,0.275401,0.945796
1048,1238,3.30815,-0.0245416,0.2754,0.945731
1051,1235,3.3084,-0.0245636,0.275396,0.945704
1054,1232,3.30757,-0.0255239,0.275893,0.945095
1057,1229,3.30765,-0.0261562,0.275895,0.944852
1060,1226,3.30713,-0.0261547,0.275894,0.944845
1063,1223,3.30966,-0.0230168,0.274384,0.944253
1066,1220,3.30857,-0.0232047,0.274857,0.943879
1069,1217,3.309,-0.0239509,0.274862,0.943583
1072,1214,3.30792,-0.0247835,0.27571,0.942948
1075,1211,3.30859,-0.0245888,0.274855,0.943295
1078,1208,3.30757,-0.0254861,0.275336,0.942648
1081,1205,3.30762,-0.0254598,0.27533,0.942649
1084,1202,3.30671,-0.0263957,0.275817,0.94201
1087,1199,3.30888,-0.0225468,0.274302,0.941707
1090,1196,3.30848,-0.0232579,0.274515,0.941392
1093,1193,3.30835,-0.024188,0.274797,0.940791
1096,1190,3.30772,-0.0241547,0.274795,0.940799
1099,1187,3.30791,-0.0248765,0.274801,0.939179
1102,1184,3.3071,-0.0257913,0.275287,0.939881
1105,1181,3.307275,-0.0255309,0.274799,0.940245
1108,1178,3.30684,-0.0265142,0.275285,0.939581
1111,1175,3.30893,-0.0226743,0.273768,0.939268
1114,1172,3.30889,-0.0233055,0.274143,0.939027
1117,1169,3.30814,-0.0242376,0.274265,0.938385
1120,1166,3.30802,-0.0242253,0.274265,0.938398
1123,1163,3.30715,-0.0251819,0.274756,0.937738
1126,1160,3.30775,-0.0249847,0.27426,0.938069
1129,1157,3.30676,-0.0258577,0.274532,0.937434
1132,1154,3.30666,-0.025811,0.274738,0.937439
1135,1151,3.30677,-0.0266189,0.274739,0.937099
1138,1148,3.30805,-0.0235555,0.273701,0.936169
1141,1145,3.30829,-0.0235911,0.27371,0.936198
1144,1142,3.30731,-0.0245217,0.27421,0.935577
1147,1139,3.30725,-0.0251473,0.274208,0.935323
1150,1136,3.30772,-0.0250598,0.273718,0.935638
1153,1133,3.30621,-0.0261461,0.274702,0.934656
1156,1130,3.30664,-0.025912,0.274197,0.934983
1159,1127,3.30591,-0.0268002,0.274683,0.934335
1162,1124,3.30797,-0.0229297,0.273148,0.933978
1165,1121,3.30801,-0.023627,0.273237,0.933692
1168,1118,3.30735,-0.0248013,0.273639,0.93294
1171,1115,3.30707,-0.0245285,0.273633,0.933042
1174,1112,3.30709,-0.0252171,0.273635,0.932764
1177,1109,3.30673,-0.0252901,0.273636,0.932737
1180,1106,3.30607,-0.0262013,0.274136,0.932125
1183,1103,3.30606,-0.0268559,0.274111,0.931845
1186,1100,3.30545,-0.0268984,0.274129,0.931815
1189,1097,3.30734,-0.0239008,0.273087,0.930847
1192,1094,3.30719,-0.0238344,0.273082,0.930863
1195,1091,3.30686,-0.0246393,0.273079,0.930524
1198,1088,3.30633,-0.0255314,0.273575,0.929897
1201,1085,3.30618,-0.025504,0.273571,0.9299
1204,1082,3.30596,-0.026337,0.273578,0.929585
1207,1079,3.30526,-0.0272189,0.274083,0.928988
1210,1076,3.30745,-0.0239311,0.27255,0.928421
1213,1073,3.30741,-0.0239065,0.272553,0.928437
1216,1070,3.30739,-0.0247765,0.272547,0.928072
1219,1067,3.3061,-0.0249113,0.273041,0.927732
1222,1064,3.30606,-0.0256085,0.273033,0.927426
1225,1061,3.30608,-0.0255435,0.273033,0.927462
1228,1058,3.30598,-0.0264216,0.273033,0.927098
1231,1055,3.30505,-0.0273046,0.273527,0.926467
1234,1052,3.3072,-0.0233148,0.271986,0.926154
1237,1049,3.30667,-0.0241999,0.272497,0.925567
1240,1046,3.3066,-0.0249362,0.272495,0.925265
1243,1043,3.30647,-0.024943,0.272497,0.925276
1246,1040,3.30629,-0.0257678,0.272498,0.924943
1249,1037,3.30529,-0.0266456,0.272996,0.924305
1252,1034,3.30487,-0.0265832,0.272992,0.924327
1255,1031,3.30501,-0.0273836,0.272989,0.923998
1258,1028,3.3073,-0.0233909,0.271443,0.923678
1261,1025,3.30637,-0.0242997,0.271941,0.923036
1264,1022,3.30625,-0.0250542,0.271942,0.922736
1267,1019,3.30605,-0.025087,0.271939,0.922719
1270,1016,3.30512,-0.0258642,0.272447,0.922159
1273,1013,3.30498,-0.0267106,0.272533,0.921817
1276,1010,3.30492,-0.0266623,0.272448,0.921841
1279,1007,3.30492,-0.0274943,0.272818,0.92151
1282,1004,3.30645,-0.0244432,0.271396,0.920514
1285,1001,3.30609,-0.0244215,0.271396,0.920531
1288,998,3.30542,-0.0253277,0.271904,0.919909
1291,995,3.30524,-0.0261248,0.271903,0.919587
1294,992,3.30491,-0.0261562,0.272527,0.919583
1297,989,3.3042,-0.0269646,0.272406,0.918979
1300,986,3.30442,-0.0277016,0.272416,0.918711
1303,983,3.30657,-0.0237263,0.270859,0.918375
1306,980,3.30563,-0.0246931,0.271367,0.91772
1309,977,3.30559,-0.0254677,0.271365,0.917408
1312,974,3.3053,-0.0254311,0.271365,0.917421
1315,971,3.30449,-0.0264198,0.271875,0.916757
1318,968,3.30422,-0.0271053,0.271712,0.916483
1321,965,3.30371,-0.0280217,0.272382,0.915856
1324,962,3.30331,-0.0279873,0.27238,0.915859
1327,959,3.30565,-0.0245637,0.270819,0.915278
1330,956,3.30539,-0.0247384,0.270819,0.91522
1333,953,3.30483,-0.0256739,0.271334,0.914591
1336,950,3.3046,-0.0263799,0.271421,0.914322
1339,947,3.30453,-0.0272251,0.271338,0.913996
1342,944,3.30421,-0.0272563,0.271337,0.91398
1345,941,3.3034,-0.0281996,0.271847,0.913333
1348,938,3.3051,-0.0249691,0.270788,0.91238
1351,935,3.30548,-0.0249304,0.270274,0.912454
1354,932,3.30478,-0.0258253,0.270789,0.912046
1357,929,3.30407,-0.0267969,0.271303,0.911386
1360,926,3.30359,-0.0267712,0.271299,0.911389
1363,923,3.30355,-0.0275748,0.271301,0.911073
1366,920,3.30283,-0.0284953,0.271821,0.910455
1369,917,3.3051,-0.0243496,0.270251,0.910149
1372,914,3.30468,-0.0251685,0.270252,0.909831
1375,911,3.30385,-0.0261353,0.270697,0.909174
1378,908,3.30383,-0.0268875,0.270762,0.908875
1381,905,3.30371,-0.026885,0.27076,0.908873
1384,902,3.30277,-0.0278744,0.271279,0.908216
1387,899,3.30258,-0.0286871,0.271279,0.907898
1390,896,3.30483,-0.0244889,0.269698,0.90757
1393,893,3.30466,-0.0252334,0.270327,0.907293
1396,890,3.30402,-0.0260104,0.270218,0.906679
1399,887,3.30384,-0.0261897,0.270206,0.906618
1402,884,3.30372,-0.0269498,0.270202,0.90631
1405,881,3.30305,-0.0278896,0.271098,0.905691
1408,878,3.30279,-0.0286491,0.270727,0.905396
1411,875,3.30223,-0.0285959,0.270724,0.905409
1414,872,3.30415,-0.0253668,0.26966,0.904421
1417,869,3.30444,-0.0252202,0.269134,0.904739
1420,866,3.30358,-0.0262893,0.269656,0.904046
1423,863,3.30264,-0.027259,0.270174,0.903383
1426,860,3.30193,-0.0282134,0.270697,0.902742
1429,857,3.3023,-0.028072,0.269861,0.903083
1432,854,3.3017,-0.0290762,0.270709,0.902461
1435,851,3.30427,-0.0255815,0.269126,0.901862
1438,848,3.30348,-0.0264801,0.270281,0.901248
1441,845,3.30285,-0.0265071,0.269645,0.90122
1444,842,3.30256,-0.0273134,0.269641,0.900897
1447,839,3.30181,-0.0282868,0.270152,0.900199
1450,836,3.30236,-0.0280971,0.269626,0.900553
1453,833,3.30151,-0.0290962,0.270363,0.899891
1456,830,3.30383,-0.025613,0.268555,0.899254
1459,827,3.30337,-0.0256715,0.268546,0.8992
1462,824,3.30264,-0.0266664,0.269078,0.898553
1465,821,3.30193,-0.0276823,0.269605,0.897888
1468,818,3.30198,-0.0283995,0.269977,0.897635
1471,815,3.30181,-0.0291757,0.269613,0.897357
1474,812,3.30385,-0.0249003,0.268012,0.897013
1477,809,3.30292,-0.0260337,0.26854,0.896294
1480,806,3.30292,-0.0268113,0.268533,0.895984
1483,803,3.30202,-0.0276617,0.269059,0.895367
1486,800,3.30157,-0.0276757,0.269052,0.895351
1489,797,3.30132,-0.0285355,0.269129,0.895008
1492,794,3.30134,-0.0294275,0.269045,0.894667
1495,791,3.30353,-0.0250823,0.267447,0.894355
1498,788,3.30261,-0.0261008,0.267976,0.893686
1501,785,3.30166,-0.0270873,0.268515,0.893048
1504,782,3.30174,-0.02794,0.26852,0.892754
1507,779,3.30158,-0.028598,0.268522,0.892515
1510,776,3.30073,-0.0296751,0.269055,0.891822
1513,773,3.3003,-0.02979,0.269052,0.891769
1516,770,3.3027,-0.026205,0.267442,0.891142
1519,767,3.30177,-0.027132,0.268608,0.890501
1522,764,3.30091,-0.0281734,0.268509,0.888416
1525,761,3.30147,-0.0279934,0.267972,0.890189
1528,758,3.30053,-0.0289601,0.268507,0.889533
1531,755,3.2997,-0.0300482,0.269052,0.888869
1534,752,3.30216,-0.02657,0.267442,0.888202
1537,749,3.30131,-0.0273766,0.267981,0.88763
1540,746,3.30093,-0.0283069,0.267991,0.887314
1543,743,3.30083,-0.0282751,0.267985,0.887313
1546,740,3.30061,-0.0291722,0.267984,0.88697
1549,737,3.29955,-0.0300933,0.268524,0.886339
1552,734,3.30147,-0.0267516,0.267441,0.88531
1555,731,3.30198,-0.0265687,0.2669,0.885911
1558,728,3.30091,-0.0275729,0.267443,0.88502
1561,725,3.29989,-0.0286506,0.267985,0.884329
1564,722,3.29991,-0.0294805,0.267984,0.884021
1567,719,3.29963,-0.0301953,0.267986,0.883765
1570,716,3.30134,-0.0269033,0.266907,0.882727
1573,713,3.3007,-0.0279531,0.267458,0.882077
1576,710,3.30102,-0.0276543,0.266919,0.882498
1579,707,3.29979,-0.0287477,0.267459,0.881784
1582,704,3.29925,-0.0297915,0.268002,0.881107
1585,701,3.29889,-0.0305486,0.268003,0.880831
1588,698,3.30055,-0.0271975,0.266917,0.879784
1591,695,3.30115,-0.0269611,0.266367,0.880166
1594,692,3.3,-0.0280089,0.266917,0.87949
1597,689,3.29932,-0.0290998,0.267462,0.878791
1600,686,3.29922,-0.0298751,0.267465,0.878528
1603,683,3.29802,-0.0308847,0.268018,0.877868
1606,680,3.30067,-0.0273755,0.266384,0.877171
1609,677,3.3002,-0.0282303,0.266402,0.876922
1612,674,3.2995,-0.0292135,0.266941,0.876242
1615,671,3.29902,-0.0292701,0.266937,0.876213
1618,668,3.29889,-0.029944,0.266937,0.875964
1621,665,3.2977,-0.0310773,0.26749,0.875254
1624,662,3.30073,-0.0275048,0.265845,0.874566
1627,659,3.29938,-0.0282556,0.266399,0.873994
1630,656,3.29916,-0.0284997,0.266395,0.873895
1633,653,3.29903,-0.0293028,0.266392,0.8736
1636,650,3.2976,-0.0303615,0.266954,0.872929
1639,647,3.29772,-0.0313895,0.266956,0.872575
1642,644,3.29928,-0.0277279,0.265878,0.871647
1645,641,3.2986,-0.0297674,0.266459,0.870695
1648,638,3.29888,-0.0294736,0.26586,0.870979
1651,635,3.29779,-0.0304865,0.266403,0.86886
1654,632,3.29758,-0.0305755,0.2664,0.870229
1657,629,3.30006,-0.0267469,0.264744,0.869598
1660,626,3.29879,-0.0278354,0.265305,0.868911
1663,623,3.29901,-0.0287792,0.265675,0.868564
1666,620,3.29793,-0.0296061,0.265858,0.867964
1669,617,3.29669,-0.0308275,0.266418,0.867214
1672,614,3.29674,-0.0316615,0.266419,0.866928
1675,611,3.29842,-0.0280602,0.265329,0.865935
1678,608,3.298,-0.0291776,0.265328,0.865533
1681,605,3.29781,-0.0298347,0.265331,0.865315
1684,602,3.297,-0.0309325,0.265969,0.86463
1687,599,3.29658,-0.0309787,0.26589,0.864589
1690,596,3.29806,-0.0273269,0.264788,0.863572
1693,593,3.29795,-0.0283221,0.264785,0.86321
1696,590,3.29786,-0.0290464,0.264987,0.862948
1699,587,3.29666,-0.030186,0.265998,0.862238
1702,584,3.29634,-0.0311131,0.265344,0.861907
1705,581,3.29532,-0.0321406,0.265914,0.861235
1708,578,3.29807,-0.0284167,0.264244,0.860552
1711,575,3.29741,-0.0270223,0.264243,0.859894
1714,572,3.29587,-0.0306278,0.265397,0.859197
1717,569,3.29588,-0.0290495,0.26483,0.858933
1720,566,3.29538,-0.0394943,0.264838,0.858643
1723,563,3.29804,-0.0356392,0.263359,0.857989
1726,560,3.29705,-0.0341365,0.263151,0.857348
1729,557,3.29566,-0.0378152,0.264289,0.856588
1732,554,3.29566,-0.0361631,0.263714,0.85631
1735,551,3.29497,-0.0348803,0.263779,0.855596
1738,548,3.2977,-0.0310509,0.26203,0.854938
1741,545,3.29671,-0.0295478,0.262029,0.854298
1744,542,3.29594,-0.0331568,0.262605,0.853902
1747,539,3.29573,-0.0313745,0.262032,0.853674
1750,536,3.29463,-0.035126,0.263545,0.852911
1753,533,3.29774,-0.0262338,0.260346,0.852296
1756,530,3.29647,-0.0274649,0.260911,0.851552
1759,527,3.29587,-0.0379188,0.260911,0.851288
1762,524,3.29507,-0.0365201,0.26091,0.850613
1765,521,3.29478,-0.0375081,0.260906,0.850259
1768,518,3.29733,-0.0311162,0.258653,0.849602
1771,515,3.2962,-0.0347674,0.259787,0.848889
1774,512,3.29616,-0.0305788,0.258645,0.848621
1777,509,3.29505,-0.0342983,0.259783,0.8479
1780,506,3.2978,-0.0278522,0.257526,0.847262
1783,503,3.29655,-0.0290119,0.258095,0.846555
1786,500,3.29668,-0.027414,0.258159,0.846234
1789,497,3.29551,-0.0285353,0.258082,0.845534
1792,494,3.29523,-0.0294542,0.258075,0.845206
1795,491,3.29744,-0.0327331,0.255825,0.844567
1798,488,3.29627,-0.0364858,0.256957,0.843843
1801,485,3.29652,-0.0321843,0.255831,0.843634
1804,482,3.29523,-0.0368463,0.256962,0.842593
1807,479,3.29459,-0.0353671,0.256962,0.841952
1810,476,3.29726,-0.0290374,0.25471,0.841258
1813,473,3.29605,-0.0326945,0.255839,0.840562
1816,470,3.29621,-0.028512,0.254707,0.840289
1819,467,3.29507,-0.0297722,0.25527,0.839549
1822,464,3.29482,-0.0305729,0.255269,0.839277
1825,461,3.29615,-0.0366719,0.254142,0.838247
1828,458,3.29642,-0.0278818,0.254144,0.837906
1831,455,3.2959,-0.0359363,0.25358,0.837667
1834,452,3.29465,-0.0371471,0.254147,0.836965
1837,449,3.29685,-0.0344149,0.253012,0.835579
1840,446,3.29669,-0.0326893,0.252445,0.835306
1843,443,3.2953,-0.033797,0.253004,0.834612
1846,440,3.29515,-0.03488,0.253002,0.834238
1849,437,3.29427,-0.0333354,0.253003,0.833847
1852,434,3.29685,-0.0268211,0.25074,0.832953
1855,431,3.2956,-0.03068,0.251868,0.832208
1858,428,3.29589,-0.0289703,0.2513,0.831929
1861,425,3.29488,-0.0396885,0.251299,0.831658
1864,422,3.29663,-0.0360405,0.250165,0.8306
1867,419,3.29601,-0.0273041,0.250729,0.830119
1870,416,3.29538,-0.0381626,0.25073,0.829606
1873,413,3.29497,-0.0349414,0.250163,0.828662
1876,410,3.29356,-0.0362082,0.25055,0.82794
1879,407,3.29587,-0.0348628,0.249589,0.827242
1882,404,3.29548,-0.0358136,0.249587,0.826928
1885,401,3.2948,-0.0341977,0.249586,0.826318
1888,398,3.2947,-0.0325686,0.249023,0.826008
1891,395,3.29639,-0.0288603,0.247875,0.824929
1894,392,3.29541,-0.0309634,0.248438,0.823917
1897,389,3.29517,-0.0320681,0.248438,0.82356
1900,386,3.29448,-0.0305549,0.248438,0.82291
1903,383,3.29357,-0.0414531,0.248439,0.822645
1906,380,3.2964,-0.0347936,0.246163,0.821988
1909,377,3.29507,-0.0358259,0.246714,0.821323
1912,374,3.29395,-0.0345734,0.246698,0.820519
1915,371,3.2938,-0.0356108,0.246652,0.820188
1918,368,3.29634,-0.0315474,0.244987,0.819538
1921,365,3.29633,-0.0298202,0.244429,0.819267
1924,362,3.29518,-0.039336,0.244426,0.818292
1927,359,3.29373,-0.0405152,0.244983,0.817606
1930,356,3.29265,-0.0417284,0.245544,0.816905
1933,353,3.29569,-0.027708,0.243827,0.816174
1936,350,3.29534,-0.0284129,0.24382,0.815933
1939,347,3.294,-0.039862,0.24438,0.815226
1942,344,3.29389,-0.0381293,0.243801,0.814877
1945,341,3.29583,-0.0315817,0.242088,0.813864
1948,338,3.29508,-0.0312144,0.242095,0.812858
1951,335,3.29476,-0.0321981,0.242099,0.812557
1954,332,3.29319,-0.0360686,0.243219,0.810587
1957,329,3.2959,-0.0319828,0.241497,0.811189
1960,326,3.29531,-0.0314976,0.241497,0.810195
1963,323,3.29514,-0.0298107,0.240934,0.809884
1966,320,3.29357,-0.0411577,0.241488,0.809216
1969,317,3.29339,-0.039347,0.240924,0.808935
1972,314,3.2953,-0.0354895,0.239754,0.807874
1975,311,3.29466,-0.036503,0.239752,0.807542
1978,308,3.29354,-0.037739,0.240657,0.806844
1981,305,3.29258,-0.0400048,0.240874,0.805822
1984,302,3.29561,-0.0331928,0.23859,0.805181
1987,299,3.29462,-0.0344043,0.239144,0.804485
1990,296,3.29473,-0.0299941,0.23803,0.80421
1993,293,3.29353,-0.0320841,0.238585,0.803233
1996,290,3.2952,-0.0282027,0.237411,0.802165
1999,287,3.29489,-0.0292841,0.23741,0.801818
2002,284,3.29386,-0.0303916,0.237967,0.801156
2005,281,3.293004,-0.0416919,0.238595,0.800861
2008,278,3.2955,-0.0375306,0.236227,0.800201
2011,275,3.29497,-0.0343354,0.235669,0.799198
2014,272,3.29341,-0.0383368,0.236784,0.798483
2017,269,3.29295,-0.0393278,0.236783,0.798173
2020,266,3.29526,-0.0327191,0.234742,0.797109
2023,263,3.29488,-0.0336005,0.235042,0.796853
2026,260,3.29439,-0.0304361,0.234489,0.795859
2029,257,3.29297,-0.0316967,0.235052,0.795168
2032,254,3.29216,-0.0352767,0.23561,0.794897
2035,251,3.29443,-0.0314725,0.234423,0.793786
2038,248,3.29443,-0.0307125,0.233863,0.793187
2041,245,3.29285,-0.0423266,0.234417,0.792543
2044,242,3.29559,-0.0353426,0.232111,0.79188
2047,239,3.29423,-0.0366209,0.232658,0.791147
2050,236,3.29318,-0.0388584,0.233211,0.790124
2053,233,3.2927,-0.0398674,0.233207,0.789805
2056,230,3.29188,-0.0383094,0.233376,0.789132
2059,227,3.29478,-0.0313498,0.230899,0.788461
2062,224,3.29373,-0.0298078,0.230899,0.787783
2065,221,3.29227,-0.0348453,0.23201,0.786756
2068,218,3.29183,-0.0358317,0.23201,0.786473
2071,215,3.29505,-0.0288737,0.229702,0.785799
2074,212,3.29352,-0.04067,0.230885,0.785153
2077,209,3.29263,-0.0401119,0.23026,0.783957
2080,206,3.29179,-0.0411691,0.230259,0.783855
2083,203,3.29348,-0.0399796,0.229606,0.782747
2086,200,3.29302,-0.041015,0.229602,0.78243
2089,197,3.29248,-0.0376862,0.229043,0.781449
2092,194,3.29236,-0.0358329,0.228486,0.781174
2095,191,3.29416,-0.0317251,0.227442,0.780114
2098,188,3.29275,-0.033105,0.227831,0.779381
2101,185,3.29182,-0.0354159,0.228387,0.778362
2104,182,3.2916,-0.033659,0.227829,0.778067
2107,179,3.294,-0.0399462,0.226061,0.777457
2110,176,3.29344,-0.0410445,0.226061,0.777357
2113,173,3.29165,-0.0406674,0.226611,0.775751
2116,170,3.29074,-0.0446431,0.227165,0.7754
2119,167,3.29285,-0.0405522,0.225947,0.773125
2122,164,3.29279,-0.038741,0.225383,0.774029
2125,161,3.29199,-0.0380704,0.225383,0.773086
2128,158,3.2916,-0.0363064,0.224831,0.772777
2131,155,3.29339,-0.0322869,0.223609,0.771684
2134,152,3.29203,-0.0374484,0.224719,0.770657
2137,149,3.29194,-0.0356008,0.224155,0.770361
2140,146,3.29171,-0.0338355,0.223601,0.77007
2143,143,3.29342,-0.0405707,0.222376,0.769023
2146,140,3.29243,-0.0400169,0.222375,0.768038
2149,137,3.29096,-0.0413279,0.222927,0.767331
2152,134,3.29015,-0.0452558,0.223486,0.767025
2155,131,3.29304,-0.0409511,0.221702,0.766321
2158,128,3.29225,-0.0403646,0.2217,0.765349
2161,125,3.29117,-0.0387255,0.221695,0.764671
2164,122,3.29403,-0.0314856,0.21936,0.763992
2167,119,3.2928,-0.0367612,0.220459,0.76295
2170,116,3.29187,-0.0351086,0.220456,0.76228
2173,113,3.29156,-0.0332709,0.2199,0.761996
2176,110,3.29303,-0.0410984,0.218664,0.760656
2179,107,3.29212,-0.031471,0.219215,0.759889
2182,104,3.29178,-0.0324597,0.219212,0.759606
2185,101,3.29084,-0.0446386,0.21921,0.759319
2188,98,3.29334,-0.0356245,0.216868,0.757975
2191,95,3.29158,-0.0429246,0.218524,0.757221
2194,92,3.29162,-0.038072,0.217416,0.756971
2197,89,3.29058,-0.037493,0.217416,0.75599
2200,86,3.29235,-0.0362091,0.216718,0.754876
2203,83,3.29234,-0.0343644,0.216162,0.754586
2206,80,3.2912,-0.0337309,0.216483,0.753631
2209,77,3.29405,-0.0294327,0.214359,0.752885
2212,74,3.29223,-0.0418153,0.214906,0.752243
2215,71,3.29158,-0.0330809,0.215455,0.751169
2218,68,3.29049,-0.0451975,0.215453,0.750966
2221,65,3.29245,-0.0411248,0.214193,0.749822
2224,62,3.29242,-0.040263,0.214255,0.749244
2227,59,3.2908,-0.0416102,0.214188,0.748536
2230,56,3.29084,-0.0396862,0.213635,0.748266
2233,53,3.29283,-0.0365144,0.212368,0.746846
2236,50,3.2919,-0.034833,0.212367,0.746186
2239,47,3.29072,-0.0373546,0.212919,0.745153
2242,44,3.29028,-0.0352716,0.212366,0.744919
2245,41,3.29241,-0.0311757,0.2111,0.74401
2248,38,3.29063,-0.0450123,0.211648,0.742801
2251,35,3.29047,-0.0430123,0.211097,0.74255
2254,32,3.29298,-0.0415545,0.209826,0.741822
2257,29,3.29217,-0.0409642,0.209824,0.740839
2260,26,3.29087,-0.0392308,0.20982,0.740169
2263,23,3.29032,-0.0403707,0.209817,0.739858
2266,20,3.29249,-0.0372129,0.208538,0.738437
2269,17,3.29216,-0.0382773,0.208534,0.738143
2272,14,3.29124,-0.0377353,0.208532,0.737142
2275,11,3.28986,-0.0360386,0.208531,0.736467
2278,8,3.29276,-0.0313532,0.206701,0.735798
2281,5,3.2911,-0.0454158,0.207255,0.73484
2283,3,3.29009,-0.046978,0.207803,0.734091