File: hust_correlation_analysis/matrices/HUST_6-5_cycle_feature_matrix.csv
cycle_number,rul,voltage,current,capacity,charge_capacity
1,2180,3.32782,-0.0203823,0.26969,1.00183
3,2178,3.31562,-0.0218586,0.273805,0.995969
5,2176,3.31567,-0.0230225,0.273803,0.995467
7,2174,3.31539,-0.0236925,0.273802,0.995179
9,2172,3.31741,-0.021003,0.272307,0.994534
11,2170,3.31719,-0.0215916,0.272307,0.994275
13,2168,3.31717,-0.0223942,0.272306,0.993928
15,2166,3.31711,-0.0231398,0.272305,0.993625
17,2164,3.31697,-0.0237847,0.272301,0.993332
19,2162,3.31733,-0.0236706,0.271864,0.993641
21,2160,3.31627,-0.0245867,0.2723,0.992996
23,2158,3.31877,-0.0209003,0.270372,0.993028
25,2156,3.31818,-0.0216721,0.270912,0.992443
27,2154,3.31851,-0.0225078,0.270807,0.992093
29,2152,3.31829,-0.0222459,0.270372,0.992469
31,2150,3.31807,-0.0231299,0.270806,0.991822
33,2148,3.31872,-0.0195979,0.269563,0.991506
35,2146,3.31928,-0.0195381,0.269127,0.991786
37,2144,3.31858,-0.0202541,0.269561,0.989917
39,2142,3.3177,-0.0241632,0.270801,0.991359
41,2140,3.31778,-0.0238794,0.2708,0.991486
43,2138,3.31729,-0.0244764,0.270801,0.991231
45,2136,3.3188,-0.0209791,0.269561,0.990912
47,2134,3.31953,-0.0217672,0.269303,0.99057
49,2132,3.31867,-0.0217729,0.269556,0.990561
51,2130,3.31915,-0.0217998,0.269642,0.990566
53,2128,3.31844,-0.0224822,0.269738,0.990003
55,2126,3.31835,-0.0224886,0.269741,0.990003
57,2124,3.31934,-0.0224823,0.26964,0.990262
59,2122,3.31802,-0.0231468,0.269555,0.989974
61,2120,3.31819,-0.0235648,0.269735,0.989522
63,2118,3.31829,-0.0238628,0.269733,0.989395
65,2116,3.31814,-0.0238431,0.269735,0.989412
67,2114,3.31769,-0.0239328,0.269734,0.989369
69,2112,3.31935,-0.020802,0.268492,0.988889
71,2110,3.31927,-0.0207085,0.268216,0.988916
73,2108,3.31903,-0.0207471,0.268487,0.988899
75,2106,3.31909,-0.0214774,0.268489,0.988584
77,2104,3.31882,-0.0215435,0.268491,0.988553
79,2102,3.31895,-0.0215495,0.268963,0.98856
81,2100,3.31847,-0.0222008,0.268486,0.98826
83,2098,3.31854,-0.0221492,0.268486,0.98829
85,2096,3.31807,-0.0220479,0.268485,0.988332
87,2094,3.31833,-0.0229021,0.268485,0.98797
89,2092,3.31816,-0.0229292,0.268488,0.987979
91,2090,3.32096,-0.0193323,0.266557,0.987963
93,2088,3.31961,-0.020144,0.267419,0.987074
95,2086,3.32044,-0.0200025,0.266987,0.987651
97,2084,3.3202,-0.0200767,0.266988,0.987372
99,2082,3.32,-0.0200952,0.266981,0.987341
101,2080,3.32045,-0.0201772,0.266981,0.987312
103,2078,3.32009,-0.0207736,0.266982,0.987053
105,2076,3.32005,-0.0207501,0.266983,0.987058
107,2074,3.31932,-0.0208168,0.267413,0.986764
109,2072,3.32017,-0.020818,0.266981,0.987031
111,2070,3.32011,-0.0215412,0.26698,0.986726
113,2068,3.31994,-0.0215662,0.266984,0.986975
115,2066,3.31942,-0.0222529,0.267413,0.986169
117,2064,3.31944,-0.0222301,0.267413,0.986178
119,2062,3.31913,-0.0222476,0.26741,0.986155
121,2060,3.3195,-0.0221481,0.266981,0.986466
123,2058,3.31956,-0.0222279,0.26698,0.986435
125,2056,3.31921,-0.0230095,0.267411,0.98583
127,2054,3.31875,-0.0229173,0.267411,0.985867
129,2052,3.31852,-0.022981,0.267412,0.985832
131,2050,3.32086,-0.0198212,0.265911,0.985369
133,2048,3.31999,-0.0202516,0.266342,0.98492
135,2046,3.32089,-0.0201589,0.265912,0.985223
137,2044,3.3204,-0.0200316,0.265911,0.985273
139,2042,3.32051,-0.02012,0.265913,0.985242
141,2040,3.32066,-0.0207424,0.26591,0.984972
143,2038,3.32077,-0.0208291,0.265909,0.98494
145,2036,3.32073,-0.0209173,0.265913,0.984907
147,2034,3.32036,-0.0209487,0.265912,0.984892
149,2032,3.32049,-0.020853,0.265914,0.984949
151,2030,3.32086,-0.0214759,0.265908,0.984657
153,2028,3.32076,-0.0215762,0.265911,0.984618
155,2026,3.32033,-0.0215423,0.265909,0.984634
157,2024,3.32045,-0.0215623,0.265911,0.984623
159,2022,3.32034,-0.0215512,0.26591,0.984639
161,2020,3.32047,-0.0215558,0.266007,0.984628
163,2018,3.31973,-0.0222918,0.266343,0.984049
165,2016,3.31982,-0.022347,0.266303,0.984028
167,2014,3.32003,-0.0223016,0.266244,0.984302
169,2012,3.32016,-0.0222953,0.265908,0.98432
171,2010,3.31945,-0.0230078,0.26634,0.983733
173,2008,3.31952,-0.022997,0.266342,0.983745
175,2006,3.31919,-0.0229946,0.266342,0.98375
177,2004,3.31897,-0.0229947,0.266339,0.983747
179,2002,3.31934,-0.0231168,0.266341,0.983696
181,2000,3.32107,-0.0202863,0.264841,0.983085
183,1998,3.32113,-0.0201992,0.264842,0.983127
185,1996,3.32089,-0.0201517,0.26484,0.983137
187,1994,3.32144,-0.0201157,0.26441,0.983418
189,1992,3.32121,-0.0200691,0.264409,0.983438
191,1990,3.3215,-0.0201666,0.264409,0.983395
193,1988,3.32089,-0.0208687,0.26484,0.982832
195,1986,3.3209,-0.0208863,0.264843,0.982835
197,1984,3.32098,-0.0208588,0.264845,0.982854
199,1982,3.32055,-0.0209492,0.264842,0.982804
201,1980,3.32051,-0.020882,0.264846,0.982854
203,1978,3.31949,-0.0252062,0.266095,0.98282
205,1976,3.32017,-0.0217447,0.265277,0.982217
207,1974,3.3204,-0.0215552,0.264846,0.982556
209,1972,3.32063,-0.0216043,0.26532,0.982531
211,1970,3.32064,-0.02195,0.264847,0.982392
213,1968,3.32129,-0.0220372,0.264598,0.982353
215,1966,3.32092,-0.0219659,0.264701,0.9824
217,1964,3.32108,-0.0219671,0.264601,0.982404
219,1962,3.32106,-0.0226165,0.264599,0.982119
221,1960,3.32075,-0.022775,0.265033,0.981794
223,1958,3.32097,-0.0227781,0.264599,0.982044
225,1956,3.32053,-0.0224425,0.264597,0.98219
227,1954,3.32093,-0.0227354,0.264599,0.982068
229,1952,3.32062,-0.0229964,0.264599,0.981949
231,1950,3.31926,-0.0231693,0.265279,0.981607
233,1948,3.32026,-0.0234943,0.265033,0.981488
235,1946,3.32047,-0.0235111,0.265031,0.981479
237,1944,3.3208,-0.0234357,0.264602,0.98178
239,1942,3.32055,-0.0233683,0.264603,0.981813
241,1940,3.32048,-0.0233722,0.264602,0.981797
243,1938,3.3204,-0.0233754,0.264598,0.981793
245,1936,3.32034,-0.0242524,0.265031,0.98116
247,1934,3.32059,-0.0241286,0.264599,0.981468
249,1932,3.31976,-0.0242207,0.265036,0.981188
251,1930,3.31973,-0.0242048,0.265035,0.981185
253,1928,3.32013,-0.0241117,0.265076,0.981488
255,1926,3.31975,-0.0249038,0.265032,0.98088
257,1924,3.3202,-0.0248155,0.2646,0.981187
259,1922,3.31957,-0.0248822,0.265032,0.980902
261,1920,3.31997,-0.0247836,0.264921,0.981187
263,1918,3.31972,-0.0248338,0.264598,0.981157
265,1916,3.32191,-0.0213296,0.263103,0.980854
267,1914,3.32071,-0.0185095,0.264614,0.980237
269,1912,3.32142,-0.0220618,0.263524,0.980239
271,1910,3.32062,-0.0219927,0.263773,0.980272
273,1908,3.32134,-0.0216701,0.263526,0.980408
275,1906,3.32129,-0.0217477,0.263526,0.980381
277,1904,3.32127,-0.0220543,0.263526,0.980244
279,1902,3.32026,-0.0217221,0.263959,0.980123
281,1900,3.32114,-0.0220184,0.263528,0.980264
283,1898,3.3191,-0.022501,0.265105,0.979495
285,1896,3.32015,-0.0225714,0.263955,0.979733
287,1894,3.31945,-0.0223425,0.264195,0.979817
289,1892,3.31945,-0.0228443,0.264202,0.979628
291,1890,3.32,-0.0228545,0.263953,0.979612
293,1888,3.31928,-0.0231951,0.264677,0.979466
295,1886,3.31905,-0.023256,0.263864,0.979434
297,1884,3.31826,-0.0233029,0.264633,0.979152
299,1882,3.31946,-0.0231425,0.263764,0.979742
301,1880,3.32139,-0.0196472,0.262266,0.979404
303,1878,3.32103,-0.020341,0.262692,0.978843
305,1876,3.32085,-0.0204645,0.262694,0.97878
307,1874,3.32073,-0.0204746,0.263165,0.978783
309,1872,3.32078,-0.0211969,0.262692,0.978482
311,1870,3.32131,-0.0210302,0.262263,0.978813
313,1868,3.32117,-0.0210662,0.262733,0.978795
315,1866,3.32152,-0.0209869,0.261831,0.979094
317,1864,3.32142,-0.0218075,0.26226,0.978479
319,1862,3.32098,-0.021763,0.262732,0.978492
321,1860,3.32089,-0.0216969,0.262259,0.978517
323,1858,3.321,-0.0218333,0.262254,0.978444
325,1856,3.32058,-0.0218533,0.262358,0.978457
327,1854,3.32069,-0.0218186,0.262254,0.978457
329,1852,3.32106,-0.0224748,0.262256,0.978172
331,1850,3.32059,-0.0224623,0.262253,0.978172
333,1848,3.3204,-0.0224451,0.262255,0.978177
335,1846,3.32013,-0.0225013,0.262257,0.978168
337,1844,3.32063,-0.023255,0.262259,0.977842
339,1842,3.32088,-0.0230738,0.26183,0.978185
341,1840,3.32033,-0.0231549,0.262727,0.977886
343,1838,3.32356,-0.0196348,0.260329,0.977836
345,1836,3.32252,-0.0204223,0.260755,0.97723
347,1834,3.32335,-0.0202604,0.260327,0.977552
349,1832,3.32293,-0.0202593,0.260324,0.977536
351,1830,3.32203,-0.0203236,0.260752,0.977262
353,1828,3.32256,-0.0203905,0.260752,0.977227
355,1826,3.32281,-0.0203488,0.260323,0.977496
357,1824,3.32213,-0.0210022,0.260845,0.97695
359,1822,3.32204,-0.021044,0.260748,0.976924
361,1820,3.32204,-0.0211281,0.260749,0.9769
363,1818,3.32164,-0.0212254,0.26075,0.976855
365,1816,3.32196,-0.0218408,0.260751,0.976592
367,1814,3.32179,-0.0218296,0.260752,0.976602
369,1812,3.32216,-0.0216768,0.260795,0.976926
371,1810,3.32169,-0.0225672,0.260751,0.976284
373,1808,3.32171,-0.0224317,0.260754,0.976348
375,1806,3.32146,-0.0224843,0.260751,0.976321
377,1804,3.32145,-0.022559,0.260752,0.976285
379,1802,3.32139,-0.0224621,0.260752,0.976324
381,1800,3.32125,-0.0226064,0.260749,0.976262
383,1798,3.32126,-0.0232342,0.260747,0.97597
385,1796,3.32113,-0.0232638,0.260746,0.975962
387,1794,3.3208,-0.0232299,0.260746,0.975972
389,1792,3.32051,-0.0232533,0.260746,0.975966
391,1790,3.32365,-0.0196646,0.258817,0.975918
393,1788,3.32281,-0.0204783,0.259246,0.975324
395,1786,3.32343,-0.0202601,0.258821,0.975684
397,1784,3.32354,-0.0202983,0.25882,0.97567
399,1782,3.32364,-0.0210601,0.258821,0.975336
401,1780,3.32345,-0.0210898,0.258819,0.975312
403,1778,3.32327,-0.0209497,0.25882,0.975374
405,1776,3.32289,-0.0211109,0.259244,0.975052
407,1774,3.32303,-0.0209958,0.258822,0.975357
409,1772,3.32349,-0.0211009,0.259291,0.975308
411,1770,3.3225,-0.0218112,0.259246,0.974753
413,1768,3.32243,-0.021752,0.259244,0.974773
415,1766,3.32311,-0.0217259,0.25882,0.975293
417,1764,3.32282,-0.0217958,0.258821,0.975016
419,1762,3.32265,-0.0225441,0.259242,0.973047
421,1760,3.32227,-0.0225764,0.259247,0.974426
423,1758,3.32249,-0.022581,0.259246,0.974419
425,1756,3.32287,-0.023269,0.25882,0.974365
427,1754,3.32212,-0.0233099,0.259564,0.974105
429,1752,3.32201,-0.0232197,0.259245,0.97413
431,1750,3.32243,-0.0231642,0.258819,0.974402
433,1748,3.32364,-0.0204992,0.258169,0.973202
435,1746,3.32405,-0.0204937,0.257741,0.973454
437,1744,3.32387,-0.0204866,0.257742,0.973457
439,1742,3.32394,-0.0203395,0.257318,0.973772
441,1740,3.32396,-0.0203341,0.257318,0.973772
443,1738,3.32388,-0.0204042,0.257318,0.973743
445,1736,3.32385,-0.0212219,0.25774,0.973124
447,1734,3.32401,-0.0209809,0.25732,0.973501
449,1732,3.32401,-0.0211144,0.257319,0.973439
451,1730,3.32416,-0.0210916,0.257321,0.973466
453,1728,3.32382,-0.0219416,0.257741,0.97282
455,1726,3.3234,-0.0218734,0.257746,0.972867
457,1724,3.32332,-0.0218867,0.257741,0.972846
459,1722,3.32325,-0.0226208,0.257743,0.972524
461,1720,3.32336,-0.0226224,0.257741,0.972518
463,1718,3.32325,-0.0226489,0.25774,0.972508
465,1716,3.32292,-0.0225749,0.257736,0.971091
467,1714,3.32307,-0.0225818,0.257737,0.972533
469,1712,3.32334,-0.0225102,0.257315,0.973065
471,1710,3.3234,-0.0225088,0.257314,0.972807
473,1708,3.32288,-0.0232234,0.257734,0.972231
475,1706,3.32255,-0.023332,0.258062,0.972188
477,1704,3.32328,-0.0232709,0.257314,0.972474
479,1702,3.32472,-0.0204905,0.256237,0.971587
481,1700,3.32488,-0.0203902,0.256242,0.971646
483,1698,3.32457,-0.0204425,0.256242,0.971619
485,1696,3.32463,-0.0205479,0.256241,0.971574
487,1694,3.32326,-0.0244782,0.257505,0.971724
489,1692,3.32386,-0.0243037,0.257083,0.972058
491,1690,3.3252,-0.020712,0.255819,0.971761
493,1688,3.3252,-0.0210867,0.255816,0.97158
495,1686,3.32503,-0.0212076,0.255817,0.971531
497,1684,3.32287,-0.0253848,0.257504,0.971319
499,1682,3.32464,-0.0218551,0.256234,0.970973
501,1680,3.32384,-0.0218887,0.256237,0.970976
503,1678,3.32397,-0.0219398,0.256229,0.970937
505,1676,3.32537,-0.0217993,0.25558,0.97127
507,1674,3.32479,-0.0226431,0.256006,0.970665
509,1672,3.32517,-0.0221736,0.255581,0.971104
511,1670,3.32475,-0.023087,0.256005,0.970464
513,1668,3.32553,-0.0228056,0.255585,0.970852
515,1666,3.32535,-0.0228686,0.255582,0.970803
517,1664,3.32371,-0.0229462,0.256234,0.970504
519,1662,3.32421,-0.0232743,0.25628,0.970602
521,1660,3.32376,-0.0231884,0.255448,0.970646
523,1658,3.32328,-0.0233004,0.256233,0.970346
525,1656,3.32567,-0.0204968,0.25473,0.969709
527,1654,3.32542,-0.0204988,0.254731,0.969697
529,1652,3.32536,-0.0204579,0.254732,0.969724
531,1650,3.32538,-0.0204405,0.254733,0.969739
533,1648,3.32391,-0.0241432,0.256003,0.969996
535,1646,3.32516,-0.020894,0.254735,0.969534
537,1644,3.32542,-0.0207207,0.254314,0.969867
539,1642,3.32472,-0.0211447,0.254736,0.969429
541,1640,3.32481,-0.0211942,0.254735,0.969395
543,1638,3.32544,-0.0212359,0.254315,0.969639
545,1636,3.3253,-0.0211132,0.254314,0.969698
547,1634,3.32377,-0.025549,0.256,0.969376
549,1632,3.32553,-0.0215606,0.25431,0.969476
551,1630,3.3251,-0.021879,0.254311,0.969345
553,1628,3.3251,-0.021812,0.254311,0.969365
555,1626,3.32406,-0.0226942,0.25515,0.968485
557,1624,3.32483,-0.0223208,0.25504,0.968893
559,1622,3.32437,-0.0227291,0.254729,0.968713
561,1620,3.3246,-0.0225939,0.254311,0.969017
563,1618,3.32418,-0.0233452,0.254727,0.968447
565,1616,3.32501,-0.0234602,0.254499,0.968388
567,1614,3.3254,-0.0238216,0.254499,0.968239
569,1612,3.32465,-0.0232478,0.254313,0.968747
571,1610,3.32565,-0.0236736,0.254081,0.968557
573,1608,3.32545,-0.0236756,0.254078,0.968553
575,1606,3.32659,-0.0201994,0.252809,0.968197
577,1604,3.32583,-0.0205038,0.253228,0.967808
579,1602,3.32642,-0.0204307,0.252807,0.968092
581,1600,3.32645,-0.020477,0.252805,0.96806
583,1598,3.32567,-0.0212275,0.253221,0.967477
585,1596,3.32623,-0.0211314,0.253127,0.967767
587,1594,3.32599,-0.0211759,0.252803,0.967743
589,1592,3.32641,-0.0213109,0.252805,0.967697
591,1590,3.32555,-0.0219468,0.253227,0.967172
593,1588,3.32659,-0.0223135,0.252996,0.967013
595,1586,3.32746,-0.0221552,0.25258,0.967339
597,1584,3.32682,-0.0222919,0.252578,0.967277
599,1582,3.3259,-0.0221453,0.252809,0.967342
601,1580,3.32599,-0.0222439,0.252805,0.967277
603,1578,3.32546,-0.0227581,0.253221,0.966798
605,1576,3.3256,-0.0226909,0.252893,0.967061
607,1574,3.3249,-0.0233076,0.253221,0.966551
609,1572,3.32476,-0.023361,0.253218,0.966515
611,1570,3.32495,-0.0234348,0.253309,0.96648
613,1568,3.32486,-0.0234319,0.253219,0.966495
615,1566,3.32531,-0.0233473,0.252798,0.966763
617,1564,3.32709,-0.020553,0.251715,0.965859
619,1562,3.32761,-0.0205546,0.251299,0.966107
621,1560,3.32724,-0.0204343,0.251303,0.966181
623,1558,3.32637,-0.0213451,0.252139,0.965288
625,1556,3.32528,-0.0245072,0.25299,0.966041
627,1554,3.32605,-0.0247746,0.252894,0.96615
629,1552,3.32698,-0.0211863,0.2513,0.965831
631,1550,3.32672,-0.021147,0.2513,0.965846
633,1548,3.32698,-0.0220373,0.251716,0.965207
635,1546,3.32671,-0.0220326,0.251712,0.965009
637,1544,3.32639,-0.0220034,0.251712,0.965213
639,1542,3.32636,-0.0220314,0.251711,0.965198
641,1540,3.32562,-0.0228454,0.252128,0.964592
643,1538,3.32557,-0.0228845,0.252129,0.964574
645,1536,3.32574,-0.022708,0.251714,0.964893
647,1534,3.32588,-0.0228708,0.251715,0.964846
649,1532,3.32621,-0.0226513,0.251303,0.965196
651,1530,3.32633,-0.0234298,0.251714,0.964587
653,1528,3.32598,-0.0237695,0.251716,0.964442
655,1526,3.32685,-0.0235077,0.251489,0.964586
657,1524,3.32644,-0.02385,0.251488,0.96442
659,1522,3.32613,-0.0245965,0.251903,0.963838
661,1520,3.32801,-0.0208677,0.250534,0.963837
663,1518,3.32701,-0.0214019,0.25055,0.963365
665,1516,3.32789,-0.0212434,0.250214,0.963675
667,1514,3.3259,-0.0247971,0.251485,0.963993
669,1512,3.32552,-0.0253559,0.251904,0.963508
671,1510,3.3273,-0.0217253,0.250214,0.963468
673,1508,3.32516,-0.0257354,0.251908,0.963343
675,1506,3.32795,-0.0224863,0.250406,0.962905
677,1504,3.32766,-0.0224065,0.250407,0.962944
679,1502,3.3279,-0.0223909,0.249992,0.963197
681,1500,3.32652,-0.0231495,0.250824,0.962375
683,1498,3.32731,-0.023125,0.250408,0.962623
685,1496,3.32755,-0.0231431,0.249991,0.96286
687,1494,3.32743,-0.023095,0.249992,0.962884
689,1492,3.32744,-0.023816,0.250406,0.962315
691,1490,3.32697,-0.0238907,0.25071,0.962292
693,1488,3.32799,-0.023804,0.249991,0.962565
695,1486,3.32648,-0.0238187,0.250406,0.962331
697,1484,3.32622,-0.024649,0.250822,0.961721
699,1482,3.32623,-0.0245994,0.250406,0.961979
701,1480,3.32696,-0.0245099,0.24999,0.962253
703,1478,3.32704,-0.0244857,0.249991,0.962271
705,1476,3.32637,-0.0253179,0.250406,0.961655
707,1474,3.32654,-0.0252836,0.250404,0.961668
709,1472,3.32634,-0.0253387,0.25071,0.961643
711,1470,3.327865,-0.0224835,0.249319,0.960779
713,1468,3.32811,-0.0224162,0.248975,0.96104
715,1466,3.32847,-0.0224326,0.248905,0.96104
717,1464,3.32881,-0.0223033,0.24849,0.961333
719,1462,3.32798,-0.0224414,0.248904,0.961037
721,1460,3.32786,-0.0233165,0.249318,0.958934
723,1458,3.327306,-0.0232571,0.249318,0.960432
725,1456,3.32824,-0.0231315,0.248902,0.960713
727,1454,3.32741,-0.0232268,0.248902,0.960678
729,1452,3.3275,-0.0240163,0.249316,0.960083
731,1450,3.327355,-0.023938,0.249316,0.960122
733,1448,3.32756,-0.0238473,0.248902,0.960394
735,1446,3.32752,-0.0238792,0.248901,0.960384
737,1444,3.32738,-0.0240125,0.248901,0.960331
739,1442,3.32722,-0.0246658,0.249777,0.959788
741,1440,3.32739,-0.0246574,0.248901,0.960034
743,1438,3.32726,-0.0254241,0.249314,0.959451
745,1436,3.32652,-0.0253799,0.249314,0.959472
747,1434,3.32654,-0.0254055,0.249314,0.959457
749,1432,3.32631,-0.0254237,0.249315,0.959457
751,1430,3.32895,-0.0218096,0.2474,0.9594
753,1428,3.32887,-0.0224859,0.247811,0.958854
755,1426,3.32936,-0.02245302,0.247699,0.959107
757,1424,3.32859,-0.0226038,0.247809,0.958794
759,1422,3.32872,-0.0225178,0.247397,0.959076
761,1420,3.328802,-0.022427,0.247398,0.959111
763,1418,3.32724,-0.0195932,0.248401,0.958496
765,1416,3.32824,-0.0233181,0.247808,0.958475
767,1414,3.32855,-0.0231727,0.247809,0.958533
769,1412,3.32871,-0.0232171,0.247395,0.958764
771,1410,3.3287,-0.0239089,0.247713,0.95846
773,1408,3.32802,-0.0240531,0.247808,0.958138
775,1406,3.32789,-0.0240182,0.247803,0.958139
777,1404,3.32716,-0.024798,0.24822,0.957563
779,1402,3.32765,-0.0248178,0.247805,0.957788
781,1400,3.32756,-0.0246608,0.247806,0.957862
783,1398,3.32829,-0.0246515,0.247394,0.958097
785,1396,3.32788,-0.0254743,0.247805,0.957499
787,1394,3.32755,-0.0254844,0.247806,0.957496
789,1392,3.32689,-0.0244089,0.24822,0.956265
791,1390,3.32853,-0.0209033,0.246716,0.956157
793,1388,3.32976,-0.0206564,0.245892,0.956753
795,1386,3.32927,-0.0224743,0.24662,0.95693
797,1384,3.32912,-0.0214318,0.246302,0.956157
799,1382,3.32902,-0.0287175,0.246302,0.956202
801,1380,3.32925,-0.0233816,0.246301,0.956512
803,1378,3.32813,-0.0294242,0.246301,0.955878
805,1376,3.32861,-0.0295324,0.246301,0.955835
807,1374,3.32898,-0.0294964,0.24589,0.956083
809,1372,3.32863,-0.0293506,0.245889,0.956149
811,1370,3.32842,-0.0276489,0.245889,0.955682
813,1368,3.32842,-0.0229916,0.246299,0.955454
815,1366,3.32799,-0.0301765,0.246299,0.955536
817,1364,3.32802,-0.0283784,0.245897,0.95534
819,1362,3.32761,-0.0303522,0.246294,0.955451
821,1360,3.32756,-0.0237924,0.246709,0.954837
823,1358,3.32787,-0.031025,0.246294,0.95514
825,1356,3.32791,-0.0309527,0.246292,0.95516
827,1354,3.32978,-0.0200113,0.244789,0.954835
829,1352,3.32924,-0.0263556,0.244794,0.954088
831,1350,3.3294,-0.0243407,0.244699,0.95399
833,1348,3.32981,-0.0263022,0.244383,0.954343
835,1346,3.32947,-0.0282001,0.244793,0.9545
837,1344,3.32949,-0.0251172,0.244384,0.953642
839,1342,3.32978,-0.0250484,0.243975,0.953901
841,1340,3.32876,-0.025186,0.244383,0.953613
843,1338,3.32877,-0.0259813,0.244792,0.953026
845,1336,3.32923,-0.0257553,0.243976,0.953596
847,1334,3.32829,-0.0296647,0.245202,0.953606
849,1332,3.32887,-0.0277474,0.244798,0.95349
851,1330,3.33021,-0.020261,0.243467,0.953496
853,1328,3.32981,-0.0192618,0.243466,0.952706
855,1326,3.32887,-0.0266185,0.244384,0.952978
857,1324,3.32856,-0.0266159,0.244384,0.953
859,1322,3.32784,-0.027432,0.244792,0.952379
861,1320,3.32901,-0.0235876,0.243568,0.952331
863,1318,3.32882,-0.023522,0.243567,0.952363
865,1316,3.32974,-0.0226536,0.243288,0.951357
867,1314,3.32994,-0.0226457,0.24288,0.951603
869,1312,3.33044,-0.022641,0.242561,0.951841
871,1310,3.33065,-0.0224793,0.242473,0.951905
873,1308,3.3301,-0.0214125,0.242473,0.951142
875,1306,3.33021,-0.0214846,0.242472,0.951114
877,1304,3.3298,-0.0213918,0.24247,0.95113
879,1302,3.33019,-0.0287838,0.242378,0.951365
881,1300,3.32946,-0.0241822,0.242879,0.9509
883,1298,3.32999,-0.0222082,0.242474,0.950785
885,1296,3.32996,-0.0219828,0.242363,0.951125
887,1294,3.33011,-0.0302425,0.242161,0.950504
889,1292,3.33012,-0.0211488,0.241552,0.950009
891,1290,3.32906,-0.0303085,0.242473,0.950465
893,1288,3.32857,-0.0310959,0.242874,0.949871
895,1286,3.32948,-0.0230364,0.242471,0.950411
897,1284,3.32913,-0.0309687,0.242467,0.950135
899,1282,3.32788,-0.0310164,0.242874,0.949892
901,1280,3.33002,-0.0283132,0.241777,0.948953
903,1278,3.33065,-0.0282143,0.241371,0.949227
905,1276,3.33073,-0.0280693,0.240966,0.949528
907,1274,3.33071,-0.0281199,0.240972,0.94954
909,1272,3.33053,-0.0269227,0.24097,0.948828
911,1270,3.33048,-0.0269989,0.240971,0.948798
913,1268,3.33065,-0.0288565,0.240969,0.949194
915,1266,3.33007,-0.0259683,0.240966,0.946704
917,1264,3.3299,-0.0277137,0.240967,0.948448
919,1262,3.33034,-0.0258859,0.240561,0.948265
921,1260,3.3298,-0.0277469,0.240963,0.948437
923,1258,3.32941,-0.0285531,0.241366,0.947828
925,1256,3.33,-0.0281364,0.240962,0.948255
927,1254,3.3314,-0.0253118,0.239673,0.947589
929,1252,3.33062,-0.0214856,0.23927,0.947034
931,1250,3.33032,-0.023503,0.239674,0.947162
933,1248,3.3303,-0.0260709,0.240074,0.945735
935,1246,3.3314,-0.0241019,0.23946,0.946889
937,1244,3.33213,-0.0207233,0.23866,0.9464
939,1242,3.33086,-0.0245263,0.239463,0.946716
941,1240,3.33101,-0.0233527,0.239463,0.946009
943,1238,3.33045,-0.0230131,0.239261,0.946628
945,1236,3.33163,-0.0248926,0.239062,0.946789
947,1234,3.33118,-0.023345,0.239063,0.946245
949,1232,3.33084,-0.0222198,0.239057,0.945496
951,1230,3.33063,-0.0244958,0.239457,0.945478
953,1228,3.33007,-0.0241472,0.239459,0.945633
955,1226,3.33224,-0.0189698,0.237771,0.945021
957,1224,3.3321,-0.0208471,0.23777,0.945414
959,1222,3.33147,-0.0214895,0.238169,0.944891
961,1220,3.33142,-0.0214239,0.23817,0.944923
963,1218,3.33142,-0.0211771,0.238167,0.945036
965,1216,3.33012,-0.0256108,0.239458,0.944974
967,1214,3.33132,-0.0219167,0.238169,0.9447
969,1212,3.33195,-0.0208259,0.237959,0.943964
971,1210,3.33229,-0.0208213,0.237561,0.944199
973,1208,3.33158,-0.0208127,0.237959,0.943977
975,1206,3.33168,-0.0215453,0.237959,0.943648
977,1204,3.33114,-0.021748,0.238357,0.943303
979,1202,3.33065,-0.0234116,0.238668,0.943822
981,1200,3.3315,-0.0288684,0.23756,0.94392
983,1198,3.33093,-0.0215134,0.23841,0.943659
985,1196,3.33192,-0.0257559,0.236765,0.943281
987,1194,3.33095,-0.0295722,0.237556,0.943596
989,1192,3.33164,-0.0267196,0.236666,0.942724
991,1190,3.3303,-0.0284927,0.237957,0.942618
993,1188,3.33039,-0.0304297,0.237958,0.943004
995,1186,3.3303,-0.0304125,0.23804,0.943009
997,1184,3.32964,-0.0312819,0.238359,0.942393
999,1182,3.32966,-0.0312397,0.238359,0.942408
1001,1180,3.33253,-0.0256233,0.236061,0.942203
1003,1178,3.3317,-0.0263812,0.236459,0.94164
1005,1176,3.33203,-0.0263405,0.236909,0.941675
1007,1174,3.3323,-0.0263321,0.236062,0.941903
1009,1172,3.3313,-0.027101,0.236459,0.941334
1011,1170,3.33168,-0.0251708,0.236062,0.941178
1013,1168,3.33142,-0.0252755,0.236063,0.941129
1015,1166,3.33108,-0.0260087,0.236457,0.940568
1017,1164,3.33161,-0.0259489,0.23606,0.940828
1019,1162,3.33118,-0.0242207,0.23606,0.940349
1021,1160,3.33063,-0.0280144,0.236859,0.94069
1023,1158,3.33131,-0.0278365,0.236152,0.941009
1025,1156,3.33155,-0.0267633,0.236155,0.940258
1027,1154,3.33039,-0.0230852,0.236727,0.940239
1029,1152,3.33158,-0.0182643,0.235614,0.939219
1031,1150,3.33165,-0.0221961,0.236023,0.93949
1033,1148,3.33184,-0.0202628,0.235625,0.939352
1035,1146,3.33218,-0.0226449,0.234959,0.93892
1037,1144,3.33231,-0.0227959,0.23496,0.938848
1039,1142,3.33253,-0.0226143,0.234563,0.939169
1041,1140,3.33277,-0.0227162,0.234563,0.939109
1043,1138,3.33179,-0.025393,0.235355,0.938691
1045,1136,3.33155,-0.0235336,0.234955,0.938509
1047,1134,3.33122,-0.0242388,0.235347,0.937951
1049,1132,3.33173,-0.0235113,0.234956,0.938531
1051,1130,3.33184,-0.0242086,0.23504,0.938222
1053,1128,3.33109,-0.0231388,0.234955,0.937452
1055,1126,3.33199,-0.0230272,0.234559,0.93774
1057,1124,3.33143,-0.0230367,0.234559,0.937737
1059,1122,3.3303,-0.0313062,0.235059,0.937154
1061,1120,3.33107,-0.0238122,0.234953,0.937152
1063,1118,3.33075,-0.0258381,0.23535,0.93724
1065,1116,3.33269,-0.020187,0.233453,0.936834
1067,1114,3.33214,-0.0283865,0.233847,0.936277
1069,1112,3.33201,-0.0209346,0.233847,0.93626
1071,1110,3.33249,-0.0282984,0.233532,0.936539
1073,1108,3.33243,-0.0290886,0.233451,0.936186
1075,1106,3.33208,-0.0291347,0.233452,0.936158
1077,1104,3.33117,-0.0299894,0.234244,0.93533
1079,1102,3.33186,-0.0217869,0.233845,0.935884
1081,1100,3.33286,-0.0224914,0.232917,0.935337
1083,1098,3.3304,-0.0262629,0.234512,0.935354
1085,1096,3.3308,-0.026966,0.234512,0.935051
1087,1094,3.33112,-0.0249357,0.233722,0.935178
1089,1092,3.33229,-0.0286622,0.233153,0.935156
1091,1090,3.33093,-0.0275549,0.233451,0.934398
1093,1088,3.33093,-0.031412,0.233846,0.934929
1095,1086,3.33293,-0.02637,0.232345,0.934011
1097,1084,3.33306,-0.0265764,0.232346,0.933923
1099,1082,3.33287,-0.0265728,0.232343,0.933915
1101,1080,3.3321,-0.028349,0.232735,0.934128
1103,1078,3.33105,-0.0292891,0.23333,0.933481
1105,1076,3.33135,-0.0256025,0.232732,0.932848
1107,1074,3.33108,-0.0277599,0.23293,0.931714
1109,1072,3.3314,-0.0262378,0.232733,0.932578
1111,1070,3.33189,-0.0281396,0.232734,0.932981
1113,1068,3.33103,-0.0281723,0.233128,0.932736
1115,1066,3.33298,-0.0229079,0.231036,0.932343
1117,1064,3.33086,-0.0289279,0.233129,0.932399
1119,1062,3.33096,-0.025921,0.232732,0.931472
1121,1060,3.33108,-0.0277265,0.232732,0.931926
1123,1058,3.33046,-0.0297615,0.23313,0.932052
1125,1056,3.33231,-0.0247825,0.231623,0.931064
1127,1054,3.33247,-0.0229294,0.231232,0.930895
1129,1052,3.33338,-0.0210278,0.230447,0.930952
1131,1050,3.33226,-0.02362,0.231232,0.93058
1133,1048,3.33236,-0.0236855,0.231231,0.930568
1135,1046,3.33184,-0.025608,0.231623,0.930727
1137,1044,3.33256,-0.0223912,0.230838,0.930139
1139,1042,3.33196,-0.0243592,0.231231,0.930275
1141,1040,3.33191,-0.02517,0.231231,0.929919
1143,1038,3.33147,-0.0251564,0.231626,0.929704
1145,1036,3.33184,-0.0250855,0.231231,0.929962
1147,1034,3.33133,-0.023995,0.231229,0.928981
1149,1032,3.33126,-0.0239405,0.231231,0.929216
1151,1030,3.33304,-0.0210761,0.230119,0.92832
1153,1028,3.3328,-0.0211353,0.230118,0.928292
1155,1026,3.33291,-0.0284946,0.229727,0.928598
1157,1024,3.33289,-0.0284922,0.229726,0.928608
1159,1022,3.33262,-0.0219448,0.230117,0.927934
1161,1020,3.33201,-0.0217253,0.230119,0.928038
1163,1018,3.33235,-0.0225779,0.230117,0.927662
1165,1016,3.33174,-0.0226235,0.230074,0.927407
1167,1014,3.33121,-0.0309648,0.23051,0.927071
1169,1012,3.33126,-0.0308831,0.230509,0.927095
1171,1010,3.33268,-0.0159382,0.229568,0.926771
1173,1008,3.33129,-0.027813,0.230416,0.926191
1175,1006,3.33094,-0.0315765,0.230509,0.926799
1177,1004,3.33336,-0.0260338,0.228614,0.926297
1179,1002,3.33269,-0.0286473,0.229395,0.925931
1181,1000,3.33253,-0.0285511,0.229394,0.925959
1183,998,3.33325,-0.0286751,0.228999,0.926129
1185,996,3.33185,-0.0257798,0.228999,0.925161
1187,994,3.33231,-0.0275506,0.229,0.925381
1189,992,3.3326,-0.0296067,0.229095,0.925501
1191,990,3.33171,-0.0263381,0.228996,0.924668
1193,988,3.33133,-0.0264415,0.228997,0.924627
1195,986,3.33212,-0.0264418,0.228605,0.924854
1197,984,3.3315,-0.0271333,0.228999,0.924326
1199,982,3.33128,-0.0290735,0.229394,0.924505
1201,980,3.33131,-0.029876,0.229393,0.92415
1203,978,3.33077,-0.0279958,0.229389,0.923718
1205,976,3.33065,-0.0297933,0.22947,0.92418
1207,974,3.33287,-0.0250257,0.22788,0.923089
1209,972,3.33287,-0.0230363,0.227487,0.922955
1211,970,3.33167,-0.0257931,0.22827,0.922521
1213,968,3.33285,-0.0238963,0.227486,0.922567
1215,966,3.33227,-0.0257454,0.227877,0.922767
1217,964,3.33203,-0.0245645,0.227876,0.92204
1219,962,3.33155,-0.0266189,0.228264,0.922131
1221,960,3.33312,-0.0212326,0.226554,0.921548
1223,958,3.33296,-0.0211675,0.226996,0.92157
1225,956,3.33251,-0.0221713,0.226944,0.920906
1227,954,3.3319,-0.0238716,0.22748,0.921319
1229,952,3.33047,-0.0265984,0.228267,0.92092
1231,950,3.33374,-0.0203893,0.225979,0.920934
1233,948,3.33315,-0.0212458,0.22637,0.92034
1235,946,3.33306,-0.0213361,0.226039,0.920287
1237,944,3.33296,-0.023894,0.226754,0.92018
1239,942,3.3319,-0.0220328,0.226552,0.91995
1241,940,3.33111,-0.0244039,0.227336,0.919709
1243,938,3.33178,-0.0301076,0.226752,0.919539
1245,936,3.33369,-0.0194729,0.225432,0.918917
1247,934,3.33248,-0.0218843,0.22651,0.918642
1249,932,3.33316,-0.0197319,0.225431,0.918808
1251,930,3.33251,-0.0201872,0.225819,0.918365
1253,928,3.33308,-0.0202143,0.225428,0.918579
1255,926,3.33235,-0.0228989,0.226211,0.9182
1257,924,3.33164,-0.0214788,0.226506,0.917568
1259,922,3.33263,-0.0215926,0.226025,0.917541
1261,920,3.33211,-0.0298,0.226017,0.917291
1263,918,3.33229,-0.0277482,0.22563,0.917178
1265,916,3.33181,-0.0229871,0.226413,0.916628
1267,914,3.33171,-0.030674,0.226415,0.916692
1269,912,3.33352,-0.0190861,0.224693,0.916695
1271,910,3.33137,-0.02947,0.226018,0.916192
1273,908,3.33113,-0.0294214,0.226019,0.916212
1275,906,3.332308,-0.0283268,0.225083,0.915769
1277,904,3.33269,-0.0264131,0.224689,0.915582
1279,902,3.33239,-0.0273482,0.225337,0.914949
1281,900,3.3317,-0.0253181,0.22469,0.914822
1283,898,3.3332,-0.0251184,0.224112,0.915141
1285,896,3.33104,-0.0276744,0.225077,0.914806
1287,894,3.33057,-0.0284696,0.225473,0.914237
1289,892,3.33145,-0.0284469,0.225282,0.914249
1291,890,3.33176,-0.0268713,0.224891,0.913923
1293,888,3.33158,-0.0276026,0.224891,0.913607
1295,886,3.33147,-0.0256395,0.224576,0.913442
1297,884,3.33069,-0.028417,0.225281,0.913028
1299,882,3.33107,-0.0283737,0.224889,0.913273
1301,880,3.33303,-0.0234101,0.223375,0.912261
1303,878,3.33274,-0.0253647,0.224209,0.912436
1305,876,3.33261,-0.0254058,0.223765,0.912405
1307,874,3.33185,-0.0262685,0.224157,0.911812
1309,872,3.33267,-0.0241863,0.223377,0.911941
1311,870,3.33175,-0.0250012,0.223764,0.911342
1313,868,3.33196,-0.025075,0.223763,0.911309
1315,866,3.33116,-0.0258052,0.224155,0.910772
1317,864,3.33134,-0.0257974,0.223763,0.911018
1319,862,3.33133,-0.0246678,0.223762,0.910265
1321,860,3.33098,-0.0246725,0.223764,0.910262
1323,858,3.33278,-0.0215851,0.222634,0.909414
1325,856,3.33324,-0.0215918,0.222248,0.909656
1327,854,3.33232,-0.022515,0.222635,0.909032
1329,852,3.33182,-0.0300407,0.222634,0.90912
1331,850,3.33258,-0.0299826,0.222243,0.909364
1333,848,3.33209,-0.0232103,0.222632,0.908719
1335,846,3.3315,-0.0308885,0.222633,0.908751
1337,844,3.33091,-0.031573,0.223024,0.908235
1339,842,3.3306,-0.0317263,0.223022,0.908172
1341,840,3.33099,-0.030494,0.222629,0.907675
1343,838,3.3309,-0.0247339,0.223025,0.907852
1345,836,3.33241,-0.0294527,0.221891,0.907
1347,834,3.33218,-0.0294957,0.221891,0.906986
1349,832,3.3322,-0.0282971,0.221502,0.906495
1351,830,3.33187,-0.0270969,0.221501,0.905757
1353,828,3.3316,-0.0291382,0.221891,0.905898
1355,826,3.332,-0.0270857,0.221111,0.906008
1357,824,3.33127,-0.0277681,0.2215,0.905464
1359,822,3.33115,-0.0278351,0.221498,0.905444
1361,820,3.33095,-0.0306744,0.221888,0.905243
1363,818,3.33091,-0.03068,0.221887,0.903927
1365,816,3.33267,-0.025577,0.220365,0.904246
1367,814,3.33205,-0.0276563,0.220753,0.904364
1369,812,3.33205,-0.0264993,0.220751,0.903615
1371,810,3.33222,-0.0263187,0.220363,0.90393
1373,808,3.33165,-0.0272643,0.22075,0.903293
1375,806,3.33142,-0.0272586,0.220751,0.903296
1377,804,3.33097,-0.0262131,0.22075,0.902501
1379,802,3.33114,-0.0259412,0.220359,0.90285
1381,800,3.3309,-0.0249123,0.220359,0.902044
1383,798,3.33319,-0.0218346,0.218836,0.901432
1385,796,3.33273,-0.0237792,0.21918,0.901613
1387,794,3.33295,-0.0216719,0.218836,0.901745
1389,792,3.33217,-0.0225513,0.219223,0.900897
1391,790,3.33304,-0.022607,0.218835,0.901102
1393,788,3.33198,-0.0234183,0.219221,0.900551
1395,786,3.33171,-0.0234469,0.219223,0.900515
1397,784,3.33086,-0.0320384,0.21961,0.899954
1399,782,3.33089,-0.0321185,0.219608,0.899914
1401,780,3.33075,-0.0327448,0.219607,0.899653
1403,778,3.33059,-0.0249289,0.219607,0.89965
1405,776,3.33306,-0.0296904,0.21808,0.899032
1407,774,3.33275,-0.0218902,0.21808,0.899011
1409,772,3.33195,-0.0303979,0.218466,0.898499
1411,770,3.33112,-0.0286799,0.218467,0.898229
1413,768,3.33132,-0.0293963,0.218466,0.897682
1415,766,3.33159,-0.0312707,0.218467,0.898138
1417,764,3.33189,-0.0243319,0.217876,0.897256
1419,762,3.33132,-0.022458,0.217876,0.896789
1421,760,3.33041,-0.0310159,0.218853,0.896764
1423,758,3.33261,-0.0252124,0.216935,0.89628
1425,756,3.33267,-0.0258502,0.216932,0.895995
1427,754,3.33192,-0.0257938,0.216932,0.896022
1429,752,3.3319,-0.0267496,0.21732,0.895387
1431,750,3.33202,-0.0286586,0.217319,0.895819
1433,748,3.33149,-0.0275287,0.217318,0.895059
1435,746,3.33118,-0.0274691,0.217319,0.895081
1437,744,3.3304,-0.0303989,0.218097,0.894644
1439,742,3.33015,-0.0293029,0.218096,0.89386
1441,740,3.33024,-0.0291984,0.217708,0.894142
1443,738,3.33258,-0.0231466,0.215785,0.893746
1445,736,3.33256,-0.0260233,0.216174,0.89355
1447,734,3.33179,-0.0269126,0.216557,0.892933
1449,732,3.3318,-0.024774,0.216169,0.892823
1451,730,3.3316,-0.0256078,0.216167,0.892446
1453,728,3.33103,-0.0260931,0.216551,0.892012
1455,726,3.3324,-0.0206257,0.214801,0.891362
1457,724,3.33039,-0.0244891,0.216163,0.891685
1459,722,3.33005,-0.0251375,0.216807,0.891176
1461,720,3.33244,-0.0242825,0.215406,0.890613
1463,718,3.33191,-0.0241809,0.215403,0.890651
1465,716,3.33168,-0.0243668,0.215405,0.890592
1467,714,3.33116,-0.0229901,0.215403,0.890162
1469,712,3.33087,-0.0316293,0.215402,0.889629
1471,710,3.33102,-0.0317993,0.215403,0.889567
1473,708,3.33002,-0.032652,0.215794,0.888982
1475,706,3.33031,-0.0313221,0.2154,0.888516
1477,704,3.32975,-0.0332823,0.21579,0.888704
1479,702,3.33189,-0.0283039,0.214247,0.887606
1481,700,3.33189,-0.0287892,0.214246,0.887401
1483,698,3.33102,-0.0311575,0.214635,0.887435
1485,696,3.32984,-0.0275582,0.214411,0.886656
1487,694,3.33261,-0.0233681,0.212482,0.886704
1489,692,3.33236,-0.0263378,0.21287,0.886486
1491,690,3.33161,-0.0272003,0.213251,0.885875
1493,688,3.33136,-0.027206,0.213252,0.885881
1495,686,3.33087,-0.0260263,0.213315,0.885118
1497,684,3.33108,-0.0257955,0.212864,0.885447
1499,682,3.33049,-0.0267089,0.213254,0.884858
1501,680,3.33092,-0.0251164,0.212866,0.88451
1503,678,3.33134,-0.0279798,0.213336,0.884351
1505,676,3.33065,-0.0259163,0.213085,0.883956
1507,674,3.33178,-0.0232063,0.212092,0.882897
1509,672,3.3318,-0.0237028,0.212094,0.882714
1511,670,3.33116,-0.0258106,0.212476,0.882833
1513,668,3.33039,-0.0242246,0.212473,0.882226
1515,666,3.33051,-0.0227662,0.212088,0.881833
1517,664,3.33045,-0.0232357,0.212153,0.881652
1519,662,3.32996,-0.0256693,0.212475,0.881652
1521,660,3.33229,-0.0205291,0.210923,0.880577
1523,658,3.33182,-0.0206312,0.210923,0.880536
1525,656,3.33149,-0.021208,0.210921,0.880301
1527,654,3.33083,-0.0280443,0.210921,0.879563
1529,652,3.33086,-0.0221758,0.211747,0.879677
1531,650,3.33051,-0.0310561,0.211308,0.879336
1533,648,3.33208,-0.022924,0.210762,0.879626
1535,646,3.32967,-0.0319147,0.211759,0.878772
1537,644,3.33046,-0.0307393,0.211149,0.878264
1539,642,3.32979,-0.0309832,0.211534,0.877931
1541,640,3.33139,-0.0254645,0.209754,0.877223
1543,638,3.33134,-0.0294802,0.21014,0.877652
1545,636,3.33129,-0.0288657,0.210613,0.876621
1547,634,3.33132,-0.0292218,0.210366,0.876478
1549,632,3.32931,-0.0299757,0.210915,0.87593
1551,630,3.32954,-0.0259328,0.210139,0.875562
1553,628,3.33017,-0.0287524,0.210367,0.875444
1555,626,3.33038,-0.0292843,0.210367,0.875221
1557,624,3.33132,-0.0255792,0.20897,0.874806
1559,622,3.33036,-0.0264345,0.209356,0.874215
1561,620,3.33081,-0.0243953,0.208969,0.874033
1563,618,3.3312,-0.0247715,0.208874,0.873888
1565,616,3.33137,-0.0276806,0.209197,0.873714
1567,614,3.33037,-0.0264268,0.209195,0.872987
1569,612,3.3304,-0.0285106,0.209583,0.873151
1571,610,3.32985,-0.0272908,0.209585,0.872414
1573,608,3.32873,-0.0282712,0.209971,0.871771
1575,606,3.33218,-0.0220541,0.207639,0.8716
1577,604,3.33012,-0.0229468,0.208178,0.870978
1579,602,3.33146,-0.0226338,0.207637,0.871362
1581,600,3.32964,-0.0318122,0.208176,0.870716
1583,598,3.33238,-0.0204482,0.206616,0.870057
1585,596,3.32997,-0.0250511,0.208404,0.869896
1587,594,3.33122,-0.0213417,0.207279,0.869474
1589,592,3.33021,-0.0300568,0.207386,0.869023
1591,590,3.33027,-0.0302078,0.207,0.869209
1593,588,3.33119,-0.0310986,0.207294,0.868624
1595,586,3.33094,-0.0319832,0.207234,0.868272
1597,584,3.32995,-0.0329125,0.207619,0.867673
1599,582,3.33038,-0.0288348,0.206847,0.867311
1601,580,3.3294,-0.0296425,0.207233,0.866998
1603,578,3.32952,-0.0282626,0.206845,0.866296
1605,576,3.33129,-0.026237,0.205669,0.866191
1607,574,3.33184,-0.0249597,0.205285,0.865701
1609,572,3.33076,-0.028013,0.206053,0.865245
1611,570,3.33027,-0.0280405,0.206052,0.865224
1613,568,3.33061,-0.0266377,0.205667,0.864785
1615,566,3.33069,-0.0256694,0.205293,0.863989
1617,564,3.33138,-0.021352,0.204247,0.863706
1619,562,3.32859,-0.0305682,0.206821,0.863721
1621,560,3.33156,-0.0263892,0.204868,0.863712
1623,558,3.33061,-0.0273188,0.205254,0.863102
1625,556,3.33002,-0.0260418,0.205252,0.862372
1627,554,3.3299,-0.0249662,0.205252,0.861568
1629,552,3.3295,-0.0257372,0.205253,0.861262
1631,550,3.32852,-0.0328023,0.205252,0.860531
1633,548,3.32884,-0.0325775,0.204866,0.860856
1635,546,3.33085,-0.0305757,0.203678,0.86071
1637,544,3.33057,-0.0319669,0.204062,0.859923
1639,542,3.33017,-0.0237235,0.20406,0.859874
1641,540,3.32865,-0.0308225,0.204206,0.859115
1643,538,3.3299,-0.0297816,0.203404,0.858368
1645,536,3.33078,-0.0274863,0.202633,0.858519
1647,534,3.33026,-0.0300489,0.203076,0.85851
1649,532,3.32914,-0.0304834,0.203399,0.858087
1651,530,3.32888,-0.0292857,0.2034,0.85732
1653,528,3.32863,-0.0299839,0.203398,0.857044
1655,526,3.32842,-0.0301237,0.2034,0.857249
1657,524,3.32726,-0.0331087,0.204174,0.855298
1659,522,3.32849,-0.0298781,0.203642,0.855622
1661,520,3.32952,-0.0265209,0.202207,0.855017
1663,518,3.32822,-0.0288376,0.203254,0.855048
1665,516,3.33055,-0.0277239,0.202062,0.854549
1667,514,3.32896,-0.027576,0.202205,0.854608
1669,512,3.32891,-0.0281329,0.202202,0.854387
1671,510,3.33048,-0.0225928,0.200619,0.853384
1673,508,3.32849,-0.0255013,0.202055,0.852925
1675,506,3.32954,-0.023492,0.201003,0.852777
1677,504,3.32969,-0.0243788,0.201002,0.852438
1679,502,3.32946,-0.025142,0.200997,0.852137
1681,500,3.32799,-0.0284558,0.202159,0.851344
1683,498,3.32787,-0.026216,0.201769,0.851218
1685,496,3.32704,-0.0250652,0.201769,0.85043
1687,494,3.32946,-0.0215517,0.200179,0.849861
1689,492,3.33015,-0.0215025,0.199797,0.850144
1691,490,3.32933,-0.0224066,0.200178,0.849547
1693,488,3.32816,-0.0255506,0.200958,0.849085
1695,486,3.32969,-0.0237592,0.200431,0.848788
1697,484,3.32814,-0.0333299,0.20082,0.848164
1699,482,3.32806,-0.0340102,0.201093,0.847919
1701,480,3.32723,-0.0349187,0.201208,0.847324
1703,478,3.32713,-0.0350014,0.201205,0.847272
1705,476,3.32715,-0.0335275,0.200815,0.846844
1707,474,3.32781,-0.0326418,0.200134,0.846012
1709,472,3.32757,-0.0241185,0.200136,0.845986
1711,470,3.32707,-0.031168,0.200016,0.845587
1713,468,3.32691,-0.0321388,0.199996,0.844963
1715,466,3.32913,-0.0264249,0.198147,0.84424
1717,464,3.3269,-0.0328919,0.199995,0.844696
1719,462,3.32857,-0.0295823,0.198534,0.844044
1721,460,3.32867,-0.0283087,0.198401,0.843294
1723,458,3.32811,-0.0269924,0.1984,0.842388
1725,456,3.32809,-0.02562,0.198012,0.842083
1727,454,3.3273,-0.0265194,0.198398,0.841505
1729,452,3.32765,-0.0264091,0.19801,0.841794
1731,450,3.3269,-0.0274173,0.198397,0.841166
1733,448,3.32877,-0.0240064,0.197454,0.840296
1735,446,3.32812,-0.026312,0.197573,0.840413
1737,444,3.3285,-0.0248378,0.197187,0.839994
1739,442,3.32714,-0.0281419,0.197958,0.83946
1741,440,3.32727,-0.0343867,0.197569,0.839393
1743,438,3.32639,-0.0268573,0.197957,0.83872
1745,436,3.32636,-0.0276097,0.197957,0.838435
1747,434,3.32826,-0.0242931,0.196962,0.837515
1749,432,3.32792,-0.0242855,0.196739,0.837515
1751,430,3.3272,-0.0337283,0.19674,0.837257
1753,428,3.32673,-0.0346575,0.197127,0.836657
1755,426,3.32659,-0.0348133,0.197127,0.836599
1757,424,3.3267,-0.026797,0.197126,0.835107
1759,422,3.32535,-0.027912,0.197516,0.83566
1761,420,3.3273,-0.0332566,0.196513,0.834765
1763,418,3.32722,-0.0318533,0.195903,0.834308
1765,416,3.32666,-0.0340988,0.196291,0.834455
1767,414,3.32623,-0.0327501,0.196289,0.833723
1769,412,3.32559,-0.0336776,0.196284,0.833391
1771,410,3.3254,-0.0324212,0.19629,0.832622
1773,408,3.32775,-0.0288406,0.194676,0.832035
1775,406,3.32693,-0.0310154,0.195065,0.832231
1777,404,3.327,-0.0275895,0.194675,0.831279
1779,402,3.32655,-0.0307263,0.195063,0.831098
1781,400,3.32547,-0.0316202,0.195453,0.830513
1783,398,3.32629,-0.0314935,0.195111,0.830822
1785,396,3.32708,-0.0281449,0.194221,0.829623
1787,394,3.32725,-0.0291963,0.194222,0.829243
1789,392,3.32647,-0.0277677,0.194221,0.828538
1791,390,3.32631,-0.0255348,0.193828,0.828222
1793,388,3.32643,-0.0263283,0.193827,0.828091
1795,386,3.32594,-0.02955,0.194218,0.827881
1797,384,3.32512,-0.0281754,0.194217,0.827166
1799,382,3.3268,-0.0337466,0.192984,0.826219
1801,380,3.32715,-0.0335506,0.192594,0.826543
1803,378,3.32646,-0.0256855,0.192981,0.825901
1805,376,3.32632,-0.0354218,0.19298,0.82585
1807,374,3.32488,-0.0365154,0.19337,0.824954
1809,372,3.32487,-0.036426,0.193367,0.824975
1811,370,3.32685,-0.030735,0.191741,0.823911
1813,368,3.32618,-0.0316212,0.192129,0.823341
1815,366,3.32578,-0.0325266,0.192128,0.823025
1817,364,3.3253,-0.0311971,0.192127,0.822264
1819,362,3.32537,-0.0309722,0.191737,0.8226
1821,360,3.3248,-0.0320764,0.192124,0.821949
1823,358,3.32733,-0.0284908,0.190495,0.821338
1825,356,3.3262,-0.0294382,0.190884,0.82074
1827,354,3.32654,-0.028017,0.19054,0.820288
1829,352,3.32561,-0.0290008,0.190881,0.819673
1831,350,3.32496,-0.0289965,0.19088,0.819668
1833,348,3.32445,-0.0365861,0.19088,0.818963
1835,346,3.32443,-0.0284796,0.19114,0.818638
1837,344,3.32716,-0.0249533,0.189246,0.818
1839,342,3.32628,-0.0259442,0.189632,0.817174
1841,340,3.32578,-0.0258856,0.189631,0.8174
1843,338,3.32502,-0.0270725,0.190018,0.816717
1845,336,3.32365,-0.0370638,0.190408,0.816127
1847,334,3.32375,-0.0355103,0.190017,0.815707
1849,332,3.326,-0.034227,0.188766,0.815238
1851,330,3.3261,-0.0320228,0.188377,0.815057
1853,328,3.32474,-0.035321,0.189152,0.814594
1855,326,3.32473,-0.0316016,0.188762,0.813711
1857,324,3.32406,-0.0348677,0.189151,0.81353
1859,322,3.3236,-0.0334197,0.18915,0.812814
1861,320,3.32594,-0.0290447,0.187506,0.812276
1863,318,3.32588,-0.029834,0.187505,0.81219
1865,316,3.32518,-0.0285975,0.187505,0.81139
1867,314,3.32392,-0.031931,0.188283,0.810924
1869,312,3.32473,-0.0325415,0.187891,0.810983
1871,310,3.32314,-0.0351338,0.188673,0.810762
1873,308,3.32239,-0.0361687,0.189062,0.810132
1875,306,3.32403,-0.0256644,0.187544,0.809354
1877,304,3.32463,-0.0287366,0.187218,0.808648
1879,302,3.3249,-0.0285211,0.186632,0.809006
1881,300,3.32411,-0.0296623,0.187017,0.80834
1883,298,3.32488,-0.0191016,0.185885,0.807284
1885,296,3.32556,-0.0223313,0.186021,0.80713
1887,294,3.32494,-0.0209188,0.186019,0.806394
1889,292,3.32467,-0.0234592,0.186406,0.806455
1891,290,3.32538,-0.0198421,0.185389,0.805524
1893,288,3.32436,-0.0367382,0.18588,0.805444
1895,286,3.32379,-0.0284286,0.186135,0.805115
1897,284,3.32189,-0.0385797,0.186914,0.804274
1899,282,3.32433,-0.0273208,0.185643,0.803981
1901,280,3.32433,-0.0258049,0.18525,0.803561
1903,278,3.32248,-0.0313682,0.185777,0.803278
1905,276,3.32315,-0.0231912,0.185914,0.802615
1907,274,3.32226,-0.0357167,0.185642,0.801896
1909,272,3.32386,-0.0287945,0.185022,0.802292
1911,270,3.32259,-0.0366008,0.185384,0.801592
1913,268,3.32449,-0.0258274,0.183853,0.800837
1915,266,3.32161,-0.0385279,0.185774,0.800664
1917,264,3.32366,-0.032473,0.183972,0.799888
1919,262,3.3226,-0.0359436,0.184751,0.799383
1921,260,3.32223,-0.0359245,0.184749,0.7994
1923,258,3.32447,-0.0299776,0.183076,0.79829
1925,256,3.32429,-0.030793,0.18311,0.798005
1927,254,3.32323,-0.0318526,0.183462,0.797379
1929,252,3.32484,-0.0280284,0.181873,0.796762
1931,250,3.3232,-0.0307456,0.183069,0.796804
1933,248,3.32226,-0.0314476,0.183457,0.796278
1935,246,3.32432,-0.0300748,0.18217,0.795803
1937,244,3.3242,-0.028643,0.18217,0.795067
1939,242,3.32324,-0.0273698,0.18217,0.794276
1941,240,3.32325,-0.0299527,0.182168,0.794631
1943,238,3.32184,-0.0387008,0.182688,0.7934
1945,236,3.3225,-0.0291045,0.182167,0.793708
1947,234,3.32464,-0.0254596,0.180875,0.792755
1949,232,3.32314,-0.0360803,0.181265,0.792118
1951,230,3.32365,-0.0274018,0.181267,0.79184
1953,228,3.32212,-0.0354644,0.181263,0.791109
1955,226,3.32435,-0.0334994,0.179662,0.791088
1957,224,3.32364,-0.0322426,0.17966,0.790273
1959,222,3.32351,-0.0353244,0.180354,0.789935
1961,220,3.32303,-0.0357917,0.180355,0.789782
1963,218,3.32298,-0.0323196,0.179963,0.788772
1965,216,3.32227,-0.0357179,0.18035,0.788585
1967,214,3.32235,-0.0337134,0.180145,0.788308
1969,212,3.321,-0.0369058,0.18074,0.787919
1971,210,3.324,-0.0305855,0.178656,0.787177
1973,208,3.32351,-0.0289991,0.178658,0.786499
1975,206,3.3231,-0.0325347,0.179048,0.786288
1977,204,3.32218,-0.0335676,0.179439,0.785676
1979,202,3.32232,-0.0320818,0.179047,0.78523
1981,200,3.32171,-0.0345351,0.179436,0.785601
1983,198,3.32424,-0.0258344,0.177349,0.784171
1985,196,3.32274,-0.0294143,0.178128,0.783654
1987,194,3.32324,-0.0278174,0.177737,0.783243
1989,192,3.32214,-0.0289379,0.178122,0.782584
1991,190,3.3215,-0.0314525,0.178515,0.782701
1993,188,3.32123,-0.032297,0.178514,0.78243
1995,186,3.32384,-0.0355811,0.176418,0.781699
1997,184,3.3231,-0.0270361,0.177053,0.781026
1999,182,3.32268,-0.0304599,0.177195,0.780848
2001,180,3.32202,-0.0361951,0.176801,0.779994
2003,178,3.32361,-0.0242723,0.175559,0.779722
2005,176,3.3233,-0.025547,0.175558,0.77933
2007,174,3.32394,-0.0340244,0.175483,0.778548
2009,172,3.32102,-0.03716,0.176337,0.778184
2011,170,3.32177,-0.0375918,0.176262,0.778051
2013,168,3.32265,-0.0339085,0.17548,0.777378
2015,166,3.32107,-0.037641,0.176696,0.776841
2017,164,3.32094,-0.037578,0.176261,0.776869
2019,162,3.32325,-0.0288058,0.174155,0.775643
2021,160,3.32282,-0.0321907,0.174544,0.775491
2023,158,3.32272,-0.0282892,0.174154,0.774596
2025,156,3.32107,-0.0345894,0.175325,0.774163
2027,154,3.32167,-0.0343007,0.174932,0.77454
2029,152,3.3216,-0.032553,0.174537,0.774166
2031,150,3.32401,-0.0264289,0.172821,0.77302
2033,148,3.32294,-0.0274952,0.173209,0.772405
2035,146,3.32228,-0.0309861,0.173596,0.772204
2037,144,3.32358,-0.0246167,0.171936,0.77112
2039,142,3.3231,-0.0354861,0.171933,0.770829
2041,140,3.32082,-0.0309228,0.173589,0.771014
2043,138,3.3225,-0.0366012,0.172427,0.770213
2045,136,3.32201,-0.0275873,0.17232,0.769902
2047,134,3.32236,-0.0380216,0.172253,0.769758
2049,132,3.32069,-0.0397979,0.173038,0.768654
2051,130,3.32068,-0.0407619,0.173036,0.768354
2053,128,3.31998,-0.0407947,0.173036,0.768348
2055,126,3.32357,-0.0342179,0.170912,0.767606
2057,124,3.32198,-0.0353529,0.171299,0.766963
2059,122,3.32206,-0.0362544,0.171297,0.766676
2061,120,3.32189,-0.0372855,0.171297,0.766359
2063,118,3.32095,-0.0398162,0.171683,0.766487
2065,116,3.32255,-0.0339212,0.170005,0.765226
2067,114,3.32211,-0.0293767,0.169616,0.764507
2069,112,3.32224,-0.0355795,0.170334,0.764436
2071,110,3.32269,-0.0313223,0.169556,0.763751
2073,108,3.32196,-0.0323482,0.16994,0.763312
2075,106,3.32168,-0.0334944,0.169939,0.762952
2077,104,3.32036,-0.0345032,0.170326,0.762357
2079,102,3.32214,-0.0295207,0.168641,0.762013
2081,100,3.32301,-0.0305068,0.168819,0.761709
2083,98,3.3221,-0.031741,0.168973,0.761042
2085,96,3.32218,-0.0299527,0.168582,0.760674
2087,94,3.321,-0.0311365,0.168969,0.760024
2089,92,3.32063,-0.0347396,0.169357,0.75983
2091,90,3.32358,-0.0373619,0.167222,0.75937
2093,88,3.32265,-0.02824,0.167607,0.758747
2095,86,3.3224,-0.0395042,0.167608,0.75843
2097,84,3.32146,-0.0304362,0.167994,0.757793
2099,82,3.32105,-0.0415275,0.168229,0.757545
2101,80,3.32104,-0.0425735,0.167992,0.757204
2103,78,3.32271,-0.0382513,0.166624,0.756358
2105,76,3.32302,-0.0359789,0.166236,0.75614
2107,74,3.32251,-0.0369717,0.166235,0.75584
2109,72,3.32152,-0.0382266,0.16662,0.755164
2111,70,3.32391,-0.0340644,0.164909,0.753126
2113,68,3.32093,-0.0375845,0.166639,0.754161
2115,66,3.32347,-0.0336523,0.164863,0.753487
2117,64,3.32133,-0.0346936,0.16529,0.752869
2119,62,3.32424,-0.0302177,0.163525,0.752329
2121,60,3.32194,-0.0356621,0.165243,0.752582
2123,58,3.32143,-0.0342978,0.165241,0.751792
2125,56,3.32336,-0.0307442,0.163521,0.750974
2127,54,3.32345,-0.0292244,0.163479,0.750246
2129,52,3.3228,-0.0400082,0.163479,0.750123
2131,50,3.32282,-0.0307454,0.163476,0.749793
2133,48,3.32242,-0.0419887,0.163474,0.749524
2135,46,3.32171,-0.0431254,0.163857,0.74891
2137,44,3.32436,-0.0354659,0.161711,0.748404
2139,42,3.32427,-0.0390205,0.16209,0.748263
2141,40,3.3233,-0.0402318,0.162468,0.747602
2143,38,3.32266,-0.0412188,0.162469,0.747319
2145,36,3.3223,-0.0397606,0.16247,0.746551
2147,34,3.3217,-0.0434359,0.163,0.746366
2149,32,3.32466,-0.0341849,0.160697,0.745128
2151,30,3.32394,-0.0340375,0.160695,0.745181
2153,28,3.32232,-0.0378904,0.16111,0.744937
2155,26,3.32494,-0.0316897,0.159329,0.743683
2157,24,3.32338,-0.0370899,0.160689,0.744269
2159,22,3.32224,-0.0384201,0.161072,0.74359
2161,20,3.32534,-0.0316089,0.158918,0.742827
2163,18,3.32494,-0.0299432,0.158919,0.742123
2165,16,3.324,-0.0336232,0.159434,0.741944
2167,14,3.32307,-0.0426046,0.159292,0.74119
2169,12,3.32369,-0.0347583,0.159289,0.741611
2171,10,3.32599,-0.0385207,0.157514,0.740532
2173,8,3.32551,-0.0405509,0.157515,0.739945
2175,6,3.32503,-0.0381682,0.157513,0.739441
2177,4,3.32614,-0.0286384,0.156225,0.738831
2178,3,3.32436,-0.0390217,0.157733,0.739208