File: hust_correlation_analysis/matrices/HUST_4-6_cycle_feature_matrix.csv
cycle_number,rul,voltage,current,capacity,charge_capacity
1,1382,3.31781,-0.00832406,0.305808,1.0178
3,1380,3.30593,-0.00920276,0.310568,1.0126
5,1378,3.30571,-0.0103443,0.310567,1.01196
7,1376,3.30603,-0.00948947,0.310133,1.01137
9,1374,3.30589,-0.0115494,0.310128,1.01147
11,1372,3.3077,-0.00905718,0.308901,1.01092
13,1370,3.30784,-0.00966767,0.308898,1.01056
15,1368,3.3079,-0.0103699,0.308903,1.01018
17,1366,3.3081,-0.0102386,0.308467,1.01044
19,1364,3.30749,-0.0109599,0.308906,1.00986
21,1362,3.3073,-0.0115365,0.308896,1.00952
23,1360,3.30935,-0.00846614,0.306764,1.00948
25,1358,3.30888,-0.00905606,0.30768,1.00899
27,1356,3.30928,-0.00962668,0.307245,1.00883
29,1354,3.30911,-0.00963744,0.307241,1.00882
31,1352,3.30897,-0.00968686,0.307318,1.00877
33,1350,3.30892,-0.0102903,0.307233,1.00842
35,1348,3.30888,-0.0103681,0.307231,1.00838
37,1346,3.30863,-0.0109367,0.307229,1.00804
39,1344,3.30849,-0.0109119,0.307235,1.00807
41,1342,3.30865,-0.0115845,0.307223,1.00767
43,1340,3.30831,-0.0116119,0.307226,1.00765
45,1338,3.31015,-0.00852254,0.305997,1.00743
47,1336,3.31007,-0.00905099,0.306086,1.00712
49,1334,3.30997,-0.00909016,0.305994,1.00709
51,1332,3.30983,-0.0097496,0.306005,1.00674
53,1330,3.30961,-0.00986397,0.305995,1.00665
55,1328,3.30983,-0.0103052,0.305991,1.00639
57,1326,3.3096,-0.0102773,0.305988,1.0064
59,1324,3.30959,-0.0103827,0.305993,1.00635
61,1322,3.30954,-0.0109666,0.305991,1.00601
63,1320,3.30942,-0.0109683,0.305979,1.00599
65,1318,3.30944,-0.0112863,0.305985,1.00581
67,1316,3.30922,-0.0115626,0.306258,1.00565
69,1314,3.31109,-0.00844042,0.304764,1.00547
71,1312,3.31095,-0.00910872,0.304762,1.00507
73,1310,3.31067,-0.00904023,0.304756,1.00511
75,1308,3.31066,-0.00928239,0.305351,1.00497
77,1306,3.31067,-0.00971095,0.304763,1.00474
79,1304,3.31039,-0.0104366,0.305197,1.00416
81,1302,3.31006,-0.0104306,0.305197,1.00417
83,1300,3.30995,-0.0104043,0.305309,1.00416
85,1298,3.31018,-0.0109606,0.305197,1.00384
87,1296,3.30999,-0.0109471,0.305183,1.00382
89,1294,3.30978,-0.011158,0.305195,1.00399
91,1292,3.30999,-0.0115547,0.305185,1.00347
93,1290,3.30982,-0.0116081,0.305189,1.00346
95,1288,3.30953,-0.0115928,0.305185,1.00346
97,1286,3.31151,-0.00916524,0.303966,1.00285
99,1284,3.31138,-0.00907351,0.303973,1.00294
101,1282,3.31151,-0.00973149,0.304246,1.00255
103,1280,3.31079,-0.00984247,0.304405,1.00232
105,1278,3.31099,-0.00975268,0.303974,1.00255
107,1276,3.31118,-0.00968258,0.303964,1.00257
109,1274,3.31081,-0.0103928,0.304393,1.00198
111,1272,3.31063,-0.0104561,0.304401,1.0017
113,1270,3.31069,-0.0104737,0.3044,1.00194
115,1268,3.31072,-0.0110431,0.304393,1.0016
117,1266,3.3105,-0.0110377,0.304393,1.00161
119,1264,3.31027,-0.0110683,0.304393,1.0016
121,1262,3.31038,-0.0115793,0.304401,1.00131
123,1260,3.31023,-0.0116135,0.304399,1.0013
125,1258,3.31199,-0.00850766,0.303177,1.00109
127,1256,3.31159,-0.00923316,0.303609,1.00049
129,1254,3.31181,-0.00911928,0.303177,1.00074
131,1252,3.31165,-0.0091274,0.303178,1.00072
133,1250,3.31126,-0.00924104,0.303601,1.00047
135,1248,3.31136,-0.00981278,0.303597,1.00013
137,1246,3.3117,-0.00977717,0.303173,1.00035
139,1244,3.31159,-0.00972303,0.303172,1.00037
141,1242,3.31138,-0.0104378,0.3036,0.999774
143,1240,3.3113,-0.0103839,0.303596,0.999811
145,1238,3.31111,-0.0104288,0.303604,0.999804
147,1236,3.31121,-0.0110301,0.30388,0.999459
149,1234,3.31087,-0.011039,0.303612,0.999471
151,1232,3.31071,-0.0110418,0.303612,0.999472
153,1230,3.31048,-0.0117097,0.304041,0.998909
155,1228,3.3106,-0.0115916,0.303605,0.999145
157,1226,3.31005,-0.0116855,0.304041,0.998914
159,1224,3.31044,-0.0116037,0.303538,0.999146
161,1222,3.31212,-0.00920585,0.302826,0.99836
163,1220,3.31193,-0.00924515,0.302817,0.998313
165,1218,3.31179,-0.00918785,0.302816,0.998349
167,1216,3.31202,-0.0092385,0.302814,0.99858
169,1214,3.31194,-0.0098087,0.30282,0.998008
171,1212,3.31178,-0.00981738,0.302823,0.998001
173,1210,3.31187,-0.00978398,0.302822,0.99802
175,1208,3.31132,-0.0104555,0.303249,0.997454
177,1206,3.31157,-0.0104367,0.303411,0.997644
179,1204,3.31102,-0.0104609,0.303261,0.997481
181,1202,3.31123,-0.0111185,0.303525,0.997067
183,1200,3.31103,-0.0110605,0.303248,0.997092
185,1198,3.31092,-0.0110983,0.303254,0.997092
187,1196,3.31072,-0.0110963,0.303252,0.997097
189,1194,3.31103,-0.0116816,0.303257,0.996756
191,1192,3.31085,-0.0116914,0.303256,0.996756
193,1190,3.31072,-0.0116837,0.303248,0.996738
195,1188,3.31056,-0.011592,0.303244,0.996789
197,1186,3.31254,-0.00887974,0.302035,0.996348
199,1184,3.31237,-0.00921351,0.302028,0.996148
201,1182,3.31226,-0.00923642,0.302027,0.996124
203,1180,3.31215,-0.00925192,0.302031,0.996123
205,1178,3.31202,-0.00920198,0.302026,0.996149
207,1176,3.31186,-0.00989234,0.302458,0.995591
209,1174,3.31183,-0.00985549,0.302452,0.995592
211,1172,3.31173,-0.00985503,0.302454,0.995603
213,1170,3.31203,-0.00980302,0.302025,0.995812
215,1168,3.31179,-0.0105216,0.30246,0.995228
217,1166,3.31167,-0.0105382,0.302456,0.995215
219,1164,3.3115,-0.0104939,0.302463,0.995248
221,1162,3.31157,-0.01054,0.302452,0.995212
223,1160,3.31153,-0.0111202,0.302462,0.994886
225,1158,3.3114,-0.0110763,0.30245,0.994904
227,1156,3.31114,-0.0110886,0.302458,0.995144
229,1154,3.31099,-0.0111485,0.302456,0.994854
231,1152,3.31111,-0.0110903,0.302453,0.994886
233,1150,3.31065,-0.0115682,0.302881,0.994431
235,1148,3.31101,-0.0117509,0.302438,0.994473
237,1146,3.31054,-0.0117749,0.302874,0.994269
239,1144,3.31085,-0.0117283,0.302424,0.994704
241,1142,3.31069,-0.0117441,0.302435,0.994457
243,1140,3.31058,-0.0116614,0.302424,0.994468
245,1138,3.31233,-0.0093036,0.301637,0.993649
247,1136,3.3121,-0.00927852,0.301632,0.993632
249,1134,3.31189,-0.0093935,0.301634,0.993583
251,1132,3.31158,-0.00952499,0.301632,0.993487
253,1130,3.31217,-0.00927182,0.301203,0.993831
255,1128,3.31173,-0.00991458,0.301634,0.993275
257,1126,3.31168,-0.0099664,0.301604,0.993261
259,1124,3.31165,-0.00993345,0.301627,0.993263
261,1122,3.31177,-0.0099952,0.301633,0.993239
263,1120,3.31163,-0.010576,0.301631,0.992882
265,1118,3.31158,-0.0105415,0.301623,0.992895
267,1116,3.31146,-0.0105918,0.301636,0.992887
269,1114,3.31111,-0.0112769,0.302065,0.992322
271,1112,3.3114,-0.0112123,0.301636,0.992541
273,1110,3.31137,-0.0111102,0.301636,0.992621
275,1108,3.31087,-0.0118312,0.302061,0.992006
277,1106,3.31059,-0.0117618,0.302068,0.992054
279,1104,3.31044,-0.0118284,0.302064,0.992021
281,1102,3.31248,-0.00868444,0.300838,0.991795
283,1100,3.31245,-0.00932269,0.300841,0.991426
285,1098,3.31223,-0.00939839,0.30084,0.99138
287,1096,3.31238,-0.00934322,0.300842,0.991415
289,1094,3.31242,-0.00934008,0.300838,0.991411
291,1092,3.31176,-0.0100106,0.301272,0.990848
293,1090,3.31215,-0.00990173,0.30084,0.99109
295,1088,3.3119,-0.0105701,0.30127,0.990542
297,1086,3.31169,-0.0106195,0.301271,0.990518
299,1084,3.31146,-0.0106205,0.30127,0.990517
301,1082,3.31143,-0.0105356,0.301274,0.990575
303,1080,3.31153,-0.0111758,0.301265,0.990168
305,1078,3.31138,-0.0111905,0.301347,0.990158
307,1076,3.31137,-0.011252,0.301269,0.990135
309,1074,3.31148,-0.0112436,0.301267,0.990129
311,1072,3.31089,-0.0118764,0.301698,0.989586
313,1070,3.31063,-0.0119188,0.301695,0.989564
315,1068,3.31055,-0.0119201,0.301698,0.989561
317,1066,3.31258,-0.00938202,0.300471,0.988996
319,1064,3.31229,-0.00935512,0.30047,0.989019
321,1062,3.31217,-0.00937182,0.300478,0.989022
323,1060,3.31191,-0.0100212,0.300908,0.988468
325,1058,3.31217,-0.00994124,0.300477,0.988687
327,1056,3.31217,-0.00993722,0.300477,0.988694
329,1054,3.3123,-0.00993506,0.300739,0.988692
331,1052,3.31175,-0.010644,0.30042,0.988111
333,1050,3.31157,-0.0106721,0.301026,0.988085
335,1048,3.31148,-0.0106491,0.300906,0.988105
337,1046,3.31177,-0.0112656,0.300908,0.987749
339,1044,3.31149,-0.011243,0.300905,0.98775
341,1042,3.31119,-0.0112201,0.300908,0.98777
343,1040,3.31107,-0.0112831,0.301498,0.987748
345,1038,3.3106,-0.0119475,0.301347,0.987208
347,1036,3.31043,-0.0119941,0.301346,0.987173
349,1034,3.31286,-0.00868583,0.299809,0.987215
351,1032,3.31257,-0.00943498,0.300118,0.986598
353,1030,3.31233,-0.00942163,0.300113,0.986604
355,1028,3.31224,-0.00943181,0.300119,0.9866
357,1026,3.31246,-0.00996659,0.300114,0.986283
359,1024,3.31234,-0.0099246,0.30011,0.986301
361,1022,3.31207,-0.0100061,0.300114,0.986259
363,1020,3.31186,-0.0100138,0.300707,0.986254
365,1018,3.3115,-0.0107143,0.300464,0.985694
367,1016,3.3113,-0.0108003,0.300549,0.985646
369,1014,3.31126,-0.0106671,0.300552,0.985725
371,1012,3.31145,-0.011285,0.300554,0.985378
373,1010,3.31134,-0.0113028,0.300819,0.98537
375,1008,3.31123,-0.0112929,0.301154,0.983941
377,1006,3.31143,-0.0118985,0.300553,0.985029
379,1004,3.31123,-0.0118848,0.300556,0.985033
381,1002,3.31053,-0.0119611,0.30098,0.985013
383,1000,3.31258,-0.00939472,0.299757,0.984232
385,998,3.31233,-0.00943884,0.299751,0.984199
387,996,3.31212,-0.00951943,0.299873,0.984161
389,994,3.31202,-0.00940215,0.29975,0.984219
391,992,3.31185,-0.0101189,0.300191,0.983645
393,990,3.31209,-0.0100032,0.299762,0.98389
395,988,3.31172,-0.0100813,0.300196,0.98367
397,986,3.31179,-0.0107207,0.300281,0.983324
399,984,3.31167,-0.0106668,0.300198,0.983349
401,982,3.3117,-0.0106887,0.300455,0.983329
403,980,3.31161,-0.0112873,0.300193,0.982968
405,978,3.31128,-0.0112981,0.300195,0.982972
407,976,3.31099,-0.0114111,0.300194,0.982899
409,974,3.31103,-0.0112943,0.300189,0.982953
411,972,3.31057,-0.011988,0.300626,0.982385
413,970,3.31037,-0.0120137,0.300619,0.982353
415,968,3.31236,-0.00881369,0.29999,0.982169
417,966,3.31237,-0.00944942,0.2994,0.981798
419,964,3.31229,-0.00942235,0.299406,0.981838
421,962,3.312,-0.010126,0.299844,0.981517
423,960,3.3118,-0.0100855,0.299843,0.98129
425,958,3.31171,-0.0101356,0.299846,0.979814
427,956,3.31159,-0.0107711,0.299852,0.980909
429,954,3.31146,-0.0106974,0.299839,0.980931
431,952,3.31141,-0.0107096,0.299844,0.980936
433,950,3.3109,-0.0114244,0.300279,0.980349
435,948,3.31082,-0.0113955,0.300281,0.98036
437,946,3.31067,-0.0114311,0.300275,0.980335
439,944,3.31074,-0.0120692,0.300274,0.979959
441,942,3.3105,-0.0120199,0.300281,0.980004
443,940,3.3126,-0.0094081,0.299051,0.979463
445,938,3.31229,-0.00949574,0.299049,0.979397
447,936,3.31182,-0.00953403,0.299488,0.979219
449,934,3.3118,-0.00981178,0.299493,0.97906
451,932,3.3116,-0.010099,0.299483,0.97887
453,930,3.31154,-0.0101378,0.299479,0.978833
455,928,3.31144,-0.0102067,0.299485,0.978812
457,926,3.31148,-0.0107864,0.299477,0.978458
459,924,3.3113,-0.0107964,0.299479,0.978449
461,922,3.3112,-0.0107662,0.299475,0.97846
463,920,3.31071,-0.0114404,0.299909,0.977898
465,918,3.31047,-0.0115242,0.299871,0.977854
467,916,3.3105,-0.011585,0.299916,0.977844
469,914,3.31039,-0.0120587,0.299915,0.977546
471,912,3.31014,-0.0119721,0.299906,0.977586
473,910,3.3101,-0.0120463,0.299913,0.977571
475,908,3.31215,-0.00955012,0.298688,0.976926
477,906,3.31198,-0.0095063,0.298795,0.976943
479,904,3.31191,-0.00946782,0.298673,0.976961
481,902,3.31142,-0.0102237,0.299034,0.976362
483,900,3.31108,-0.0103,0.299116,0.976319
485,898,3.31099,-0.0101882,0.299117,0.976388
487,896,3.31111,-0.0108628,0.299116,0.975992
489,894,3.31093,-0.0108992,0.299113,0.975952
491,892,3.31099,-0.0108331,0.299189,0.975758
493,890,3.31048,-0.0115595,0.299554,0.975423
495,888,3.31065,-0.0115023,0.299124,0.97565
497,886,3.31036,-0.0121551,0.299567,0.975114
499,884,3.31013,-0.0121025,0.299566,0.975145
501,882,3.3118,-0.00896889,0.298325,0.974859
503,880,3.31186,-0.00961083,0.298325,0.974478
505,878,3.31175,-0.00956803,0.298316,0.974484
507,876,3.31159,-0.00961847,0.298326,0.974478
509,874,3.3112,-0.0102164,0.298752,0.973941
511,872,3.31113,-0.0102782,0.298757,0.973909
513,870,3.31121,-0.0108586,0.298753,0.973587
515,868,3.31107,-0.0108384,0.298761,0.973599
517,866,3.31097,-0.0108833,0.298755,0.973575
519,864,3.31011,-0.0116085,0.299204,0.972996
521,862,3.31013,-0.0115881,0.299208,0.973024
523,860,3.31014,-0.0121843,0.299211,0.972696
525,858,3.3099,-0.01215,0.299208,0.972702
527,856,3.31153,-0.00966979,0.298408,0.971859
529,854,3.31186,-0.00955652,0.297963,0.972089
531,852,3.31171,-0.00961399,0.297967,0.972061
533,850,3.31113,-0.0102784,0.298397,0.971474
535,848,3.31088,-0.0103128,0.298402,0.971484
537,846,3.3107,-0.0103382,0.298398,0.971453
539,844,3.31072,-0.0109647,0.298396,0.97108
541,842,3.31071,-0.0109669,0.298518,0.971093
543,840,3.3102,-0.0116884,0.299441,0.970526
545,838,3.31019,-0.0116859,0.298853,0.970556
547,836,3.31018,-0.0122469,0.298857,0.970258
549,834,3.31195,-0.00901667,0.29762,0.970012
551,832,3.31177,-0.00957729,0.297616,0.969685
553,830,3.31144,-0.0096504,0.297617,0.969642
555,828,3.31128,-0.00968373,0.297611,0.969611
557,826,3.31094,-0.0103484,0.298055,0.969054
559,824,3.31091,-0.0103511,0.298052,0.969047
561,822,3.31088,-0.0110516,0.298055,0.968646
563,820,3.31075,-0.0109364,0.298052,0.968722
565,818,3.31057,-0.0109601,0.29805,0.968705
567,816,3.31032,-0.0116915,0.298051,0.968293
569,814,3.31021,-0.0116368,0.298055,0.968341
571,812,3.30973,-0.0122992,0.298513,0.967817
573,810,3.31164,-0.00904268,0.29726,0.967567
575,808,3.31125,-0.00973404,0.297714,0.967016
577,806,3.31116,-0.00979489,0.297717,0.966994
579,804,3.311,-0.0104409,0.297723,0.966641
581,802,3.31111,-0.010341,0.297723,0.966703
583,800,3.31077,-0.0109195,0.297718,0.966355
585,798,3.31008,-0.0113917,0.298165,0.965923
587,796,3.31016,-0.0117123,0.298415,0.96573
589,794,3.30993,-0.0120171,0.298161,0.965578
591,792,3.3098,-0.0120647,0.298163,0.96555
593,790,3.30983,-0.0123723,0.29817,0.965386
595,788,3.30953,-0.0110859,0.298035,0.964781
597,786,3.311,-0.0097584,0.297373,0.964611
599,784,3.31114,-0.00976459,0.297377,0.96461
601,782,3.31045,-0.0101308,0.297368,0.964388
603,780,3.31025,-0.0108178,0.297828,0.963613
605,778,3.31045,-0.0106943,0.297377,0.964112
607,776,3.31037,-0.00987693,0.297246,0.963233
609,774,3.31088,-0.00970613,0.29671,0.963509
611,772,3.30974,-0.0117811,0.297821,0.963317
613,770,3.3096,-0.0124447,0.297821,0.962932
615,768,3.30891,-0.0127753,0.29827,0.962568
617,766,3.30964,-0.0110308,0.297242,0.962581
619,764,3.31122,-0.00938426,0.296577,0.962573
621,762,3.31149,-0.00813148,0.296003,0.96214
623,760,3.31062,-0.0104696,0.297025,0.961795
625,758,3.31074,-0.0110519,0.297027,0.961466
627,756,3.3109,-0.00939687,0.296442,0.961246
629,754,3.31019,-0.0111184,0.297023,0.961668
631,752,3.3097,-0.0118488,0.297472,0.960836
633,750,3.30951,-0.0117892,0.297467,0.960863
635,748,3.30947,-0.0125634,0.29738,0.960434
637,746,3.30927,-0.0124229,0.297467,0.96051
639,744,3.311165,-0.009812,0.296225,0.959879
641,742,3.31042,-0.00988688,0.296674,0.959668
643,740,3.31081,-0.00986415,0.296222,0.959853
645,738,3.31015,-0.0105104,0.296677,0.959323
647,736,3.31021,-0.0105434,0.296671,0.95929
649,734,3.31015,-0.0111356,0.296677,0.958977
651,732,3.31024,-0.00959822,0.296094,0.958688
653,730,3.30994,-0.0118135,0.296676,0.958595
655,728,3.30938,-0.0125389,0.297121,0.957793
657,726,3.30895,-0.0125498,0.297116,0.957996
659,724,3.31084,-0.00925068,0.295869,0.957764
661,722,3.31074,-0.00987554,0.295929,0.957392
663,720,3.31075,-0.00994877,0.295876,0.95737
665,718,3.31074,-0.0104827,0.295868,0.957063
667,716,3.31005,-0.0106354,0.296323,0.956808
669,714,3.30991,-0.0111844,0.296307,0.95673
671,712,3.30963,-0.0112611,0.296321,0.956454
673,710,3.3101,-0.0102801,0.295739,0.955854
675,708,3.3095,-0.0119663,0.296322,0.956055
677,706,3.30891,-0.0129364,0.29677,0.95534
679,704,3.31103,-0.00984936,0.295527,0.954978
681,702,3.31077,-0.00992394,0.295526,0.954945
683,700,3.31047,-0.0106193,0.295525,0.95454
685,698,3.31047,-0.0105774,0.295641,0.954566
687,696,3.30985,-0.0112421,0.295973,0.954025
689,694,3.30999,-0.00964334,0.295398,0.953793
691,692,3.30988,-0.0119959,0.295984,0.953623
693,690,3.30983,-0.0103419,0.295396,0.953399
695,688,3.30875,-0.0123414,0.296435,0.95325
697,686,3.30893,-0.0116143,0.29584,0.952493
699,684,3.31044,-0.0100117,0.295187,0.952459
701,682,3.31052,-0.00901104,0.295045,0.951676
703,680,3.31048,-0.0105891,0.295178,0.952133
705,678,3.31027,-0.00961474,0.295053,0.951362
707,676,3.31012,-0.00994122,0.29509,0.951176
709,674,3.30941,-0.0117306,0.295634,0.951323
711,672,3.3092,-0.0110553,0.295511,0.950391
713,670,3.30819,-0.0131606,0.296549,0.950186
715,668,3.31058,-0.00965734,0.294849,0.95022
717,666,3.31088,-0.00838558,0.294253,0.949763
719,664,3.30996,-0.0107307,0.295297,0.949443
721,662,3.31046,-0.00889821,0.294251,0.949726
723,660,3.3094,-0.0113646,0.295296,0.949089
725,658,3.30909,-0.0114251,0.295894,0.949022
727,656,3.30929,-0.012067,0.295291,0.948678
729,654,3.309,-0.0120874,0.295282,0.94865
731,652,3.30844,-0.0127994,0.295742,0.948091
733,650,3.31028,-0.00939761,0.294493,0.947874
735,648,3.30999,-0.0100898,0.294491,0.947491
737,646,3.30959,-0.010832,0.294952,0.946922
739,644,3.30942,-0.0107836,0.294954,0.946948
741,642,3.30936,-0.0115208,0.29495,0.946537
743,640,3.30936,-0.0120935,0.29495,0.946215
745,638,3.30894,-0.0121628,0.294948,0.946174
747,636,3.30839,-0.0129313,0.295408,0.945576
749,634,3.30796,-0.0128335,0.295413,0.945635
751,632,3.31008,-0.0099747,0.294394,0.944853
753,630,3.31,-0.0102073,0.294148,0.944964
755,628,3.30939,-0.0112105,0.29462,0.944265
757,626,3.30946,-0.0115134,0.29461,0.944074
759,624,3.30911,-0.0118743,0.294613,0.943893
761,622,3.30827,-0.0122367,0.295073,0.943507
763,620,3.30873,-0.0112269,0.29448,0.942931
765,618,3.31032,-0.00982855,0.293814,0.942731
767,616,3.31014,-0.0102003,0.293818,0.942529
769,614,3.30999,-0.0105697,0.293816,0.942306
771,612,3.30975,-0.0108319,0.293816,0.942182
773,610,3.30904,-0.0115184,0.29427,0.941609
775,608,3.30895,-0.0115093,0.29427,0.941619
777,606,3.309,-0.012218,0.29427,0.941222
779,604,3.3085,-0.0123713,0.294881,0.941145
781,602,3.31034,-0.00949256,0.293015,0.940615
783,600,3.3096,-0.010195,0.293471,0.940046
785,598,3.30951,-0.0101716,0.29347,0.940056
787,596,3.30949,-0.0108117,0.293471,0.9397
789,594,3.30902,-0.011627,0.293937,0.9391
791,592,3.30898,-0.0123703,0.293938,0.938682
793,590,3.30837,-0.0121606,0.293931,0.938793
795,588,3.30827,-0.0129444,0.293935,0.938362
797,586,3.30743,-0.0130338,0.294393,0.938123
799,584,3.30959,-0.0102915,0.293134,0.937765
801,582,3.30956,-0.0109372,0.293132,0.937145
803,580,3.30921,-0.0109714,0.293132,0.937118
805,578,3.30848,-0.011722,0.293597,0.93679
807,576,3.30823,-0.0123898,0.293596,0.936196
809,574,3.30793,-0.0131086,0.294063,0.935634
811,572,3.31024,-0.00954773,0.292347,0.93565
813,570,3.30984,-0.00887156,0.292196,0.934668
815,568,3.30939,-0.0109679,0.292805,0.934662
817,566,3.30901,-0.0110232,0.292802,0.934644
819,564,3.30851,-0.0117544,0.293266,0.934071
821,562,3.30835,-0.0124622,0.293257,0.933672
823,560,3.30819,-0.0124273,0.293256,0.933675
825,558,3.30786,-0.0130577,0.293259,0.933337
827,556,3.30918,-0.0103881,0.292467,0.932497
829,554,3.3091,-0.0109326,0.292459,0.932174
831,552,3.30899,-0.0110474,0.292459,0.932124
833,550,3.30849,-0.0117936,0.29293,0.931554
835,548,3.30819,-0.012602,0.292943,0.931131
837,546,3.30798,-0.0131391,0.292937,0.930845
839,544,3.30928,-0.0103723,0.292141,0.930055
841,542,3.30926,-0.0102618,0.292137,0.930111
843,540,3.3092,-0.0111602,0.29214,0.929633
845,538,3.30893,-0.0103629,0.292002,0.928727
847,536,3.3081,-0.0124981,0.29261,0.92872
849,534,3.308,-0.0107624,0.292182,0.928487
851,532,3.30711,-0.0132542,0.293079,0.928118
853,530,3.30919,-0.010492,0.291806,0.927476
855,528,3.30916,-0.0111078,0.291804,0.92714
857,526,3.30865,-0.0111588,0.291806,0.927126
859,524,3.30793,-0.0118886,0.292281,0.926549
861,522,3.30733,-0.0129757,0.292994,0.925802
863,520,3.30724,-0.0133182,0.292749,0.925613
865,518,3.30911,-0.0101028,0.291493,0.925236
867,516,3.30886,-0.010396,0.291484,0.925063
869,514,3.30809,-0.0112517,0.291957,0.924412
871,512,3.30738,-0.0120132,0.292432,0.923828
873,510,3.30783,-0.0126286,0.291965,0.923955
875,508,3.30711,-0.0134521,0.292435,0.923075
877,506,3.30896,-0.0105059,0.291165,0.922514
879,504,3.30859,-0.0107966,0.291157,0.922343
881,502,3.30798,-0.0113052,0.291629,0.921901
883,500,3.30774,-0.0119903,0.291752,0.921524
885,498,3.30718,-0.0127175,0.292104,0.920941
887,496,3.30672,-0.0134125,0.292109,0.920583
889,494,3.30842,-0.00982342,0.290834,0.920345
891,492,3.30845,-0.0105035,0.290834,0.919988
893,490,3.30785,-0.011437,0.291318,0.919326
895,488,3.30762,-0.0119887,0.291305,0.919012
897,486,3.30657,-0.012791,0.291778,0.918397
899,484,3.30644,-0.0133777,0.291776,0.918077
901,482,3.30797,-0.0107041,0.290989,0.917205
903,480,3.30785,-0.0114347,0.290991,0.916822
905,478,3.30743,-0.0114313,0.290926,0.916816
907,476,3.30706,-0.0122184,0.290983,0.916374
909,474,3.30639,-0.0129264,0.291465,0.915837
911,472,3.30645,-0.0118138,0.290982,0.915358
913,470,3.30783,-0.00902674,0.290195,0.914765
915,468,3.30788,-0.00892631,0.289714,0.914757
917,466,3.30708,-0.00968493,0.290182,0.914137
919,464,3.30682,-0.0176635,0.290182,0.913772
921,462,3.30603,-0.0184477,0.291292,0.913206
923,460,3.3082,-0.0135973,0.288913,0.912559
925,458,3.30773,-0.0143428,0.288917,0.912181
927,456,3.30713,-0.0151891,0.289619,0.910157
929,454,3.30728,-0.0143006,0.288917,0.910955
931,452,3.30661,-0.0147248,0.289386,0.910544
933,450,3.30625,-0.0135941,0.288913,0.910095
935,448,3.30805,-0.0107042,0.28776,0.909472
937,446,3.3075,-0.0115234,0.288116,0.908859
939,444,3.30761,-0.0103586,0.287641,0.908414
941,442,3.30657,-0.0184712,0.288114,0.907812
943,440,3.30636,-0.0118713,0.288111,0.907426
945,438,3.30793,-0.0161751,0.286836,0.906869
947,436,3.30769,-0.0152042,0.286842,0.906176
949,434,3.30792,-0.0137546,0.286203,0.905768
951,432,3.30739,-0.0130102,0.286324,0.904927
953,430,3.30624,-0.0173793,0.287327,0.90485
955,428,3.308,-0.0126351,0.286048,0.903957
957,426,3.30804,-0.0112307,0.285572,0.903639
959,424,3.30785,-0.0115574,0.285566,0.903455
961,422,3.30749,-0.0122145,0.285571,0.903122
963,420,3.30657,-0.0133907,0.286036,0.902299
965,418,3.30876,-0.00823246,0.284295,0.901812
967,416,3.308358,-0.0162657,0.284289,0.901442
969,414,3.30759,-0.0171026,0.284761,0.900828
971,412,3.30695,-0.0177742,0.28498,0.900473
973,410,3.30648,-0.0166623,0.284195,0.899816
975,408,3.30634,-0.017539,0.284761,0.899356
977,406,3.30886,-0.0126752,0.283014,0.898697
979,404,3.30788,-0.0134855,0.283499,0.898127
981,402,3.3076,-0.0141154,0.283492,0.897782
983,400,3.30699,-0.0130878,0.283492,0.897079
985,398,3.3067,-0.0124684,0.283324,0.896064
987,396,3.30866,-0.00919762,0.282045,0.895623
989,394,3.30807,-0.00976738,0.282209,0.895407
991,392,3.3076,-0.0101724,0.282211,0.895192
993,390,3.30685,-0.0186739,0.282688,0.89446
995,388,3.3064,-0.0190075,0.282677,0.894259
997,386,3.30878,-0.0145578,0.28095,0.893393
999,384,3.30779,-0.0153866,0.281416,0.892778
1001,382,3.30711,-0.0161334,0.28188,0.892199
1003,380,3.30702,-0.0149629,0.281612,0.891716
1005,378,3.30684,-0.0157203,0.281404,0.891323
1007,376,3.30812,-0.0127906,0.280616,0.890574
1009,374,3.30775,-0.0134665,0.280614,0.890198
1011,372,3.30729,-0.0124532,0.280609,0.889481
1013,370,3.30738,-0.0113471,0.280141,0.889006
1015,368,3.30649,-0.0121383,0.280617,0.88843
1017,366,3.30839,-0.00907154,0.279343,0.887872
1019,364,3.30804,-0.00981828,0.279339,0.887477
1021,362,3.30718,-0.0180072,0.279811,0.886937
1023,360,3.30705,-0.0165248,0.279339,0.886623
1025,358,3.30672,-0.0175964,0.279344,0.88607
1027,356,3.30798,-0.0146669,0.278539,0.885273
1029,354,3.30805,-0.0135404,0.278068,0.884786
1031,352,3.30771,-0.0124291,0.278067,0.884286
1033,350,3.30757,-0.0131453,0.278072,0.883762
1035,348,3.30696,-0.012505,0.277877,0.882739
1037,346,3.30845,-0.0109026,0.277263,0.882584
1039,344,3.30805,-0.0102486,0.277271,0.881687
1041,342,3.30753,-0.0180426,0.277885,0.881539
1043,340,3.30719,-0.0187318,0.277268,0.881167
1045,338,3.30839,-0.0158681,0.276467,0.880336
1047,336,3.30867,-0.0128245,0.275535,0.879674
1049,334,3.30841,-0.012158,0.275219,0.878758
1051,332,3.30774,-0.0144606,0.275991,0.878733
1053,330,3.30758,-0.0132232,0.275322,0.878183
1055,328,3.30881,-0.0103008,0.274719,0.877478
1057,326,3.30853,-0.0109293,0.274715,0.877144
1059,324,3.3086,-0.00981289,0.274251,0.876644
1061,322,3.30845,-0.00945451,0.274048,0.875501
1063,320,3.30747,-0.00988688,0.274521,0.875108
1065,318,3.30878,-0.00874805,0.273927,0.874972
1067,316,3.3082,-0.0151945,0.273713,0.873956
1069,314,3.30771,-0.0159004,0.273916,0.873667
1071,312,3.30804,-0.0151101,0.273247,0.872923
1073,310,3.30681,-0.0159365,0.273919,0.872405
1075,308,3.30872,-0.0128727,0.272648,0.87181
1077,306,3.3083,-0.0118149,0.272639,0.871089
1079,304,3.30835,-0.0103256,0.272175,0.870784
1081,302,3.30781,-0.00968486,0.271963,0.869767
1083,300,3.30929,-0.00842676,0.271971,0.869428
1085,298,3.30828,-0.00925692,0.271834,0.868823
1087,296,3.30799,-0.0175274,0.271831,0.868463
1089,294,3.30784,-0.016358,0.271357,0.867976
1091,292,3.30708,-0.0171815,0.271829,0.867386
1093,290,3.30886,-0.0142526,0.270563,0.866767
1095,288,3.30872,-0.0128785,0.270103,0.866385
1097,286,3.30808,-0.013725,0.27056,0.865775
1099,284,3.30767,-0.0134316,0.270558,0.864669
1101,282,3.30732,-0.0141096,0.270559,0.863059
1103,280,3.30848,-0.0111161,0.269757,0.863781
1105,278,3.30851,-0.0098709,0.269286,0.863075
1107,276,3.30796,-0.0182385,0.269281,0.862675
1109,274,3.30733,-0.0191442,0.269749,0.862049
1111,272,3.30904,-0.0160507,0.268478,0.861488
1113,270,3.30814,-0.0168812,0.268946,0.860907
1115,268,3.308,-0.015627,0.268522,0.860441
1117,266,3.30761,-0.0146209,0.268475,0.859704
1119,264,3.30719,-0.0153472,0.268474,0.859337
1121,262,3.30895,-0.0105284,0.267219,0.858403
1123,260,3.30858,-0.0119562,0.267217,0.857681
1125,258,3.30817,-0.0104654,0.266982,0.857093
1127,256,3.30785,-0.0111401,0.267219,0.856848
1129,254,3.3094,-0.00847416,0.266407,0.855875
1131,252,3.30877,-0.0168294,0.266404,0.855522
1133,250,3.30776,-0.0177096,0.266979,0.854909
1135,248,3.30776,-0.0165165,0.266405,0.854417
1137,246,3.30734,-0.0172265,0.266403,0.854064
1139,244,3.30913,-0.0130474,0.265134,0.852766
1141,242,3.30812,-0.0138819,0.26559,0.852161
1143,240,3.30782,-0.0146805,0.265598,0.85178
1145,238,3.30728,-0.0135799,0.265593,0.851074
1147,236,3.3096,-0.0085962,0.263979,0.850358
1149,234,3.30927,-0.0093285,0.263942,0.849988
1151,232,3.3088,-0.00815044,0.263623,0.849234
1153,230,3.30742,-0.0109087,0.264791,0.848867
1155,228,3.30699,-0.0200529,0.264788,0.848153
1157,226,3.30926,-0.0149824,0.263063,0.847491
1159,224,3.3084,-0.0158808,0.263523,0.84687
1161,222,3.30752,-0.0170462,0.263985,0.84612
1163,220,3.30737,-0.0157986,0.263519,0.845644
1165,218,3.30936,-0.0123326,0.262856,0.845237
1167,216,3.30877,-0.012022,0.262247,0.844115
1169,214,3.30787,-0.0128794,0.262707,0.843541
1171,212,3.30759,-0.0116606,0.26236,0.843046
1173,210,3.30683,-0.0125132,0.262713,0.842468
1175,208,3.30868,-0.0171272,0.261442,0.841888
1177,206,3.30824,-0.0178391,0.261441,0.841536
1179,204,3.30722,-0.018558,0.261728,0.841019
1181,202,3.30664,-0.0183279,0.261899,0.839879
1183,200,3.30905,-0.0132902,0.260178,0.839422
1185,198,3.30817,-0.0141082,0.260634,0.838595
1187,196,3.30766,-0.0148278,0.260634,0.838237
1189,194,3.30663,-0.0157533,0.261094,0.837608
1191,192,3.30905,-0.0106466,0.259365,0.836902
1193,190,3.30853,-0.010198,0.259358,0.835861
1195,188,3.30812,-0.0108816,0.259965,0.835531
1197,186,3.30711,-0.011758,0.259823,0.834939
1199,184,3.30891,-0.0164386,0.258553,0.834354
1201,182,3.30892,-0.0152517,0.258099,0.833863
1203,180,3.30801,-0.0168469,0.258558,0.832916
1205,178,3.30749,-0.0158037,0.258287,0.832088
1207,176,3.30916,-0.0125741,0.257284,0.831608
1209,174,3.30845,-0.0133911,0.257743,0.831043
1211,172,3.30855,-0.0121753,0.257289,0.830571
1213,170,3.30742,-0.0137816,0.257748,0.829874
1215,168,3.30727,-0.0125626,0.257288,0.829113
1217,166,3.30918,-0.0171662,0.256018,0.828593
1219,164,3.30833,-0.0181336,0.256479,0.82797
1221,162,3.30721,-0.0190203,0.256822,0.827343
1223,160,3.30623,-0.0206292,0.257401,0.826426
1225,158,3.30864,-0.015408,0.255666,0.825722
1227,156,3.30841,-0.0161465,0.25567,0.825378
1229,154,3.30774,-0.0150615,0.255667,0.824648
1231,152,3.30754,-0.0141948,0.25493,0.823881
1233,150,3.30903,-0.0114706,0.254397,0.822995
1235,148,3.30825,-0.0124177,0.25485,0.822614
1237,146,3.30819,-0.0111425,0.254396,0.821898
1239,144,3.30746,-0.0118847,0.254395,0.821541
1241,142,3.30875,-0.0174394,0.253584,0.820401
1243,140,3.30899,-0.0162187,0.253133,0.819918
1245,138,3.30842,-0.0155328,0.252851,0.818932
1247,136,3.30802,-0.016325,0.252854,0.818559
1249,134,3.30878,-0.0156274,0.252789,0.817762
1251,132,3.30936,-0.0119289,0.25158,0.817282
1253,130,3.30835,-0.0131377,0.252324,0.816616
1255,128,3.30824,-0.0122402,0.251574,0.815862
1257,126,3.30927,-0.0112522,0.251508,0.81521
1259,124,3.3096,-0.00794574,0.250304,0.814552
1261,122,3.30867,-0.0176779,0.250764,0.81356
1263,120,3.30702,-0.0200216,0.251964,0.81343
1265,118,3.30945,-0.0151686,0.249949,0.812479
1267,116,3.30893,-0.0140749,0.249944,0.811729
1269,114,3.30865,-0.0156205,0.249945,0.810987
1271,112,3.30769,-0.0164834,0.250395,0.810409
1273,110,3.3086,-0.0158523,0.250342,0.809591
1275,108,3.30871,-0.0144612,0.249878,0.809147
1277,106,3.3091,-0.0111709,0.248666,0.808475
1279,104,3.30811,-0.0128899,0.249122,0.807489
1281,102,3.30933,-0.00973139,0.248312,0.806682
1283,100,3.30938,-0.00852213,0.247848,0.806165
1285,98,3.30905,-0.00929642,0.247851,0.805803
1287,96,3.30735,-0.0205554,0.249061,0.805303
1289,94,3.30923,-0.0176985,0.2478,0.80455
1291,92,3.30913,-0.0142219,0.247042,0.803776
1293,90,3.30883,-0.0154206,0.247036,0.803202
1295,88,3.30763,-0.0170066,0.247795,0.80236
1297,86,3.3095,-0.0132907,0.246638,0.801994
1299,84,3.309,-0.0125054,0.246527,0.801105
1301,82,3.30947,-0.00965667,0.245312,0.800194
1303,80,3.30835,-0.0109538,0.245745,0.799405
1305,78,3.3094,-0.0102142,0.245712,0.798641
1307,76,3.30899,-0.0166606,0.244938,0.798262
1309,74,3.30904,-0.0157901,0.244482,0.79759
1311,72,3.308095,-0.0170803,0.244935,0.797072
1313,70,3.30892,-0.0163818,0.24489,0.796028
1315,68,3.30948,-0.0130476,0.243663,0.795329
1317,66,3.30811,-0.0167821,0.244893,0.794591
1319,64,3.31035,-0.0113945,0.243165,0.793885
1321,62,3.31028,-0.0101223,0.242391,0.793319
1323,60,3.30925,-0.0115009,0.243163,0.792584
1325,58,3.30893,-0.0125758,0.243164,0.792067
1327,56,3.31047,-0.0158503,0.241564,0.790918
1329,54,3.30956,-0.0187761,0.242347,0.790721
1331,52,3.30893,-0.017604,0.242343,0.79001
1333,50,3.30852,-0.0173426,0.242021,0.788815
1335,48,3.31002,-0.016025,0.241499,0.788484
1337,46,3.30955,-0.0156057,0.241529,0.787409
1339,44,3.30952,-0.0143524,0.240748,0.786844
1341,42,3.31147,-0.00953887,0.239484,0.785695
1343,40,3.31039,-0.0123229,0.240266,0.785562
1345,38,3.30971,-0.0118558,0.240264,0.784522
1347,36,3.31192,-0.0085807,0.239,0.78394
1349,34,3.3111,-0.0165292,0.238662,0.782768
1351,32,3.31017,-0.0197388,0.239441,0.782412
1353,30,3.30953,-0.0185418,0.239441,0.781707
1355,28,3.31147,-0.0156894,0.238177,0.780923
1357,26,3.31132,-0.0143009,0.237724,0.780457
1359,24,3.31014,-0.0156757,0.238283,0.779648
1361,22,3.30963,-0.0152811,0.238167,0.778583
1363,20,3.31182,-0.0119249,0.236901,0.777999
1365,18,3.31112,-0.0127691,0.236903,0.77762
1367,16,3.31061,-0.0123972,0.236895,0.776508
1369,14,3.3123,-0.0173195,0.23564,0.775982
1371,12,3.31155,-0.0190113,0.23608,0.775052
1373,10,3.31085,-0.0199007,0.236085,0.774652
1375,8,3.31282,-0.0153881,0.234818,0.773338
1377,6,3.31243,-0.0162142,0.234819,0.772963
1379,4,3.31181,-0.0157436,0.234817,0.771937
1380,3,3.31144,-0.0165877,0.234818,0.771618