File: hust_correlation_analysis/matrices/HUST_9-3_cycle_feature_matrix.csv
cycle_number,rul,voltage,current,capacity,charge_capacity
1,1907,3.31158,0.0146121,0.291539,1.04403
3,1905,3.29406,-0.0173304,0.306989,1.01855
5,1903,3.29754,-0.0165116,0.305651,1.02225
7,1901,3.29863,-0.0101457,0.304356,1.02509
9,1899,3.3008,-0.0112464,0.303539,1.02731
11,1897,3.30125,-0.0156076,0.303059,1.02917
13,1895,3.30274,-0.0143054,0.30178,1.03051
15,1893,3.30205,-0.0167434,0.302228,1.03156
17,1891,3.30362,-0.0160216,0.300973,1.03258
19,1889,3.3045,-0.0153804,0.30055,1.03317
21,1887,3.30508,-0.0141479,0.299714,1.03424
23,1885,3.30472,-0.0111156,0.299784,1.03429
25,1883,3.30493,-0.0110221,0.29952,1.03474
27,1881,3.30572,-0.014079,0.29848,1.03493
29,1879,3.30443,-0.0164877,0.299331,1.0357
31,1877,3.30501,-0.0165106,0.298926,1.0359
33,1875,3.30562,-0.0165063,0.298894,1.03611
35,1873,3.30644,-0.0158328,0.297708,1.03692
37,1871,3.30695,-0.0157086,0.297694,1.03696
39,1869,3.30732,-0.0157872,0.297695,1.03692
41,1867,3.30768,-0.0157008,0.297282,1.03714
43,1865,3.30751,-0.0157442,0.297282,1.03712
45,1863,3.30722,-0.0157608,0.297274,1.03709
47,1861,3.3071,-0.0164858,0.297276,1.03668
49,1859,3.30879,-0.0134832,0.296015,1.0365
51,1857,3.30741,-0.0169215,0.297264,1.03644
53,1855,3.3087,-0.0140778,0.296006,1.03613
55,1853,3.30831,-0.0147279,0.296293,1.0356
57,1851,3.30818,-0.0146929,0.296022,1.03581
59,1849,3.30808,-0.0146492,0.296017,1.03584
61,1847,3.30775,-0.0153017,0.296263,1.03526
63,1845,3.30829,-0.0153248,0.296004,1.03542
65,1843,3.3082,-0.015329,0.296011,1.03545
67,1841,3.30873,-0.0152175,0.29561,1.03571
69,1839,3.30854,-0.0159416,0.296013,1.03511
71,1837,3.30845,-0.0158999,0.296014,1.03513
73,1835,3.30821,-0.0164647,0.296005,1.03478
75,1833,3.30961,-0.0141504,0.295159,1.03402
77,1831,3.30985,-0.0140458,0.294752,1.03426
79,1829,3.30974,-0.0145948,0.294744,1.03375
81,1827,3.30948,-0.0146328,0.294748,1.03393
83,1825,3.30909,-0.0146993,0.29515,1.0337
85,1823,3.30922,-0.0152486,0.295146,1.03336
87,1821,3.30889,-0.0152787,0.29515,1.03335
89,1819,3.30832,-0.0158916,0.295548,1.03279
91,1817,3.30795,-0.0159551,0.295549,1.03275
93,1815,3.30798,-0.0160561,0.295549,1.03272
95,1813,3.30815,-0.0165277,0.295548,1.03244
97,1811,3.31048,-0.0134861,0.293898,1.03247
99,1809,3.31046,-0.0140232,0.294298,1.03197
101,1807,3.31018,-0.0140284,0.294297,1.03196
103,1805,3.30992,-0.0140622,0.294295,1.03194
105,1803,3.30944,-0.0147001,0.294842,1.03135
107,1801,3.30995,-0.0146798,0.294288,1.03159
109,1799,3.30999,-0.0146401,0.294279,1.03159
111,1797,3.30929,-0.0153332,0.294699,1.03102
113,1795,3.30915,-0.0153194,0.294685,1.03101
115,1793,3.30868,-0.0159669,0.295094,1.03044
117,1791,3.30818,-0.0159346,0.29518,1.03045
119,1789,3.30818,-0.0160173,0.295096,1.03043
121,1787,3.30833,-0.0165509,0.295101,1.03013
123,1785,3.30996,-0.0135417,0.293838,1.02991
125,1783,3.31007,-0.014122,0.29384,1.02958
127,1781,3.31038,-0.0140683,0.293837,1.02961
129,1779,3.31042,-0.0139808,0.293826,1.02964
131,1777,3.30992,-0.0141367,0.294227,1.02934
133,1775,3.30986,-0.0146607,0.294232,1.02905
135,1773,3.30944,-0.0147882,0.294228,1.02895
137,1771,3.30931,-0.0148716,0.294226,1.02892
139,1769,3.30938,-0.0153513,0.29422,1.02862
141,1767,3.30888,-0.0154867,0.29463,1.02834
143,1765,3.30869,-0.0154166,0.294632,1.02841
145,1763,3.30848,-0.0159541,0.294652,1.02817
147,1761,3.30837,-0.0159062,0.294648,1.02819
149,1759,3.30796,-0.0165976,0.295215,1.0276
151,1757,3.30839,-0.0165726,0.294652,1.02781
153,1755,3.30807,-0.0166367,0.295057,1.02757
155,1753,3.31045,-0.0135794,0.29339,1.02757
157,1751,3.3102,-0.0141863,0.293778,1.02698
159,1749,3.31025,-0.0141744,0.293787,1.027
161,1747,3.31007,-0.0141195,0.293787,1.02704
163,1745,3.3095,-0.0148092,0.294184,1.02643
165,1743,3.30922,-0.0147745,0.294346,1.02631
167,1741,3.30917,-0.0154332,0.294191,1.02611
169,1739,3.30912,-0.0154175,0.29419,1.02611
171,1737,3.30895,-0.0154044,0.294602,1.02592
173,1735,3.30874,-0.0159934,0.294601,1.0256
175,1733,3.30792,-0.0160602,0.29502,1.02538
177,1731,3.30796,-0.0160813,0.295004,1.02556
179,1729,3.30802,-0.016024,0.2946,1.02558
181,1727,3.30789,-0.016031,0.294599,1.02558
183,1725,3.30847,-0.0166547,0.294596,1.02522
185,1723,3.3086,-0.0165906,0.294603,1.02528
187,1721,3.30831,-0.0166246,0.294601,1.02525
189,1719,3.30997,-0.0142688,0.293741,1.02444
191,1717,3.30963,-0.0142571,0.293744,1.02444
193,1715,3.30964,-0.0142982,0.293841,1.02444
195,1713,3.30988,-0.0140983,0.293323,1.0247
197,1711,3.3091,-0.0143162,0.293725,1.02434
199,1709,3.30854,-0.0149445,0.294135,1.02382
201,1707,3.30853,-0.0149513,0.294151,1.02385
203,1705,3.30906,-0.0148518,0.293735,1.0241
205,1703,3.30871,-0.0154721,0.294149,1.02356
207,1701,3.30849,-0.0154909,0.294298,1.02355
209,1699,3.30855,-0.0155653,0.294151,1.02352
211,1697,3.30854,-0.0155227,0.294141,1.02352
213,1695,3.30974,-0.00940385,0.293342,1.02329
215,1693,3.30873,-0.0161729,0.294556,1.02297
217,1691,3.3088,-0.0160143,0.294146,1.02325
219,1689,3.30809,-0.016791,0.294569,1.02265
221,1687,3.30779,-0.0168268,0.294559,1.02262
223,1685,3.30768,-0.0167947,0.294556,1.02262
225,1683,3.30767,-0.0168152,0.294554,1.0226
227,1681,3.30931,-0.0143171,0.293702,1.02189
229,1679,3.30918,-0.0142965,0.293687,1.02185
231,1677,3.30897,-0.0144159,0.293679,1.02176
233,1675,3.30884,-0.014379,0.293671,1.02175
235,1673,3.30902,-0.0144585,0.293671,1.02171
237,1671,3.30927,-0.0144375,0.293668,1.0217
239,1669,3.3089,-0.0146082,0.294458,1.02143
241,1667,3.30903,-0.0143333,0.294071,1.02153
243,1665,3.30836,-0.0144532,0.29407,1.02144
245,1663,3.30896,-0.014316,0.29366,1.02172
247,1661,3.3083,-0.0151082,0.294073,1.02112
249,1659,3.30811,-0.0150938,0.294067,1.0211
251,1657,3.30777,-0.0151351,0.294079,1.0211
253,1655,3.3076,-0.0158293,0.29449,1.02053
255,1653,3.3075,-0.0158381,0.294488,1.0205
257,1651,3.30744,-0.0158114,0.294483,1.02052
259,1649,3.30772,-0.0157064,0.294069,1.02076
261,1647,3.30773,-0.0158208,0.294075,1.02071
263,1645,3.30721,-0.0164356,0.294573,1.02016
265,1643,3.30781,-0.0163417,0.29409,1.02046
267,1641,3.30782,-0.017019,0.294492,1.0199
269,1639,3.30805,-0.0168439,0.294078,1.02018
271,1637,3.30931,-0.0144286,0.293208,1.01937
273,1635,3.3094,-0.0143686,0.292799,1.01961
275,1633,3.30864,-0.0145104,0.293211,1.01932
277,1631,3.30839,-0.0145784,0.293223,1.01929
279,1629,3.3086,-0.0145182,0.293209,1.01931
281,1627,3.30857,-0.0144879,0.293211,1.01933
283,1625,3.30805,-0.01519,0.294026,1.01875
285,1623,3.30839,-0.0150754,0.293144,1.019
287,1621,3.30844,-0.015213,0.293214,1.01893
289,1619,3.30837,-0.0157792,0.293627,1.01844
291,1617,3.30865,-0.0156159,0.293308,1.01874
293,1615,3.3086,-0.0156853,0.29322,1.0187
295,1613,3.30832,-0.0162593,0.293626,1.01818
297,1611,3.3081,-0.0163677,0.293625,1.01813
299,1609,3.30804,-0.0163991,0.293632,1.01812
301,1607,3.30774,-0.0163478,0.29362,1.0181
303,1605,3.30729,-0.0163491,0.293626,1.0181
305,1603,3.30708,-0.0170745,0.294041,1.01751
307,1601,3.30711,-0.0170418,0.294034,1.01752
309,1599,3.30718,-0.0170978,0.294189,1.0175
311,1597,3.30948,-0.013913,0.292354,1.01754
313,1595,3.30915,-0.0145242,0.292913,1.01699
315,1593,3.30891,-0.0144359,0.292765,1.01705
317,1591,3.30903,-0.0145383,0.292766,1.017
319,1589,3.30928,-0.0151624,0.292768,1.01666
321,1587,3.30903,-0.0150644,0.292766,1.01672
323,1585,3.3088,-0.0151595,0.292766,1.01666
325,1583,3.30846,-0.015161,0.292763,1.01647
327,1581,3.30775,-0.0152485,0.29317,1.01638
329,1579,3.30797,-0.015877,0.293175,1.01604
331,1577,3.30781,-0.0157943,0.293173,1.0161
333,1575,3.30764,-0.0158785,0.293172,1.01605
335,1573,3.30812,-0.0157597,0.292763,1.0163
337,1571,3.3082,-0.0164358,0.293188,1.01578
339,1569,3.30824,-0.0164193,0.293195,1.01581
341,1567,3.30834,-0.0162885,0.293187,1.01587
343,1565,3.30819,-0.0169499,0.292804,1.01548
345,1563,3.30789,-0.0169622,0.293174,1.01547
347,1561,3.30779,-0.0170044,0.29318,1.01545
349,1559,3.30778,-0.0170548,0.293185,1.01541
351,1557,3.30698,-0.0170631,0.293586,1.0152
353,1555,3.30864,-0.014597,0.292315,1.01462
355,1553,3.30842,-0.0146433,0.292313,1.01459
357,1551,3.30849,-0.0146329,0.292311,1.01459
359,1549,3.30884,-0.0146351,0.29232,1.01462
361,1547,3.30914,-0.0151584,0.292321,1.01434
363,1545,3.30905,-0.0151403,0.292313,1.01434
365,1543,3.30891,-0.015189,0.29273,1.01434
367,1541,3.30887,-0.0151729,0.29233,1.01436
369,1539,3.30855,-0.0158295,0.292737,1.01379
371,1537,3.30876,-0.015672,0.292311,1.01404
373,1535,3.30805,-0.0158398,0.29274,1.01378
375,1533,3.30794,-0.0158679,0.292738,1.01374
377,1531,3.30758,-0.0164311,0.29315,1.01324
379,1529,3.30814,-0.0163738,0.292731,1.01347
381,1527,3.30779,-0.0163672,0.29273,1.01347
383,1525,3.30752,-0.0164857,0.293147,1.01336
385,1523,3.308,-0.0170561,0.292737,1.01311
387,1521,3.30771,-0.0171025,0.293158,1.01289
389,1519,3.30784,-0.0171003,0.293159,1.01291
391,1517,3.31002,-0.0138872,0.291472,1.01294
393,1515,3.30924,-0.014581,0.29188,1.01234
395,1513,3.30913,-0.0146029,0.291886,1.01235
397,1511,3.30904,-0.0145954,0.291878,1.01232
399,1509,3.30882,-0.0145751,0.291869,1.01232
401,1507,3.30859,-0.0145578,0.291865,1.01231
403,1505,3.30832,-0.0152795,0.292283,1.01172
405,1503,3.30869,-0.0152594,0.291867,1.01193
407,1501,3.30869,-0.0152422,0.291875,1.01195
409,1499,3.30903,-0.0151958,0.291877,1.01199
411,1497,3.30885,-0.0158445,0.29229,1.01144
413,1495,3.30878,-0.015843,0.2923,1.01147
415,1493,3.3087,-0.0158552,0.292701,1.01145
417,1491,3.30851,-0.0158476,0.292294,1.01122
419,1489,3.30833,-0.0164399,0.292296,1.01113
421,1487,3.30743,-0.0165227,0.292713,1.01089
423,1485,3.30726,-0.0165537,0.292723,1.0109
425,1483,3.30786,-0.0163866,0.292294,1.01116
427,1481,3.30797,-0.0163898,0.292293,1.01115
429,1479,3.30765,-0.0171623,0.292711,1.01053
431,1477,3.30756,-0.0171075,0.2927,1.01055
433,1475,3.30747,-0.0171365,0.292711,1.01055
435,1473,3.3084,-0.0108676,0.291891,1.01032
437,1471,3.30905,-0.0147139,0.291851,1.00975
439,1469,3.30874,-0.0114988,0.291902,1.01
441,1467,3.30932,-0.014565,0.291843,1.01005
443,1465,3.30876,-0.0152325,0.291851,1.00946
445,1463,3.3085,-0.0152695,0.291848,1.00942
447,1461,3.30823,-0.0152981,0.291842,1.00938
449,1459,3.30845,-0.0153573,0.291839,1.00936
451,1457,3.30891,-0.015233,0.291426,1.00962
453,1455,3.30863,-0.015259,0.29142,1.00959
455,1453,3.30881,-0.0152627,0.291423,1.00961
457,1451,3.30903,-0.0152769,0.291412,1.00935
459,1449,3.30861,-0.0158456,0.291831,1.00908
461,1447,3.30849,-0.0158732,0.291833,1.00907
463,1445,3.30804,-0.0159474,0.291836,1.00905
465,1443,3.30773,-0.0166228,0.292258,1.00873
467,1441,3.30768,-0.016596,0.292256,1.00849
469,1439,3.30739,-0.0166253,0.29225,1.00845
471,1437,3.30709,-0.0166385,0.292254,1.00845
473,1435,3.30733,-0.0165559,0.291826,1.00868
475,1433,3.30742,-0.0173174,0.292241,1.00806
477,1431,3.30821,-0.0171085,0.291823,1.00837
479,1429,3.30789,-0.0172995,0.292255,1.00809
481,1427,3.30759,-0.0172664,0.292244,1.00809
483,1425,3.30918,-0.014738,0.290955,1.00749
485,1423,3.30904,-0.0147603,0.29097,1.00753
487,1421,3.30883,-0.014747,0.291063,1.00755
489,1419,3.30865,-0.0154201,0.291396,1.00699
491,1417,3.30869,-0.0153266,0.291394,1.00704
493,1415,3.30825,-0.0154055,0.291388,1.00699
495,1413,3.30812,-0.0154338,0.291387,1.00697
497,1411,3.30864,-0.0153328,0.290961,1.00718
499,1409,3.30884,-0.0153592,0.290976,1.00722
501,1407,3.30903,-0.0153103,0.29097,1.00724
503,1405,3.30854,-0.0160001,0.29138,1.00664
505,1403,3.30826,-0.0160565,0.291387,1.00663
507,1401,3.30846,-0.0166549,0.291389,1.00632
509,1399,3.30822,-0.0166082,0.291769,1.00636
511,1397,3.30735,-0.0166662,0.291819,1.00613
513,1395,3.30734,-0.0167275,0.291822,1.00612
515,1393,3.30739,-0.0172771,0.291819,1.0058
517,1391,3.30784,-0.0170966,0.291557,1.00611
519,1389,3.30747,-0.0173686,0.291824,1.00576
521,1387,3.30727,-0.0172652,0.2918,1.00578
523,1385,3.30734,-0.0173451,0.291896,1.00573
525,1383,3.30953,-0.0141279,0.290509,1.00551
527,1381,3.30969,-0.0147558,0.29051,1.00517
529,1379,3.30932,-0.0146872,0.290503,1.00519
531,1377,3.30892,-0.0148135,0.28986,1.00513
533,1375,3.30823,-0.0155371,0.290936,1.00454
535,1373,3.30785,-0.0154283,0.290942,1.00463
537,1371,3.30833,-0.0155026,0.290942,1.0046
539,1369,3.30856,-0.0160509,0.290951,1.00431
541,1367,3.30858,-0.0160286,0.290947,1.00432
543,1365,3.30865,-0.0160098,0.290941,1.00433
545,1363,3.30837,-0.0160518,0.290937,1.00427
547,1361,3.30842,-0.0160875,0.290938,1.00402
549,1359,3.30794,-0.0167302,0.291351,1.00369
551,1357,3.30809,-0.0167133,0.291088,1.0039
553,1355,3.30742,-0.0168049,0.291345,1.00364
555,1353,3.30735,-0.0167484,0.291348,1.00368
557,1351,3.30763,-0.0171995,0.291355,1.00344
559,1349,3.30687,-0.0174034,0.291783,1.00316
561,1347,3.30729,-0.0174045,0.291366,1.00335
563,1345,3.30948,-0.0141218,0.290075,1.00319
565,1343,3.30991,-0.0146981,0.29008,1.00289
567,1341,3.30915,-0.0148216,0.290497,1.00262
569,1339,3.30892,-0.0147975,0.290499,1.00264
571,1337,3.30884,-0.015375,0.290492,1.0023
573,1335,3.30851,-0.0154455,0.29049,1.00226
575,1333,3.30847,-0.015433,0.290499,1.00227
577,1331,3.30855,-0.01546,0.290503,1.00227
579,1329,3.30802,-0.0161037,0.290919,1.00172
581,1327,3.30765,-0.0161571,0.290914,1.00169
583,1325,3.30757,-0.0161762,0.290924,1.0017
585,1323,3.30812,-0.0160813,0.290494,1.00194
587,1321,3.30834,-0.0166689,0.290918,1.00144
589,1319,3.30816,-0.0167076,0.29092,1.00139
591,1317,3.30795,-0.0167294,0.290917,1.00139
593,1315,3.30779,-0.0173174,0.290921,1.00108
595,1313,3.30712,-0.0174784,0.291718,1.00079
597,1311,3.30669,-0.0174397,0.291341,1.00058
599,1309,3.3067,-0.0175796,0.291344,1.00074
601,1307,3.30887,-0.0148289,0.290048,1.00027
603,1305,3.30778,-0.0116702,0.290517,1.00026
605,1303,3.30924,-0.0147284,0.289633,1.00052
607,1301,3.30924,-0.0147357,0.289628,1.00052
609,1299,3.30889,-0.0155727,0.290056,0.999872
611,1297,3.30862,-0.0155445,0.290054,0.999877
613,1295,3.3087,-0.0155093,0.290455,0.999901
615,1293,3.3088,-0.0161554,0.290055,0.99956
617,1291,3.30884,-0.00981999,0.28964,0.999075
619,1289,3.30731,-0.0162592,0.290472,0.999284
621,1287,3.30752,-0.016213,0.29047,0.999309
623,1285,3.30811,-0.0161819,0.290052,0.999534
625,1283,3.30877,-0.0104,0.289644,0.998761
627,1281,3.30782,-0.0168181,0.290473,0.998991
629,1279,3.30777,-0.0168597,0.29047,0.998973
631,1277,3.30826,-0.0167406,0.29005,0.999237
633,1275,3.30762,-0.0174664,0.290469,0.998635
635,1273,3.30849,-0.0110743,0.289639,0.998402
637,1271,3.3072,-0.017983,0.290898,0.99817
639,1269,3.30822,-0.0150681,0.290032,0.997572
641,1267,3.30853,-0.0150883,0.289606,0.997546
643,1265,3.30841,-0.0149767,0.289601,0.997808
645,1263,3.3085,-0.01492,0.289177,0.998038
647,1261,3.30828,-0.015615,0.289604,0.997479
649,1259,3.3089,-0.0155967,0.289591,0.997468
651,1257,3.30893,-0.0156157,0.289599,0.997468
653,1255,3.30876,-0.0161181,0.289596,0.997194
655,1253,3.30815,-0.0162157,0.289595,0.997127
657,1251,3.30744,-0.0164751,0.290027,0.996812
659,1249,3.3076,-0.0162829,0.290024,0.996909
661,1247,3.30815,-0.0105987,0.289617,0.996072
663,1245,3.30737,-0.0168659,0.290027,0.996603
665,1243,3.30742,-0.0169079,0.290024,0.996573
667,1241,3.30702,-0.0176405,0.290449,0.995988
669,1239,3.3075,-0.0175355,0.290018,0.996231
671,1237,3.30736,-0.0176093,0.290456,0.996021
673,1235,3.309,-0.0150302,0.289149,0.995415
675,1233,3.30889,-0.0150098,0.289153,0.995432
677,1231,3.30881,-0.0150195,0.289154,0.995447
679,1229,3.30829,-0.0156919,0.289572,0.994863
681,1227,3.30778,-0.0156458,0.289588,0.994898
683,1225,3.30761,-0.01574,0.289672,0.994848
685,1223,3.30787,-0.0157663,0.289584,0.994846
687,1221,3.3093,-0.00985025,0.288748,0.994312
689,1219,3.30807,-0.0162579,0.289583,0.994595
691,1217,3.30802,-0.0163149,0.28958,0.99456
693,1215,3.3075,-0.0170195,0.290008,0.993971
695,1213,3.30765,-0.0168673,0.289582,0.994254
697,1211,3.309,-0.0111643,0.288747,0.993616
699,1209,3.30728,-0.017669,0.290011,0.993628
701,1207,3.30671,-0.017627,0.290004,0.993642
703,1205,3.30849,-0.0144196,0.288713,0.993382
705,1203,3.30854,-0.0150426,0.288707,0.993054
707,1201,3.30838,-0.015015,0.288702,0.993054
709,1199,3.30833,-0.0151757,0.288701,0.992948
711,1197,3.30907,-0.0151357,0.2887,0.992985
713,1195,3.30875,-0.015073,0.288701,0.993015
715,1193,3.30859,-0.0157281,0.289111,0.992664
717,1191,3.30861,-0.00933632,0.288286,0.991981
719,1189,3.30763,-0.0165055,0.289135,0.992067
721,1187,3.30699,-0.0165157,0.289564,0.991865
723,1185,3.30777,-0.0164352,0.289132,0.992097
725,1183,3.30719,-0.0171069,0.289567,0.991545
727,1181,3.30712,-0.0170468,0.289124,0.991762
729,1179,3.30722,-0.0171045,0.289129,0.991736
731,1177,3.30754,-0.017078,0.289124,0.991755
733,1175,3.30723,-0.0176076,0.289544,0.991028
735,1173,3.30708,-0.0178528,0.28956,0.991145
737,1171,3.30833,-0.0151746,0.288676,0.990389
739,1169,3.30857,-0.015094,0.288262,0.990653
741,1167,3.30814,-0.0152495,0.288683,0.990609
743,1165,3.30784,-0.0158626,0.288682,0.990028
745,1163,3.30766,-0.0159144,0.289066,0.990018
747,1161,3.30778,-0.0159275,0.288694,0.990014
749,1159,3.30794,-0.0165461,0.288692,0.989455
751,1157,3.30807,-0.0164185,0.288684,0.989737
753,1155,3.30773,-0.0164518,0.288681,0.989704
755,1153,3.3073,-0.0171624,0.289117,0.989145
757,1151,3.30875,-0.0105287,0.287839,0.989174
759,1149,3.30754,-0.0169931,0.288678,0.989413
761,1147,3.30665,-0.0172006,0.289103,0.989094
763,1145,3.30641,-0.0178845,0.289263,0.988738
765,1143,3.30821,-0.0145543,0.287807,0.988537
767,1141,3.30798,-0.0153095,0.288243,0.987943
769,1139,3.30841,-0.0151352,0.287811,0.98825
771,1137,3.3084,-0.015165,0.287811,0.988229
773,1135,3.30829,-0.0159389,0.288239,0.987612
775,1133,3.30816,-0.0159455,0.288235,0.9876
777,1131,3.308,-0.0159544,0.288228,0.987566
779,1129,3.30761,-0.0166012,0.288237,0.987244
781,1127,3.30681,-0.0166722,0.288657,0.98699
783,1125,3.3073,-0.0165119,0.288224,0.987255
785,1123,3.30699,-0.0172288,0.288649,0.986652
787,1121,3.30683,-0.0173869,0.288673,0.986648
789,1119,3.3079,-0.011363,0.287826,0.986121
791,1117,3.30677,-0.0178826,0.288677,0.986392
793,1115,3.30803,-0.0112668,0.287825,0.986185
795,1113,3.30852,-0.0152707,0.287794,0.985601
797,1111,3.30832,-0.0153162,0.288175,0.985596
799,1109,3.30827,-0.0157721,0.28779,0.985308
801,1107,3.30817,-0.0159971,0.287793,0.985196
803,1105,3.30723,-0.016083,0.288228,0.984949
805,1103,3.30718,-0.016039,0.287785,0.985145
807,1101,3.30691,-0.0167463,0.28831,0.984586
809,1099,3.30768,-0.0166636,0.287794,0.984844
811,1097,3.30723,-0.0167211,0.288214,0.984589
813,1095,3.30737,-0.0173595,0.288226,0.984287
815,1093,3.30713,-0.0172686,0.288222,0.984323
817,1091,3.30648,-0.018002,0.288662,0.983763
819,1089,3.30803,-0.0113736,0.287383,0.983727
821,1087,3.30815,-0.0153202,0.287355,0.983191
823,1085,3.308,-0.0153789,0.287357,0.983158
825,1083,3.30795,-0.0153572,0.28736,0.983168
827,1081,3.3074,-0.016046,0.28779,0.982617
829,1079,3.30711,-0.0160943,0.287784,0.982572
831,1077,3.30663,-0.0127155,0.287808,0.982807
833,1075,3.30852,-0.0100991,0.287022,0.981997
835,1073,3.30788,-0.0166916,0.287782,0.982248
837,1071,3.30754,-0.0166827,0.287777,0.982233
839,1069,3.30669,-0.0174554,0.288221,0.981647
841,1067,3.30644,-0.017394,0.288222,0.981696
843,1065,3.30609,-0.0181944,0.288655,0.981068
845,1063,3.30743,-0.0114032,0.287517,0.981095
847,1061,3.30806,-0.014792,0.286908,0.981061
849,1059,3.30777,-0.0154657,0.28743,0.980536
851,1057,3.30809,-0.0153718,0.286905,0.98076
853,1055,3.30718,-0.0119643,0.28751,0.980796
855,1053,3.30795,-0.0160895,0.287341,0.980184
857,1051,3.30758,-0.0160731,0.287347,0.980205
859,1049,3.30764,-0.0167474,0.287341,0.979843
861,1047,3.30724,-0.0166958,0.28734,0.979868
863,1045,3.30633,-0.0174799,0.287777,0.979236
865,1043,3.30628,-0.0174861,0.287774,0.979227
867,1041,3.30616,-0.0174909,0.287775,0.979236
869,1039,3.30563,-0.0182425,0.288219,0.978657
871,1037,3.30615,-0.0181302,0.287776,0.978901
873,1035,3.30612,-0.0181165,0.287771,0.978897
875,1033,3.30843,-0.0154372,0.286871,0.978326
877,1031,3.30773,-0.015489,0.286896,0.978097
879,1029,3.30711,-0.016221,0.286898,0.977708
881,1027,3.30699,-0.0162222,0.286888,0.977691
883,1025,3.30714,-0.0162916,0.286898,0.97769
885,1023,3.30633,-0.0168363,0.287333,0.977181
887,1021,3.30662,-0.0167804,0.286884,0.977394
889,1019,3.30597,-0.0169347,0.287323,0.977098
891,1017,3.30607,-0.0176868,0.287326,0.976722
893,1015,3.30613,-0.0175831,0.287334,0.976806
895,1013,3.30626,-0.018221,0.287328,0.976443
897,1011,3.30733,-0.011502,0.286462,0.976205
899,1009,3.30852,-0.0150253,0.286018,0.976148
901,1007,3.30743,-0.0155601,0.286458,0.975667
903,1005,3.30687,-0.0156688,0.286449,0.975597
905,1003,3.30632,-0.0162824,0.286881,0.97505
907,1001,3.30633,-0.0163706,0.286896,0.975034
909,999,3.30679,-0.0162836,0.286451,0.975261
911,997,3.30624,-0.0170534,0.286891,0.974676
913,995,3.30626,-0.0170013,0.286887,0.974954
915,993,3.30633,-0.0169719,0.286888,0.974712
917,991,3.30637,-0.0176372,0.286897,0.974382
919,989,3.3057,-0.0184714,0.287335,0.973749
921,987,3.30753,-0.011654,0.28621,0.973593
923,985,3.30765,-0.0156487,0.286015,0.973224
925,983,3.30707,-0.0155987,0.286436,0.973265
927,981,3.30638,-0.0157558,0.28646,0.972977
929,979,3.30636,-0.0163721,0.286455,0.972638
931,977,3.30548,-0.0130674,0.286913,0.972609
933,975,3.3068,-0.0162557,0.28602,0.972927
935,973,3.30638,-0.0171123,0.286451,0.972237
937,971,3.3065,-0.0170413,0.286454,0.972308
939,969,3.30639,-0.0176937,0.286453,0.971945
941,967,3.30597,-0.0176261,0.286441,0.971968
943,965,3.30517,-0.0178589,0.286885,0.97166
945,963,3.30521,-0.0184904,0.286899,0.971349
947,961,3.30598,-0.0123976,0.286887,0.970551
949,959,3.30592,-0.012287,0.286035,0.970834
951,957,3.30653,-0.0164191,0.286017,0.970233
953,955,3.30671,-0.0165167,0.286024,0.970187
955,953,3.30562,-0.0130414,0.286854,0.970238
957,951,3.30668,-0.0171703,0.286027,0.969852
959,949,3.30661,-0.0171412,0.286024,0.969865
961,947,3.30733,-0.0111157,0.285594,0.969019
963,945,3.30571,-0.0178185,0.286832,0.969307
965,943,3.30448,-0.0179623,0.286902,0.969012
967,941,3.30467,-0.0185704,0.286904,0.968696
969,939,3.3051,-0.0185416,0.286443,0.968878
971,937,3.30712,-0.0151519,0.285134,0.968652
973,935,3.30672,-0.0158808,0.285582,0.968091
975,933,3.30704,-0.0156519,0.285121,0.968374
977,931,3.30643,-0.0166288,0.286018,0.967491
979,929,3.30632,-0.0165515,0.285583,0.967754
981,927,3.30579,-0.017294,0.286026,0.967165
983,925,3.30645,-0.0171405,0.285581,0.967453
985,923,3.30508,-0.0179796,0.286474,0.966609
987,921,3.30514,-0.017854,0.286103,0.966867
989,919,3.30431,-0.0186668,0.286469,0.966246
991,917,3.30461,-0.0187242,0.286471,0.966227
993,915,3.30706,-0.0151656,0.2847,0.966256
995,913,3.30664,-0.0158568,0.285142,0.965704
997,911,3.30696,-0.015845,0.285142,0.96571
999,909,3.30642,-0.0165845,0.285591,0.965142
1001,907,3.30604,-0.0172386,0.28559,0.964792
1003,905,3.30546,-0.0172897,0.285588,0.964755
1005,903,3.30597,-0.0112186,0.285165,0.963913
1007,901,3.3061,-0.0110962,0.285163,0.963972
1009,899,3.30518,-0.0179741,0.285591,0.964411
1011,897,3.30454,-0.0186772,0.285928,0.963848
1013,895,3.30457,-0.0187563,0.286032,0.963811
1015,893,3.3068,-0.0158922,0.284702,0.963252
1017,891,3.30647,-0.0160097,0.284707,0.963203
1019,889,3.30596,-0.0166479,0.285146,0.962659
1021,887,3.30622,-0.0169621,0.285156,0.962517
1023,885,3.30552,-0.0173445,0.285155,0.962329
1025,883,3.30488,-0.017542,0.285609,0.962039
1027,881,3.30587,-0.0111467,0.284728,0.961536
1029,879,3.30452,-0.0181111,0.285617,0.961766
1031,877,3.30552,-0.0119357,0.284737,0.96113
1033,875,3.3057,-0.0119082,0.284742,0.961166
1035,873,3.30614,-0.0118633,0.284738,0.961188
1037,871,3.30541,-0.0125459,0.285255,0.960605
1039,869,3.30498,-0.0126498,0.285173,0.96054
1041,867,3.30571,-0.0168086,0.284721,0.960177
1043,865,3.30513,-0.0175962,0.285175,0.959585
1045,863,3.30474,-0.0175668,0.285167,0.959588
1047,861,3.30455,-0.0175301,0.285244,0.959587
1049,859,3.30467,-0.0182674,0.285166,0.959212
1051,857,3.30435,-0.0181808,0.285165,0.959273
1053,855,3.30396,-0.0190103,0.285765,0.958641
1055,853,3.30449,-0.0188382,0.285165,0.958932
1057,851,3.30633,-0.0161607,0.284284,0.95808
1059,849,3.30587,-0.0161919,0.284284,0.957873
1061,847,3.30529,-0.016977,0.284729,0.957445
1063,845,3.30544,-0.0168524,0.284278,0.957705
1065,843,3.30468,-0.0175881,0.284728,0.957115
1067,841,3.30438,-0.0176541,0.284728,0.957093
1069,839,3.30412,-0.0176387,0.284726,0.957108
1071,837,3.30439,-0.0182826,0.284732,0.956779
1073,835,3.30427,-0.0182728,0.284722,0.956769
1075,833,3.30396,-0.019051,0.28517,0.956166
1077,831,3.30597,-0.0156426,0.283848,0.955905
1079,829,3.30566,-0.0162007,0.283842,0.955612
1081,827,3.30525,-0.0170044,0.284304,0.955034
1083,825,3.30496,-0.0169877,0.284305,0.955044
1085,823,3.30552,-0.0107312,0.28387,0.954183
1087,821,3.30373,-0.0177701,0.284763,0.95445
1089,819,3.30376,-0.0183762,0.284749,0.95412
1091,817,3.3036,-0.0183852,0.28475,0.954102
1093,815,3.3037,-0.0184195,0.284747,0.954083
1095,813,3.30379,-0.0190342,0.284743,0.953747
1097,811,3.30581,-0.0155825,0.283484,0.953484
1099,809,3.30519,-0.0163861,0.283866,0.952884
1101,807,3.30483,-0.0170221,0.28386,0.952559
1103,805,3.3043,-0.0171367,0.284324,0.952305
1105,803,3.30341,-0.0179184,0.284785,0.951725
1107,801,3.30368,-0.0177827,0.284477,0.951979
1109,799,3.30319,-0.0185688,0.28478,0.95139
1111,797,3.3039,-0.0184976,0.284324,0.951631
1113,795,3.30328,-0.0192214,0.284786,0.951073
1115,793,3.30528,-0.0156812,0.283441,0.950832
1117,791,3.30517,-0.0164238,0.283443,0.950447
1119,789,3.30495,-0.0163839,0.283434,0.950451
1121,787,3.30313,-0.0136499,0.284348,0.94965
1123,785,3.30401,-0.0170702,0.283894,0.949914
1125,783,3.30318,-0.0179803,0.284358,0.949245
1127,781,3.30261,-0.0179534,0.284357,0.949268
1129,779,3.30268,-0.0187045,0.284348,0.948858
1131,777,3.30296,-0.0192958,0.2842,0.948576
1133,775,3.303,-0.0192997,0.284351,0.94858
1135,773,3.30501,-0.0157661,0.283007,0.948324
1137,771,3.30462,-0.0165541,0.283466,0.947746
1139,769,3.30334,-0.0136762,0.283924,0.947398
1141,767,3.30366,-0.0172254,0.283468,0.9474
1143,765,3.3031,-0.0180255,0.283924,0.946765
1145,763,3.30276,-0.0179432,0.283919,0.94681
1147,761,3.30283,-0.018648,0.284067,0.946446
1149,759,3.30281,-0.0187055,0.283928,0.946435
1151,757,3.30239,-0.0194892,0.284387,0.945852
1153,755,3.30195,-0.0194357,0.284388,0.945881
1155,753,3.30431,-0.0166082,0.28342,0.945272
1157,751,3.30419,-0.0166087,0.283038,0.945266
1159,749,3.30413,-0.017022,0.283045,0.94507
1161,747,3.3033,-0.0180532,0.283508,0.94435
1163,745,3.30319,-0.0180213,0.283504,0.944366
1165,743,3.30235,-0.0188601,0.283974,0.943756
1167,741,3.3018,-0.0188668,0.283964,0.943729
1169,739,3.30295,-0.012383,0.283069,0.943138
1171,737,3.30203,-0.0195219,0.28397,0.943422
1173,735,3.30441,-0.0166436,0.282617,0.942815
1175,733,3.30368,-0.0167076,0.283086,0.942589
1177,731,3.30374,-0.0174792,0.283089,0.942016
1179,729,3.30252,-0.0182221,0.283538,0.941609
1181,727,3.30339,-0.011025,0.282651,0.941391
1183,725,3.30205,-0.0189288,0.28354,0.941252
1185,723,3.30198,-0.0189018,0.283549,0.941288
1187,721,3.3014,-0.0197049,0.28407,0.940677
1189,719,3.30306,-0.0124407,0.282648,0.940665
1191,717,3.30259,-0.0131701,0.28326,0.940093
1193,715,3.30293,-0.0176148,0.283133,0.939498
1195,713,3.30295,-0.0101882,0.282058,0.939542
1197,711,3.30283,-0.0182804,0.283131,0.939162
1199,709,3.30351,-0.0117572,0.282225,0.938545
1201,707,3.30219,-0.0189955,0.283126,0.938797
1203,705,3.30127,-0.0197333,0.28359,0.938213
1205,703,3.30314,-0.0160936,0.28192,0.937965
1207,701,3.3026,-0.0169033,0.282696,0.937352
1209,699,3.30324,-0.0168877,0.282242,0.937593
1211,697,3.30178,-0.0140507,0.283153,0.937001
1213,695,3.30265,-0.0176074,0.282703,0.937028
1215,693,3.30267,-0.0182905,0.2827,0.936673
1217,691,3.30151,-0.0191487,0.283174,0.936068
1219,689,3.30126,-0.0191372,0.283176,0.93607
1221,687,3.30047,-0.0199526,0.283646,0.935462
1223,685,3.3024,-0.0168949,0.282355,0.934909
1225,683,3.3013,-0.0133771,0.282736,0.934855
1227,681,3.30143,-0.0140036,0.282729,0.934301
1229,679,3.30232,-0.017658,0.282282,0.934547
1231,677,3.30188,-0.018476,0.28314,0.93395
1233,675,3.30172,-0.0184848,0.28276,0.933941
1235,673,3.30147,-0.0191635,0.28275,0.933841
1237,671,3.30076,-0.019998,0.283219,0.932978
1239,669,3.3027,-0.0163935,0.281866,0.9327
1241,667,3.3021,-0.0169543,0.281861,0.932415
1243,665,3.3004,-0.0134689,0.282788,0.932123
1245,663,3.30257,-0.0105479,0.281419,0.931254
1247,661,3.30149,-0.0184275,0.282334,0.931497
1249,659,3.30119,-0.0185742,0.282336,0.931423
1251,657,3.3017,-0.0193268,0.282337,0.931053
1253,655,3.3013,-0.0192486,0.282328,0.931075
1255,653,3.30037,-0.0200321,0.28288,0.930503
1257,651,3.30096,-0.0135678,0.282368,0.929605
1259,649,3.30125,-0.0173063,0.281922,0.929566
1261,647,3.30119,-0.0179365,0.281915,0.929244
1263,645,3.30115,-0.0180839,0.28192,0.929231
1265,643,3.3002,-0.0187584,0.282389,0.928634
1267,641,3.30098,-0.0187016,0.282344,0.928887
1269,639,3.30065,-0.0195347,0.282386,0.928255
1271,637,3.29966,-0.0203424,0.282868,0.927674
1273,635,3.30181,-0.0173313,0.281502,0.92708
1275,633,3.30191,-0.0174185,0.281502,0.927051
1277,631,3.30073,-0.0181929,0.281981,0.926467
1279,629,3.30127,-0.0114885,0.281539,0.925635
1281,627,3.30039,-0.0188236,0.281985,0.926152
1283,625,3.29955,-0.0195637,0.282465,0.925601
1285,623,3.29974,-0.0202531,0.282452,0.925241
1287,621,3.301,-0.0128579,0.281533,0.924975
1289,619,3.30176,-0.0173119,0.281461,0.9246
1291,617,3.30167,-0.0173835,0.281088,0.924581
1293,615,3.30093,-0.0182734,0.281561,0.923934
1295,613,3.30028,-0.0189213,0.281559,0.923602
1297,611,3.29948,-0.0190528,0.282042,0.923339
1299,609,3.2995,-0.0197037,0.282035,0.922997
1301,607,3.29901,-0.0198424,0.282037,0.922941
1303,605,3.2991,-0.0204884,0.281674,0.922633
1305,603,3.29974,-0.0138119,0.281592,0.921787
1307,601,3.30067,-0.0176223,0.281151,0.921778
1309,599,3.30059,-0.0182995,0.281148,0.921436
1311,597,3.2999,-0.0190359,0.282065,0.920888
1313,595,3.2997,-0.0198799,0.281635,0.920483
1315,593,3.29932,-0.019821,0.28206,0.920494
1317,591,3.29827,-0.0206011,0.282119,0.919905
1319,589,3.30032,-0.016941,0.280732,0.919585
1321,587,3.30023,-0.0175918,0.28074,0.919278
1323,585,3.3001,-0.0182879,0.280734,0.918942
1325,583,3.30028,-0.0183479,0.280733,0.919152
1327,581,3.29986,-0.0191634,0.281221,0.918301
1329,579,3.29936,-0.0198668,0.281202,0.91793
1331,577,3.29906,-0.0198931,0.281201,0.917923
1333,575,3.29802,-0.020762,0.281693,0.917083
1335,573,3.29926,-0.0178531,0.280809,0.916422
1337,571,3.29919,-0.0177943,0.280815,0.916484
1339,569,3.29933,-0.0185112,0.280815,0.916152
1341,567,3.29934,-0.0192148,0.280811,0.915809
1343,565,3.29946,-0.0192614,0.280813,0.915786
1345,563,3.29842,-0.0200328,0.281306,0.91522
1347,561,3.29768,-0.0209019,0.281783,0.914573
1349,559,3.29984,-0.0178831,0.280406,0.913928
1351,557,3.29918,-0.0178921,0.280406,0.914187
1353,555,3.29862,-0.0186263,0.280888,0.913373
1355,553,3.29866,-0.0194103,0.280894,0.912999
1357,551,3.29803,-0.019391,0.280885,0.913005
1359,549,3.29821,-0.0201299,0.280887,0.912647
1361,547,3.2974,-0.0209782,0.28139,0.912055
1363,545,3.29972,-0.0179143,0.280002,0.911428
1365,543,3.29953,-0.0178821,0.280003,0.911463
1367,541,3.29932,-0.0186239,0.280007,0.911116
1369,539,3.29859,-0.0194139,0.280486,0.910514
1371,537,3.29892,-0.0125503,0.28004,0.909642
1373,535,3.29647,-0.0210118,0.281478,0.909334
1375,533,3.29875,-0.0173815,0.280091,0.908977
1377,531,3.29851,-0.0180033,0.280095,0.908692
1379,529,3.29774,-0.0148218,0.280527,0.908337
1381,527,3.29908,-0.0188309,0.280093,0.908304
1383,525,3.29797,-0.0196248,0.28097,0.907714
1385,523,3.29901,-0.012553,0.279631,0.907118
1387,521,3.29671,-0.0211845,0.281083,0.906764
1389,519,3.29735,-0.0134209,0.280127,0.906469
1391,517,3.29842,-0.0181357,0.279692,0.9061
1393,515,3.29762,-0.018865,0.280185,0.905549
1395,513,3.29758,-0.019699,0.280185,0.905151
1397,511,3.2978,-0.019704,0.280192,0.905171
1399,509,3.29807,-0.0127198,0.279732,0.9043
1401,507,3.29812,-0.0133746,0.279734,0.904011
1403,505,3.29805,-0.0103767,0.279116,0.903124
1405,503,3.29677,-0.0150181,0.280229,0.903
1407,501,3.29886,-0.0110586,0.278827,0.902754
1409,499,3.29805,-0.0119731,0.279484,0.902121
1411,497,3.29652,-0.020548,0.280292,0.902051
1413,495,3.29641,-0.0212461,0.280289,0.901714
1415,493,3.29745,-0.0135071,0.279332,0.901391
1417,491,3.29805,-0.0182791,0.279829,0.900799
1419,489,3.29652,-0.0150872,0.279836,0.900444
1421,487,3.2971,-0.0199762,0.279902,0.899817
1423,485,3.29682,-0.0206523,0.279894,0.899462
1425,483,3.29552,-0.020783,0.280396,0.899194
1427,481,3.2978,-0.0175567,0.278996,0.898604
1429,479,3.29563,-0.0144116,0.279943,0.89801
1431,477,3.2957,-0.0152484,0.279948,0.897637
1433,475,3.29676,-0.0120189,0.278809,0.897048
1435,473,3.29814,-0.0124051,0.278541,0.896857
1437,471,3.29807,-0.0135615,0.278771,0.896118
1439,469,3.29751,-0.0134519,0.278542,0.896383
1441,467,3.29651,-0.0143709,0.279041,0.895721
1443,465,3.29532,-0.0152987,0.279559,0.895084
1445,463,3.29673,-0.0121443,0.278646,0.894172
1447,461,3.29588,-0.020087,0.279103,0.894673
1449,459,3.29666,-0.0133155,0.27865,0.893651
1451,457,3.29553,-0.0216567,0.279762,0.893761
1453,455,3.29745,-0.0185092,0.278709,0.892859
1455,453,3.29572,-0.0153015,0.279165,0.892515
1457,451,3.29744,-0.0122168,0.278255,0.8916
1459,449,3.29467,-0.0211116,0.279744,0.891277
1461,447,3.29687,-0.0129785,0.277983,0.891274
1463,445,3.29618,-0.0140602,0.278494,0.89056
1465,443,3.29536,-0.0145763,0.278768,0.890299
1467,441,3.29517,-0.0153214,0.278653,0.88993
1469,439,3.2973,-0.0113708,0.277337,0.889614
1471,437,3.29699,-0.0103192,0.277348,0.888909
1473,435,3.29485,-0.0191316,0.278318,0.888809
1475,433,3.29636,-0.0241574,0.277419,0.887948
1477,431,3.29606,-0.0248414,0.277418,0.887609
1479,429,3.29504,-0.0258126,0.27793,0.886954
1481,427,3.29434,-0.0267424,0.278445,0.886311
1483,425,3.29473,-0.0183874,0.277925,0.886603
1485,423,3.29424,-0.0254011,0.277928,0.885937
1487,421,3.29389,-0.0261361,0.277585,0.885589
1489,419,3.29605,-0.020964,0.276517,0.884647
1491,417,3.29558,-0.0217538,0.276511,0.884286
1493,415,3.2948,-0.0205149,0.276516,0.883643
1495,413,3.29574,-0.0131557,0.275535,0.883024
1497,411,3.2931,-0.0243011,0.277543,0.882701
1499,409,3.29559,-0.0188824,0.275606,0.882047
1501,407,3.29476,-0.0135361,0.275519,0.881614
1503,405,3.29683,-0.00955557,0.274106,0.881306
1505,403,3.29498,-0.0254764,0.275086,0.880559
1507,401,3.29355,-0.028475,0.276121,0.880007
1509,399,3.29532,-0.02439,0.274696,0.879721
1511,397,3.29505,-0.0251415,0.274696,0.879384
1513,395,3.29443,-0.0261729,0.27521,0.878721
1515,393,3.29481,-0.022655,0.274183,0.878295
1517,391,3.29487,-0.0213488,0.273668,0.877884
1519,389,3.29673,-0.0181682,0.272757,0.877015
1521,387,3.29569,-0.0189699,0.272762,0.876638
1523,385,3.29368,-0.0157178,0.273699,0.876035
1525,383,3.29392,-0.0228185,0.274306,0.875507
1527,381,3.2957,-0.0112399,0.272292,0.874773
1529,379,3.29592,-0.0181354,0.271916,0.87439
1531,377,3.29519,-0.0210103,0.272217,0.874104
1533,375,3.29516,-0.0261059,0.272377,0.873458
1535,373,3.29395,-0.0248534,0.272368,0.872768
1537,371,3.2941,-0.0269109,0.272366,0.873061
1539,369,3.29461,-0.0196257,0.271885,0.872169
1541,367,3.29631,-0.020279,0.270494,0.871729
1543,365,3.29626,-0.0178236,0.269927,0.870605
1545,363,3.2958,-0.0125763,0.269955,0.86979
1547,361,3.29465,-0.0195011,0.27043,0.86962
1549,359,3.2948,-0.0133333,0.269948,0.869439
1551,357,3.29623,-0.0161495,0.269023,0.869065
1553,355,3.29546,-0.0239815,0.269014,0.868044
1555,353,3.29527,-0.0247987,0.269016,0.867669
1557,351,3.29441,-0.0235735,0.269016,0.867014
1559,349,3.29345,-0.0266813,0.269525,0.866631
1561,347,3.29566,-0.0212319,0.268102,0.865737
1563,345,3.29509,-0.0219951,0.268158,0.865386
1565,343,3.29498,-0.0220217,0.268092,0.865374
1567,341,3.29628,-0.0124179,0.266583,0.864684
1569,339,3.29422,-0.0217539,0.268105,0.864304
1571,337,3.29642,-0.0182846,0.266678,0.863959
1573,335,3.29567,-0.0169889,0.266674,0.863084
1575,333,3.29559,-0.017912,0.266673,0.862672
1577,331,3.29408,-0.0188054,0.267181,0.862057
1579,329,3.2939,-0.0196079,0.267186,0.861709
1581,327,3.29285,-0.028924,0.267692,0.861087
1583,325,3.29566,-0.0234849,0.265768,0.860402
1585,323,3.29562,-0.0221661,0.265252,0.859949
1587,321,3.29415,-0.0230981,0.265767,0.859358
1589,319,3.29306,-0.0239892,0.26626,0.858711
1591,317,3.29277,-0.0248837,0.266263,0.858318
1593,315,3.29562,-0.0193376,0.26434,0.857678
1595,313,3.29575,-0.0179802,0.26383,0.857259
1597,311,3.29491,-0.0189595,0.264338,0.855138
1599,309,3.29417,-0.0197213,0.264345,0.856311
1601,307,3.29496,-0.0248818,0.263421,0.855416
1603,305,3.29513,-0.0172982,0.263422,0.855052
1605,303,3.29478,-0.0265144,0.263426,0.85473
1607,301,3.2945,-0.0252659,0.263858,0.85407
1609,299,3.29422,-0.0249937,0.263427,0.852973
1611,297,3.29577,-0.02147,0.26201,0.852414
1613,295,3.2951,-0.0203098,0.262003,0.851695
1615,293,3.29426,-0.023278,0.262504,0.851389
1617,291,3.29571,-0.0155792,0.261135,0.850834
1619,289,3.29403,-0.0206498,0.262001,0.850354
1621,287,3.29503,-0.0215786,0.260989,0.849719
1623,285,3.2947,-0.0267307,0.261089,0.849108
1625,283,3.29545,-0.0190516,0.260197,0.848497
1627,281,3.29322,-0.0284506,0.261589,0.848151
1629,279,3.29529,-0.0250382,0.260169,0.847538
1631,277,3.29615,-0.0215139,0.259167,0.847076
1633,275,3.2974,-0.0117899,0.25765,0.846363
1635,273,3.29442,-0.0221076,0.259665,0.845375
1637,271,3.29307,-0.0230629,0.260163,0.844736
1639,269,3.29483,-0.0217895,0.259246,0.844205
1641,267,3.29518,-0.0204677,0.258742,0.843779
1643,265,3.29513,-0.0189881,0.258242,0.843413
1645,263,3.29492,-0.0262481,0.257741,0.842954
1647,261,3.29599,-0.0229229,0.256824,0.842106
1649,259,3.295,-0.0238641,0.257315,0.84148
1651,257,3.29468,-0.0247601,0.257452,0.841103
1653,255,3.29557,-0.0170869,0.256294,0.840497
1655,253,3.2941,-0.0251976,0.257317,0.83969
1657,251,3.29636,-0.0195256,0.2554,0.839041
1659,249,3.29585,-0.0182909,0.255829,0.838369
1661,247,3.29491,-0.0190987,0.255397,0.838011
1663,245,3.29415,-0.0200625,0.255892,0.837166
1665,243,3.2963,-0.016611,0.254521,0.836787
1667,241,3.29524,-0.017564,0.254965,0.836162
1669,239,3.29501,-0.0269587,0.254966,0.835822
1671,237,3.29467,-0.0255964,0.254822,0.835387
1673,235,3.29419,-0.0251465,0.254475,0.834388
1675,233,3.29542,-0.0218387,0.253543,0.83349
1677,231,3.29506,-0.0226914,0.253543,0.833122
1679,229,3.29545,-0.0150822,0.253,0.832238
1681,227,3.29576,-0.0136751,0.252507,0.831837
1683,225,3.29573,-0.0123534,0.25201,0.831406
1685,223,3.29442,-0.0133392,0.25251,0.830793
1687,221,3.29447,-0.0280248,0.252613,0.829811
1689,219,3.29371,-0.0287737,0.252619,0.829501
1691,217,3.29301,-0.0296794,0.253104,0.828901
1693,215,3.29576,-0.0253269,0.251178,0.828846
1695,213,3.29566,-0.0226993,0.250674,0.827705
1697,211,3.29454,-0.0238126,0.251188,0.827078
1699,209,3.29402,-0.0246459,0.251186,0.826711
1701,207,3.29549,-0.021292,0.250682,0.825846
1703,205,3.29506,-0.0220591,0.250248,0.825517
1705,203,3.29527,-0.0206461,0.249755,0.825107
1707,201,3.29478,-0.0195379,0.249755,0.824356
1709,199,3.2933,-0.0298923,0.250249,0.823457
1711,197,3.2956,-0.0264631,0.248827,0.822826
1713,195,3.29407,-0.0273981,0.249315,0.822217
1715,193,3.294,-0.028339,0.249315,0.821812
1717,191,3.29399,-0.0268604,0.248817,0.821424
1719,189,3.29574,-0.0236059,0.24788,0.820474
1721,187,3.29531,-0.0221715,0.247388,0.820071
1723,185,3.29462,-0.0217578,0.24739,0.819035
1725,183,3.2936,-0.0227337,0.247883,0.818433
1727,181,3.29583,-0.0192019,0.246456,0.817827
1729,179,3.29601,-0.0178135,0.245975,0.81742
1731,177,3.29482,-0.0283157,0.24649,0.81501
1733,175,3.29478,-0.0269128,0.245963,0.816049
1735,173,3.29553,-0.0258169,0.245528,0.815246
1737,171,3.29463,-0.0267982,0.246007,0.814623
1739,169,3.29449,-0.0253951,0.245162,0.814206
1741,167,3.29486,-0.0217599,0.244543,0.813684
1743,165,3.29417,-0.0235568,0.245028,0.812733
1745,163,3.29537,-0.0202466,0.244092,0.811816
1747,161,3.29495,-0.0210865,0.24409,0.811437
1749,159,3.29381,-0.0220214,0.244576,0.810854
1751,157,3.29392,-0.0206531,0.244091,0.810434
1753,155,3.29472,-0.0216231,0.243028,0.809792
1755,153,3.29522,-0.0277977,0.243152,0.808862
1757,151,3.29405,-0.0263824,0.243152,0.808235
1759,149,3.29347,-0.027323,0.243148,0.807822
1761,147,3.29599,-0.0238282,0.241729,0.807209
1763,145,3.29515,-0.0246755,0.24221,0.806657
1765,143,3.2964,-0.0132533,0.240782,0.805202
1767,141,3.2942,-0.0229328,0.241721,0.805131
1769,139,3.29569,-0.0194762,0.240781,0.804269
1771,137,3.29403,-0.0158257,0.241138,0.803942
1773,135,3.29657,-0.0123124,0.239704,0.80329
1775,133,3.29573,-0.0207283,0.239707,0.802537
1777,131,3.29305,-0.0306864,0.241264,0.801901
1779,129,3.2954,-0.0248093,0.239345,0.801212
1781,127,3.29522,-0.0192169,0.239247,0.800401
1783,125,3.29396,-0.0266569,0.239833,0.800265
1785,123,3.29344,-0.0262299,0.239823,0.799201
1787,121,3.29585,-0.0203517,0.237911,0.79828
1789,119,3.29529,-0.0212641,0.237918,0.798159
1791,117,3.29418,-0.0222613,0.238407,0.797557
1793,115,3.29472,-0.0150711,0.237804,0.796347
1795,113,3.2959,-0.0270854,0.237002,0.795973
1797,111,3.29476,-0.0280966,0.237459,0.795364
1799,109,3.29521,-0.0187321,0.236383,0.794043
1801,107,3.29359,-0.0262297,0.236967,0.793845
1803,105,3.29379,-0.0205883,0.237182,0.793048
1805,103,3.2951,-0.0237057,0.236022,0.792607
1807,101,3.29471,-0.024604,0.236018,0.792227
1809,99,3.29547,-0.015114,0.234937,0.790953
1811,97,3.29497,-0.0206096,0.235069,0.790337
1813,95,3.29526,-0.0191371,0.234584,0.789901
1815,93,3.29483,-0.0200605,0.23458,0.789535
1817,91,3.29371,-0.030041,0.235062,0.78897
1819,89,3.2957,-0.0265258,0.233635,0.788562
1821,87,3.29468,-0.0260538,0.233629,0.787275
1823,85,3.29361,-0.0270082,0.234111,0.786686
1825,83,3.29347,-0.0278871,0.234111,0.786349
1827,81,3.2955,-0.015229,0.232063,0.785513
1829,79,3.29555,-0.0214953,0.232214,0.784592
1831,77,3.29403,-0.0226361,0.232679,0.783939
1833,75,3.29261,-0.0235699,0.23315,0.783342
1835,73,3.29641,-0.017547,0.230491,0.782889
1837,71,3.29392,-0.0238437,0.231597,0.781999
1839,69,3.29522,-0.0270298,0.230763,0.78153
1841,67,3.29408,-0.0214163,0.231101,0.780471
1843,65,3.29472,-0.0268046,0.230757,0.780134
1845,63,3.29439,-0.027706,0.23076,0.779794
1847,61,3.29476,-0.0225801,0.229802,0.778572
1849,59,3.29438,-0.0211592,0.229333,0.778143
1851,57,3.29528,-0.0199055,0.228837,0.777336
1853,55,3.29419,-0.0219049,0.22932,0.776331
1855,53,3.29592,-0.0112144,0.227739,0.775681
1857,51,3.2939,-0.0303615,0.228837,0.775626
1859,49,3.29542,-0.0269356,0.227881,0.774724
1861,47,3.29439,-0.0264528,0.227882,0.773668
1863,45,3.29258,-0.0298667,0.228838,0.773146
1865,43,3.2934,-0.0260136,0.228201,0.772633
1867,41,3.29573,-0.0223468,0.226444,0.772014
1869,39,3.29547,-0.0209189,0.225965,0.771552
1871,37,3.29362,-0.0243188,0.226916,0.771017
1873,35,3.29342,-0.0251271,0.226908,0.770694
1875,33,3.29317,-0.0222998,0.226428,0.769549
1877,31,3.29516,-0.027941,0.225001,0.76893
1879,29,3.2938,-0.0289972,0.225478,0.768325
1881,27,3.29339,-0.029957,0.225791,0.767943
1883,25,3.2938,-0.0217219,0.224834,0.76709
1885,23,3.29502,-0.0234436,0.224035,0.765971
1887,21,3.29416,-0.0243741,0.22403,0.765599
1889,19,3.29306,-0.0252909,0.224503,0.765027
1891,17,3.29222,-0.0286671,0.224972,0.764732
1893,15,3.29499,-0.0212107,0.223066,0.763326
1895,13,3.29454,-0.0196812,0.222582,0.762894
1897,11,3.29442,-0.0124274,0.222414,0.761417
1899,9,3.2918,-0.0226805,0.223852,0.761339
1901,7,3.29438,-0.0283069,0.222096,0.760738
1903,5,3.29433,-0.0267959,0.221628,0.760308
1905,3,3.29369,-0.0239525,0.221153,0.759147