File: hust_correlation_analysis/matrices/HUST_3-5_cycle_feature_matrix.csv
cycle_number,rul,voltage,current,capacity,charge_capacity
1,2659,3.32083,-0.00663498,0.34275,1.0631
4,2656,3.30958,-0.00852239,0.349144,1.05676
7,2653,3.3092,-0.0101153,0.349593,1.05561
10,2650,3.30882,-0.0107727,0.349582,1.05519
13,2647,3.31008,-0.00910762,0.34887,1.05406
16,2644,3.30987,-0.00972542,0.348866,1.05369
19,2641,3.30987,-0.0101997,0.348863,1.0534
22,2638,3.30941,-0.0114291,0.349321,1.05249
25,2635,3.311,-0.00900186,0.347695,1.05217
28,2632,3.31085,-0.00905801,0.347673,1.05207
31,2629,3.31025,-0.00977506,0.348121,1.05143
34,2626,3.31055,-0.00978923,0.348246,1.0516
37,2623,3.30991,-0.010391,0.348107,1.05103
40,2620,3.30973,-0.010946,0.348099,1.05067
43,2617,3.30954,-0.0116022,0.348549,1.05007
46,2614,3.31118,-0.00871178,0.34693,1.05005
49,2611,3.31037,-0.00928339,0.347374,1.04948
52,2608,3.31061,-0.00990453,0.34738,1.04914
55,2605,3.31052,-0.0104368,0.34737,1.0488
58,2602,3.31032,-0.0104511,0.347366,1.04879
61,2599,3.31017,-0.0110305,0.347362,1.04842
64,2596,3.30972,-0.0116797,0.347813,1.04785
67,2593,3.31116,-0.00884663,0.346652,1.04761
70,2590,3.3109,-0.00960212,0.346655,1.04716
73,2587,3.31097,-0.00986768,0.346667,1.04705
76,2584,3.3111,-0.0104046,0.346665,1.04673
79,2581,3.31083,-0.0104701,0.346654,1.04666
82,2578,3.31071,-0.0110098,0.346648,1.04631
85,2575,3.31053,-0.0110351,0.346644,1.04629
88,2572,3.31015,-0.0117077,0.347099,1.0457
91,2569,3.31159,-0.0088475,0.345944,1.0455
94,2566,3.31172,-0.00938613,0.345961,1.04522
97,2563,3.31146,-0.00985218,0.345957,1.04493
100,2560,3.3113,-0.00991241,0.345951,1.04488
103,2557,3.31112,-0.0105298,0.346399,1.0443
106,2554,3.31081,-0.0105568,0.346398,1.04429
109,2551,3.31115,-0.0105108,0.345937,1.0445
112,2548,3.31056,-0.011095,0.346396,1.04396
115,2545,3.3106,-0.0116424,0.346408,1.04366
118,2542,3.31034,-0.0116258,0.34641,1.04369
121,2539,3.31179,-0.00941165,0.345702,1.04288
124,2536,3.3115,-0.00936276,0.345691,1.04287
127,2533,3.31181,-0.00923704,0.345232,1.04313
130,2530,3.31144,-0.0099542,0.345685,1.0425
133,2527,3.31122,-0.00994726,0.345685,1.0425
136,2524,3.3114,-0.010534,0.345692,1.04218
139,2521,3.31085,-0.0106166,0.346167,1.04199
142,2518,3.31078,-0.011107,0.346273,1.04172
145,2515,3.3106,-0.0111076,0.346164,1.04171
148,2512,3.31057,-0.0116683,0.346161,1.04135
151,2509,3.31044,-0.0116689,0.346162,1.04135
154,2506,3.31202,-0.00872478,0.344996,1.04116
157,2503,3.31162,-0.00944887,0.345376,1.04056
160,2500,3.31167,-0.00939439,0.345471,1.04063
163,2497,3.31158,-0.00993264,0.345476,1.04031
166,2494,3.31141,-0.00994182,0.345478,1.0404
169,2491,3.31117,-0.0105827,0.345934,1.03974
172,2488,3.3109,-0.0105847,0.345933,1.03974
175,2485,3.31125,-0.0105146,0.345477,1.03997
178,2482,3.3109,-0.0111524,0.345932,1.0394
181,2479,3.31066,-0.0112274,0.345929,1.03935
184,2476,3.31051,-0.0111473,0.345936,1.03941
187,2473,3.31035,-0.0111229,0.346493,1.03936
190,2470,3.31058,-0.0115745,0.345923,1.03912
193,2467,3.31036,-0.0117757,0.345928,1.03902
196,2464,3.31202,-0.00887022,0.344765,1.0388
199,2461,3.31169,-0.00944267,0.345221,1.03826
202,2458,3.31145,-0.0094852,0.345221,1.03824
205,2455,3.31169,-0.0100065,0.345219,1.03794
208,2452,3.31142,-0.0100644,0.345227,1.03791
211,2449,3.31115,-0.0100613,0.345224,1.0379
214,2446,3.31138,-0.0105884,0.345214,1.03756
217,2443,3.31121,-0.0105894,0.34516,1.03754
220,2440,3.31125,-0.010573,0.345186,1.03751
223,2437,3.31111,-0.0106268,0.345175,1.03742
226,2434,3.31055,-0.0107894,0.345633,1.03713
229,2431,3.31084,-0.0120983,0.345625,1.03763
232,2428,3.30986,-0.0118337,0.346081,1.03756
235,2425,3.31068,-0.0123358,0.345619,1.03746
238,2422,3.31007,-0.0128355,0.346079,1.03699
241,2419,3.31,-0.012867,0.346075,1.03696
244,2416,3.3105,-0.0127969,0.345615,1.03719
247,2413,3.30995,-0.0133778,0.346065,1.03663
250,2410,3.30965,-0.0134061,0.346079,1.03664
253,2407,3.31155,-0.00962267,0.344464,1.03587
256,2404,3.3115,-0.00959269,0.344467,1.03591
259,2401,3.3115,-0.010103,0.344467,1.0356
262,2398,3.31143,-0.0101196,0.344459,1.03557
265,2395,3.31145,-0.0101259,0.344452,1.03555
268,2392,3.31105,-0.0116172,0.344911,1.03576
271,2389,3.31129,-0.0121972,0.344909,1.03542
274,2386,3.311,-0.0106737,0.344463,1.03525
277,2383,3.31105,-0.0112668,0.344471,1.03493
280,2380,3.311,-0.0112141,0.344471,1.03496
283,2377,3.31085,-0.0112341,0.344465,1.03493
286,2374,3.31077,-0.011206,0.344457,1.03493
289,2371,3.31051,-0.0118666,0.344913,1.03435
292,2368,3.31016,-0.0134829,0.345369,1.03448
295,2365,3.30986,-0.0134407,0.345375,1.03451
298,2362,3.31182,-0.0095746,0.343758,1.03377
301,2359,3.31174,-0.00955127,0.343764,1.0338
304,2356,3.31162,-0.00954807,0.343762,1.0338
307,2353,3.31178,-0.0100463,0.343759,1.03349
310,2350,3.31165,-0.0100938,0.34376,1.03346
313,2347,3.31153,-0.0101754,0.343756,1.03341
316,2344,3.31159,-0.0101221,0.343754,1.03344
319,2341,3.31137,-0.0105748,0.343757,1.03343
322,2338,3.31135,-0.0106744,0.34377,1.03317
325,2335,3.31089,-0.0113199,0.344236,1.03287
328,2332,3.3113,-0.0111634,0.343774,1.03288
331,2329,3.31113,-0.0111859,0.343764,1.03284
334,2326,3.31083,-0.0119198,0.344223,1.03223
337,2323,3.31072,-0.0118926,0.344219,1.03223
340,2320,3.31046,-0.0118823,0.344218,1.03223
343,2317,3.31232,-0.00899866,0.343068,1.03203
346,2314,3.31221,-0.00950251,0.343075,1.03174
349,2311,3.31226,-0.00945091,0.343077,1.03178
352,2308,3.31177,-0.0101606,0.343536,1.03117
355,2305,3.31207,-0.0100286,0.343077,1.03143
358,2302,3.31194,-0.0100575,0.343065,1.03139
361,2299,3.31179,-0.0101135,0.343065,1.03135
364,2296,3.31151,-0.0107724,0.343534,1.0308
367,2293,3.31129,-0.0107286,0.343541,1.03085
370,2290,3.31145,-0.0112241,0.343547,1.03057
373,2287,3.31131,-0.0112193,0.343545,1.03057
376,2284,3.31126,-0.0112173,0.343547,1.03059
379,2281,3.31099,-0.0112856,0.344122,1.03025
382,2278,3.31125,-0.0117983,0.343531,1.03019
385,2275,3.31102,-0.0118434,0.343527,1.03015
388,2272,3.31081,-0.0118752,0.343543,1.03018
391,2269,3.31239,-0.00947382,0.342852,1.02949
394,2266,3.31221,-0.0095515,0.342858,1.02948
397,2263,3.31235,-0.0100258,0.342861,1.02919
400,2260,3.31216,-0.00999095,0.342859,1.02921
403,2257,3.31208,-0.0100295,0.342857,1.02917
406,2254,3.31188,-0.01007,0.342957,1.02914
409,2251,3.31204,-0.0103777,0.342838,1.02893
412,2248,3.31146,-0.0107668,0.343317,1.02855
415,2245,3.31189,-0.0105962,0.342859,1.02885
418,2242,3.3114,-0.0112829,0.343927,1.02832
421,2239,3.3114,-0.0112355,0.343313,1.02828
424,2236,3.31116,-0.011337,0.3433,1.02818
427,2233,3.31137,-0.0112697,0.342832,1.02865
430,2230,3.3113,-0.0112923,0.342829,1.02836
433,2227,3.31078,-0.0113891,0.343289,1.02811
436,2224,3.31083,-0.0118242,0.343295,1.02788
439,2221,3.31063,-0.0119701,0.343294,1.02778
442,2218,3.31061,-0.0119416,0.343293,1.0278
445,2215,3.31234,-0.00903194,0.342119,1.02753
448,2212,3.31238,-0.0095627,0.342117,1.0272
451,2209,3.31216,-0.00962342,0.342117,1.02717
454,2206,3.31212,-0.00958514,0.342814,1.02718
457,2203,3.31206,-0.00963131,0.342114,1.02715
460,2200,3.3121,-0.010142,0.342126,1.02689
463,2197,3.31177,-0.0107745,0.343186,1.02637
466,2194,3.31174,-0.0107541,0.342596,1.02637
469,2191,3.31146,-0.0107976,0.342588,1.02632
472,2188,3.31135,-0.0107892,0.342585,1.02632
475,2185,3.31167,-0.0107547,0.34212,1.02651
478,2182,3.31137,-0.0113142,0.342578,1.026
481,2179,3.31118,-0.0113912,0.342593,1.02599
484,2176,3.3113,-0.0119865,0.342607,1.02567
487,2173,3.31115,-0.0118795,0.342606,1.02574
490,2170,3.311,-0.0119716,0.342604,1.02568
493,2167,3.3109,-0.0119454,0.342587,1.02565
496,2164,3.31257,-0.00906433,0.341412,1.02535
499,2161,3.31254,-0.00957416,0.341409,1.02504
502,2158,3.31241,-0.00961437,0.341405,1.025
505,2155,3.31242,-0.0096127,0.341414,1.02503
508,2152,3.31205,-0.0102217,0.341897,1.02455
511,2149,3.31208,-0.0102192,0.341906,1.02458
514,2146,3.31172,-0.0102015,0.341981,1.02455
517,2143,3.31194,-0.0107735,0.34188,1.02418
520,2140,3.31163,-0.010833,0.342464,1.02413
523,2137,3.31164,-0.0108305,0.34188,1.02414
526,2134,3.31148,-0.0108517,0.341879,1.02412
529,2131,3.31167,-0.0114043,0.341905,1.02388
532,2128,3.31116,-0.0113813,0.342373,1.02374
535,2125,3.31115,-0.0119738,0.342383,1.02341
538,2122,3.31093,-0.0119847,0.342379,1.0234
541,2119,3.31271,-0.00898242,0.341312,1.02318
544,2116,3.31271,-0.00956199,0.341299,1.02284
547,2113,3.31271,-0.00954517,0.341211,1.02284
550,2110,3.31242,-0.00960886,0.341218,1.02284
553,2107,3.31259,-0.010051,0.341311,1.02259
556,2104,3.31222,-0.0101913,0.34169,1.02234
559,2101,3.31236,-0.0101142,0.341229,1.02258
562,2098,3.31201,-0.0107862,0.341694,1.02202
565,2095,3.312,-0.0107312,0.341076,1.02204
568,2092,3.31204,-0.0107285,0.341235,1.02223
571,2089,3.31206,-0.0107043,0.341933,1.02224
574,2086,3.31154,-0.0113695,0.341702,1.02149
577,2083,3.31145,-0.0113695,0.341698,1.02167
580,2080,3.31134,-0.0114075,0.341694,1.02165
583,2077,3.31141,-0.0113785,0.341692,1.02166
586,2074,3.31131,-0.0120112,0.341689,1.02128
589,2071,3.31122,-0.0120224,0.341687,1.02007
592,2068,3.31099,-0.0120052,0.341682,1.02126
595,2065,3.31102,-0.0120259,0.341788,1.02124
598,2062,3.31278,-0.00962227,0.340512,1.02067
601,2059,3.3127,-0.00964809,0.340515,1.02066
604,2056,3.3126,-0.00967868,0.340517,1.02065
607,2053,3.31273,-0.0101971,0.340515,1.02034
610,2050,3.31251,-0.0102249,0.340511,1.02031
613,2047,3.31246,-0.0101892,0.34051,1.02034
616,2044,3.31228,-0.0102655,0.340512,1.02029
619,2041,3.31252,-0.0107809,0.340503,1.01996
622,2038,3.31231,-0.0108671,0.341214,1.01993
625,2035,3.31213,-0.0108277,0.340511,1.01997
628,2032,3.31203,-0.0115072,0.340981,1.01941
631,2029,3.31169,-0.0114649,0.340978,1.01942
634,2026,3.31197,-0.0114053,0.340513,1.01963
637,2023,3.31159,-0.0121044,0.340972,1.01902
640,2020,3.31139,-0.0120906,0.340977,1.01905
643,2017,3.31135,-0.0120778,0.340974,1.01905
646,2014,3.31323,-0.00955846,0.339813,1.01858
649,2011,3.31306,-0.00958179,0.339823,1.01859
652,2008,3.31303,-0.00955553,0.339819,1.0186
655,2005,3.31268,-0.0102465,0.340292,1.01803
658,2002,3.31255,-0.0101416,0.340291,1.01808
661,1999,3.31266,-0.0101961,0.339821,1.01822
664,1996,3.31244,-0.0108326,0.340287,1.01766
667,1993,3.31256,-0.0106724,0.340516,1.01792
670,1990,3.31254,-0.0107795,0.339793,1.01778
673,1987,3.31189,-0.0109388,0.340264,1.01753
676,1984,3.3123,-0.0108224,0.339791,1.01776
679,1981,3.31184,-0.0115206,0.340277,1.01724
682,1978,3.31171,-0.0114947,0.340276,1.01726
685,1975,3.31212,-0.0114958,0.339806,1.01767
688,1972,3.31175,-0.0120985,0.340267,1.01687
691,1969,3.31158,-0.0121016,0.340267,1.01686
694,1966,3.31153,-0.0121434,0.340266,1.01683
697,1963,3.31334,-0.00908607,0.3391,1.01666
700,1960,3.31286,-0.00973237,0.339567,1.0161
703,1957,3.31298,-0.0102891,0.339587,1.01584
706,1954,3.31286,-0.0103234,0.339498,1.01579
709,1951,3.31279,-0.0102785,0.339575,1.01581
712,1948,3.31244,-0.010342,0.33957,1.01576
715,1945,3.31261,-0.0108199,0.339571,1.01545
718,1942,3.31235,-0.0109285,0.339559,1.01536
721,1939,3.31239,-0.0109611,0.339563,1.01536
724,1936,3.31222,-0.0110221,0.339567,1.01534
727,1933,3.31234,-0.0114116,0.339559,1.01509
730,1930,3.31214,-0.0114815,0.339552,1.01502
733,1927,3.31201,-0.0115334,0.340244,1.01497
736,1924,3.31192,-0.0114917,0.339539,1.01498
739,1921,3.31193,-0.0121464,0.339543,1.01482
742,1918,3.31339,-0.00958602,0.338859,1.014
745,1915,3.31313,-0.00979134,0.338871,1.01418
748,1912,3.31335,-0.0102021,0.338861,1.01234
751,1909,3.31304,-0.0102905,0.338852,1.01355
754,1906,3.31297,-0.0102858,0.338846,1.01354
757,1903,3.3128,-0.0103877,0.338925,1.01347
760,1900,3.31317,-0.0102852,0.338371,1.0137
763,1897,3.31277,-0.0108596,0.338838,1.0132
766,1894,3.31238,-0.0115495,0.339323,1.01266
769,1891,3.31223,-0.0115371,0.339335,1.0127
772,1888,3.31212,-0.0116114,0.339334,1.01266
775,1885,3.31212,-0.0120414,0.33933,1.01239
778,1882,3.31191,-0.0121187,0.339323,1.01232
781,1879,3.31184,-0.0121479,0.339323,1.0123
784,1876,3.31362,-0.00970969,0.338257,1.01173
787,1873,3.31355,-0.00969091,0.338157,1.01176
790,1870,3.31324,-0.0103444,0.338635,1.01124
793,1867,3.31303,-0.0102833,0.338636,1.01127
796,1864,3.31334,-0.0101535,0.338165,1.01152
799,1861,3.31291,-0.0109057,0.338736,1.01089
802,1858,3.31285,-0.0108892,0.338627,1.0109
805,1855,3.31248,-0.0109478,0.338626,1.01085
808,1852,3.31225,-0.0116104,0.339093,1.01028
811,1849,3.31238,-0.0115297,0.338617,1.01048
814,1846,3.31221,-0.0114793,0.338621,1.01053
817,1843,3.31208,-0.0120614,0.339097,1.01002
820,1840,3.31167,-0.0121686,0.339087,1.00994
823,1837,3.31348,-0.00915807,0.337925,1.00973
826,1834,3.31323,-0.00922555,0.337914,1.00965
829,1831,3.3133,-0.00972686,0.337911,1.00934
832,1828,3.3131,-0.00982263,0.337906,1.00927
835,1825,3.31295,-0.00976644,0.338595,1.00927
838,1822,3.31311,-0.0102423,0.3379,1.00901
841,1819,3.31291,-0.0104112,0.337912,1.00894
844,1816,3.31258,-0.0110783,0.338387,1.0084
847,1813,3.31228,-0.0110541,0.338382,1.00839
850,1810,3.31263,-0.0109554,0.337906,1.0086
853,1807,3.31261,-0.0110184,0.337899,1.00855
856,1804,3.31204,-0.0116437,0.338471,1.00802
859,1801,3.3121,-0.011716,0.338376,1.00799
862,1798,3.31197,-0.0122371,0.338406,1.00777
865,1795,3.31349,-0.00971369,0.337706,1.00708
868,1792,3.31321,-0.00983501,0.337688,1.00721
871,1789,3.31357,-0.00971847,0.337222,1.0072
874,1786,3.31338,-0.00977753,0.337216,1.00715
877,1783,3.313,-0.0104107,0.338262,1.00658
880,1780,3.31288,-0.0103935,0.337669,1.00657
883,1777,3.31279,-0.0105351,0.337662,1.00645
886,1774,3.31295,-0.011058,0.337684,1.00623
889,1771,3.31265,-0.0110139,0.337694,1.00628
892,1768,3.31234,-0.0116977,0.338163,1.0057
895,1765,3.31269,-0.0115686,0.337678,1.00591
898,1762,3.31244,-0.0116424,0.337681,1.00586
901,1759,3.31236,-0.0116212,0.33767,1.00585
904,1756,3.31179,-0.0123179,0.338137,1.00526
907,1753,3.31166,-0.0123076,0.338132,1.00525
910,1750,3.3139,-0.00920451,0.336499,1.00552
913,1747,3.31333,-0.00979389,0.336963,1.0047
916,1744,3.31344,-0.0103611,0.33698,1.00443
919,1741,3.31315,-0.0104414,0.336984,1.0044
922,1738,3.31268,-0.010516,0.337456,1.00419
925,1735,3.31275,-0.0111021,0.337457,1.00385
928,1732,3.31256,-0.0110246,0.337457,1.00389
931,1729,3.31263,-0.011602,0.337464,1.00357
934,1726,3.31244,-0.0116734,0.337471,1.00356
937,1723,3.31237,-0.0116512,0.337476,1.00359
940,1720,3.31192,-0.0123306,0.33795,1.00301
943,1717,3.31168,-0.0123073,0.337939,1.003
946,1714,3.31205,-0.0122137,0.337455,1.00319
949,1711,3.31341,-0.00991165,0.336752,1.00234
952,1708,3.31329,-0.00993282,0.336752,1.00232
955,1705,3.31329,-0.00991969,0.336769,1.0024
958,1702,3.31325,-0.0103757,0.336777,1.00215
961,1699,3.31324,-0.0109407,0.336778,1.00183
964,1696,3.31262,-0.0111367,0.337253,1.00154
967,1693,3.31291,-0.0110297,0.33676,1.00171
970,1690,3.3128,-0.0110225,0.33675,1.00168
973,1687,3.31265,-0.0110819,0.336746,1.00163
976,1684,3.31226,-0.011746,0.337209,1.00129
979,1681,3.31206,-0.0118401,0.337213,1.001
982,1678,3.31247,-0.0117311,0.33674,1.00124
985,1675,3.31207,-0.0123279,0.337212,1.00072
988,1672,3.31173,-0.0123966,0.337317,1.00067
991,1669,3.31357,-0.00933167,0.336033,1.00042
994,1666,3.31358,-0.00991258,0.336028,1.00007
997,1663,3.31293,-0.0100463,0.336497,0.999794
1000,1660,3.31336,-0.00993715,0.336124,1.00002
1003,1657,3.31281,-0.0106938,0.3365,0.999427
1006,1654,3.31284,-0.011193,0.336516,0.999189
1009,1651,3.31273,-0.0110925,0.33652,0.999262
1012,1648,3.31228,-0.0118156,0.336991,0.998645
1015,1645,3.31252,-0.0116936,0.336512,0.998874
1018,1642,3.31242,-0.0117125,0.337087,0.998837
1021,1639,3.31212,-0.0117811,0.336497,0.998797
1024,1636,3.31179,-0.012478,0.336971,0.998211
1027,1633,3.31206,-0.0124188,0.3365,0.998426
1030,1630,3.3135,-0.00991679,0.335815,0.997728
1033,1627,3.31343,-0.00995186,0.335817,0.99772
1036,1624,3.31332,-0.0105769,0.335816,0.995941
1039,1621,3.31325,-0.0105421,0.335813,0.997357
1042,1618,3.3131,-0.0105348,0.335808,0.997089
1045,1615,3.31258,-0.0112689,0.336281,0.996736
1048,1612,3.31248,-0.0112204,0.336278,0.996766
1051,1609,3.31243,-0.0117462,0.336281,0.99624
1054,1606,3.31213,-0.0118624,0.336287,0.99641
1057,1603,3.31227,-0.0126573,0.336285,0.995942
1060,1600,3.31206,-0.0123669,0.336288,0.9962
1063,1597,3.31181,-0.0124714,0.336282,0.996046
1066,1594,3.3134,-0.0100355,0.335593,0.995284
1069,1591,3.31324,-0.00996787,0.33559,0.995324
1072,1588,3.31303,-0.0100047,0.335595,0.995318
1075,1585,3.31303,-0.0106374,0.335488,0.99494
1078,1582,3.31297,-0.0105688,0.335599,0.995015
1081,1579,3.31238,-0.0112612,0.336081,0.994434
1084,1576,3.31268,-0.0111642,0.335603,0.994669
1087,1573,3.31272,-0.0117391,0.335601,0.99433
1090,1570,3.31204,-0.0119073,0.336037,0.994068
1093,1567,3.31241,-0.0118285,0.335597,0.994275
1096,1564,3.31199,-0.012429,0.336072,0.993742
1099,1561,3.31174,-0.012567,0.336078,0.993676
1102,1558,3.3137,-0.0100189,0.334914,0.993152
1105,1555,3.3136,-0.00994919,0.334919,0.993227
1108,1552,3.31306,-0.0106449,0.335395,0.992641
1111,1549,3.3134,-0.0105369,0.334911,0.992854
1114,1546,3.31338,-0.0105142,0.33491,0.992856
1117,1543,3.31279,-0.0112455,0.335389,0.992261
1120,1540,3.3127,-0.0112284,0.335387,0.99227
1123,1537,3.31276,-0.0118282,0.33539,0.991918
1126,1534,3.31249,-0.0118727,0.33539,0.991897
1129,1531,3.31242,-0.0117758,0.335392,0.991964
1132,1528,3.31187,-0.0125213,0.335873,0.991375
1135,1525,3.31222,-0.0124627,0.335391,0.991569
1138,1522,3.31358,-0.00998702,0.334694,0.990794
1141,1519,3.31338,-0.0100379,0.334692,0.990761
1144,1516,3.31375,-0.00994214,0.334216,0.990989
1147,1513,3.31277,-0.0107314,0.335169,0.990175
1150,1510,3.31317,-0.0105931,0.334689,0.990424
1153,1507,3.31271,-0.0113199,0.335152,0.990035
1156,1504,3.31248,-0.0114619,0.335163,0.989733
1159,1501,3.31275,-0.0112696,0.334679,0.990006
1162,1498,3.31247,-0.0119844,0.335151,0.989398
1165,1495,3.31228,-0.011978,0.335146,0.989386
1168,1492,3.31199,-0.0119813,0.33514,0.989357
1171,1489,3.31213,-0.012629,0.335139,0.988982
1174,1486,3.31191,-0.0126263,0.335149,0.989019
1177,1483,3.31375,-0.0101151,0.333988,0.988475
1180,1480,3.31345,-0.0106539,0.334468,0.987991
1183,1477,3.31322,-0.0106583,0.334462,0.987983
1186,1474,3.31302,-0.0106653,0.334439,0.987899
1189,1471,3.31278,-0.0107746,0.334439,0.987832
1192,1468,3.31286,-0.0113288,0.334427,0.987477
1195,1465,3.3127,-0.0113573,0.334424,0.987444
1198,1462,3.31264,-0.0114137,0.334423,0.987396
1201,1459,3.31207,-0.0120868,0.334908,0.986863
1204,1456,3.31242,-0.0120161,0.33444,0.987115
1207,1453,3.31196,-0.0126004,0.334991,0.986587
1210,1450,3.31182,-0.0127393,0.334905,0.986485
1213,1447,3.3135,-0.00957732,0.33379,0.986254
1216,1444,3.3134,-0.0101238,0.334424,0.985909
1219,1441,3.31338,-0.0101096,0.333708,0.985894
1222,1438,3.31313,-0.0102587,0.333709,0.985825
1225,1435,3.31311,-0.0108187,0.333723,0.98552
1228,1432,3.31277,-0.0114764,0.334205,0.984984
1231,1429,3.31256,-0.0113283,0.334793,0.98508
1234,1426,3.31259,-0.0121293,0.334205,0.984611
1237,1423,3.31226,-0.0120118,0.334201,0.984654
1240,1420,3.31225,-0.0120863,0.334195,0.984605
1243,1417,3.31203,-0.0126537,0.334199,0.984275
1246,1414,3.3119,-0.0127175,0.334199,0.984241
1249,1411,3.31332,-0.0101507,0.334099,0.983535
1252,1408,3.3133,-0.010202,0.333517,0.983527
1255,1405,3.31318,-0.0107668,0.333649,0.98327
1258,1402,3.31314,-0.0107203,0.333522,0.983236
1261,1399,3.31257,-0.011466,0.334004,0.982626
1264,1396,3.31246,-0.0114741,0.334005,0.982632
1267,1393,3.31245,-0.0120604,0.334008,0.982293
1270,1390,3.31231,-0.0119957,0.334003,0.98232
1273,1387,3.31177,-0.0128326,0.334496,0.981686
1276,1384,3.31159,-0.0127518,0.335207,0.981752
1279,1381,3.31344,-0.0101935,0.333331,0.981208
1282,1378,3.31336,-0.0101544,0.333331,0.98123
1285,1375,3.31344,-0.0106984,0.334032,0.980894
1288,1372,3.31327,-0.0108021,0.333323,0.980832
1291,1369,3.31256,-0.0108349,0.333805,0.980637
1294,1366,3.31263,-0.0114593,0.333803,0.980271
1297,1363,3.31241,-0.011449,0.333756,0.980284
1300,1360,3.31231,-0.0120537,0.333815,0.979963
1303,1357,3.31174,-0.0128821,0.334319,0.979384
1306,1354,3.31154,-0.01273,0.334896,0.979431
1309,1351,3.31356,-0.0101895,0.33313,0.978834
1312,1348,3.31329,-0.010159,0.333131,0.978846
1315,1345,3.31321,-0.0101736,0.333125,0.978834
1318,1342,3.31318,-0.0108246,0.333121,0.978435
1321,1339,3.31242,-0.0109167,0.333609,0.978218
1324,1336,3.31238,-0.0114757,0.333617,0.977936
1327,1333,3.31227,-0.0121666,0.333656,0.977639
1330,1330,3.31215,-0.0120001,0.333614,0.977627
1333,1327,3.31203,-0.0121409,0.333593,0.977472
1336,1324,3.31191,-0.0122064,0.333589,0.977416
1339,1321,3.31135,-0.0128464,0.334075,0.976865
1342,1318,3.31126,-0.012783,0.334064,0.976868
1345,1315,3.31154,-0.0128169,0.333575,0.977275
1348,1312,3.31298,-0.0103313,0.332893,0.974909
1351,1309,3.31287,-0.0103191,0.333609,0.976274
1354,1306,3.31243,-0.0110065,0.333393,0.97573
1357,1303,3.31258,-0.0108659,0.333522,0.975934
1360,1300,3.312,-0.011555,0.333374,0.975345
1363,1297,3.31159,-0.0122861,0.333801,0.975003
1366,1294,3.31133,-0.0122615,0.333855,0.974742
1369,1291,3.3116,-0.0121483,0.333362,0.974974
1372,1288,3.31105,-0.0129215,0.333856,0.974375
1375,1285,3.31302,-0.0104318,0.333398,0.973766
1378,1282,3.31272,-0.01038,0.332707,0.973855
1381,1279,3.3122,-0.0109452,0.333202,0.973383
1384,1276,3.31225,-0.0115708,0.333186,0.972982
1387,1273,3.31198,-0.011629,0.333256,0.972921
1390,1270,3.31182,-0.0116077,0.333178,0.972931
1393,1267,3.31165,-0.0122065,0.333182,0.972597
1396,1264,3.31119,-0.0129132,0.333675,0.972027
1399,1261,3.31089,-0.0129116,0.333672,0.972024
1402,1258,3.31257,-0.00973407,0.332489,0.971774
1405,1255,3.31201,-0.0104309,0.332983,0.971204
1408,1252,3.31199,-0.0104229,0.332983,0.971205
1411,1249,3.31177,-0.0110451,0.332976,0.970824
1414,1246,3.31167,-0.011099,0.332976,0.970797
1417,1243,3.31158,-0.0117096,0.332975,0.970433
1420,1240,3.31138,-0.0116682,0.332971,0.970452
1423,1237,3.31081,-0.0123459,0.333541,0.969892
1426,1234,3.31059,-0.012409,0.333448,0.969809
1429,1231,3.3101,-0.0132846,0.333942,0.969135
1432,1228,3.31211,-0.00990788,0.332264,0.969161
1435,1225,3.31161,-0.0105316,0.332775,0.968683
1438,1222,3.3111,-0.0112049,0.333272,0.968127
1441,1219,3.31147,-0.0111081,0.332778,0.968374
1444,1216,3.31085,-0.0118233,0.333274,0.967783
1447,1213,3.31092,-0.0124515,0.333272,0.967432
1450,1210,3.31062,-0.0124657,0.333272,0.967413
1453,1207,3.31013,-0.0131414,0.333777,0.966893
1456,1204,3.31184,-0.00990939,0.332602,0.966931
1459,1201,3.31174,-0.0104489,0.333317,0.966199
1462,1198,3.3116,-0.0104589,0.332588,0.966335
1465,1195,3.31106,-0.0111781,0.333144,0.965738
1468,1192,3.31137,-0.0111693,0.332587,0.965925
1471,1189,3.31083,-0.0118256,0.333086,0.965644
1474,1186,3.31069,-0.0124634,0.333082,0.965016
1477,1183,3.30995,-0.012582,0.33359,0.964796
1480,1180,3.30986,-0.0132466,0.333594,0.964428
1483,1177,3.31161,-0.00997085,0.332411,0.964209
1486,1174,3.31102,-0.0106316,0.332912,0.963671
1489,1171,3.31097,-0.0112293,0.332911,0.963326
1492,1168,3.31075,-0.0111613,0.332911,0.96337
1495,1165,3.31024,-0.0118851,0.333411,0.962781
1498,1162,3.31009,-0.0119165,0.33341,0.962775
1501,1159,3.30973,-0.0124743,0.333411,0.962228
1504,1156,3.3093,-0.0132277,0.333913,0.962109
1507,1153,3.30899,-0.0132158,0.333891,0.961803
1510,1150,3.31067,-0.0100979,0.332699,0.961454
1513,1147,3.31058,-0.0106227,0.332701,0.961173
1516,1144,3.31011,-0.0113576,0.333277,0.960586
1519,1141,3.31028,-0.0112548,0.332698,0.960795
1522,1138,3.30984,-0.0120134,0.333198,0.960193
1525,1135,3.30957,-0.0120018,0.333191,0.960174
1528,1132,3.30938,-0.0121533,0.333174,0.960031
1531,1129,3.30929,-0.0127667,0.333186,0.959721
1534,1126,3.31077,-0.0101176,0.332508,0.958976
1537,1123,3.3106,-0.0107097,0.332517,0.958681
1540,1120,3.31012,-0.0114561,0.33302,0.958094
1543,1117,3.30987,-0.0114698,0.333012,0.958053
1546,1114,3.3097,-0.0120658,0.333007,0.957695
1549,1111,3.30955,-0.0120573,0.332996,0.957681
1552,1108,3.30888,-0.0127734,0.3335,0.957099
1555,1105,3.30876,-0.0133457,0.33351,0.956795
1558,1102,3.31019,-0.0107028,0.33283,0.956021
1561,1099,3.30997,-0.0107463,0.332834,0.956018
1564,1096,3.30977,-0.0113669,0.332834,0.955666
1567,1093,3.30947,-0.0121148,0.333341,0.955078
1570,1090,3.30913,-0.0121519,0.333337,0.955044
1573,1087,3.30894,-0.0127464,0.333337,0.954702
1576,1084,3.30833,-0.0134676,0.333845,0.954124
1579,1081,3.3101,-0.0107037,0.332003,0.953577
1582,1078,3.30983,-0.0106999,0.332662,0.953609
1585,1075,3.30929,-0.0114766,0.33319,0.953046
1588,1072,3.30875,-0.0122021,0.333702,0.952475
1591,1069,3.30901,-0.0121435,0.333187,0.952674
1594,1066,3.30837,-0.0128657,0.333697,0.952097
1597,1063,3.30827,-0.0134919,0.33368,0.951699
1600,1060,3.30794,-0.0134934,0.333674,0.951666
1603,1057,3.30927,-0.0108171,0.332991,0.950881
1606,1054,3.30918,-0.0114487,0.332991,0.95053
1609,1051,3.30891,-0.011507,0.332994,0.950519
1612,1048,3.30834,-0.0122659,0.333517,0.949945
1615,1045,3.30815,-0.0128757,0.334094,0.949616
1618,1042,3.30755,-0.0136605,0.334035,0.949008
1621,1039,3.30932,-0.0102514,0.332829,0.948775
1624,1036,3.30905,-0.0108309,0.332826,0.948438
1627,1033,3.30844,-0.0115072,0.33334,0.947888
1630,1030,3.3078,-0.0123353,0.333857,0.947247
1633,1027,3.30802,-0.0123068,0.333343,0.947448
1636,1024,3.30737,-0.0130586,0.334576,0.946824
1639,1021,3.30722,-0.0137519,0.333856,0.946454
1642,1018,3.30899,-0.0103395,0.332655,0.946221
1645,1015,3.30834,-0.0110233,0.333163,0.945641
1648,1012,3.3082,-0.0116352,0.333162,0.945302
1651,1009,3.30756,-0.0123312,0.333682,0.944745
1654,1006,3.30728,-0.0123713,0.333678,0.944715
1657,1003,3.30705,-0.0130186,0.333675,0.94435
1660,1000,3.30646,-0.0137999,0.334199,0.943744
1663,997,3.30834,-0.0110428,0.333009,0.943177
1666,994,3.30767,-0.0117503,0.333532,0.942619
1669,991,3.30739,-0.0117271,0.334124,0.942621
1672,988,3.30667,-0.0124382,0.334051,0.942051
1675,985,3.30652,-0.013133,0.334047,0.941664
1678,982,3.30588,-0.0139104,0.334574,0.941063
1681,979,3.30814,-0.0104549,0.332849,0.941024
1684,976,3.30748,-0.0112247,0.333373,0.940427
1687,973,3.30722,-0.0118365,0.33338,0.940122
1690,970,3.30658,-0.0124988,0.333908,0.939593
1693,967,3.30642,-0.0130352,0.334637,0.939292
1696,964,3.30575,-0.0139327,0.334436,0.938622
1699,961,3.30754,-0.0111042,0.333232,0.938063
1702,958,3.30734,-0.0111778,0.333332,0.938
1705,955,3.30664,-0.0119061,0.333859,0.937425
1708,952,3.30646,-0.012485,0.333751,0.937094
1711,949,3.30574,-0.013264,0.33428,0.936492
1714,946,3.30536,-0.0133122,0.334272,0.936448
1717,943,3.30676,-0.0106746,0.333608,0.935617
1720,940,3.30664,-0.0113542,0.333613,0.935277
1723,937,3.30644,-0.0119688,0.333611,0.934934
1726,934,3.30579,-0.0126554,0.334146,0.934397
1729,931,3.30567,-0.0114881,0.333614,0.933946
1732,928,3.30494,-0.0122242,0.334879,0.933369
1735,925,3.30659,-0.016457,0.332937,0.932768
1738,922,3.30591,-0.0173067,0.333467,0.932132
1741,919,3.30579,-0.0179439,0.333469,0.930363
1744,916,3.30508,-0.0186694,0.334021,0.931276
1747,913,3.30503,-0.017456,0.333495,0.930867
1750,910,3.30657,-0.0147574,0.33282,0.93004
1753,907,3.3062,-0.0149004,0.332811,0.92993
1756,904,3.30598,-0.0155494,0.332807,0.929558
1759,901,3.30546,-0.0144926,0.332799,0.928867
1762,898,3.3052,-0.0150975,0.332792,0.928518
1765,895,3.30472,-0.0140685,0.332791,0.927826
1768,892,3.30653,-0.0113096,0.331026,0.927175
1771,889,3.30571,-0.0120725,0.332115,0.926595
1774,886,3.30549,-0.0126815,0.332129,0.926293
1777,883,3.30497,-0.0116433,0.332124,0.925591
1780,880,3.3051,-0.0116615,0.331591,0.92576
1783,877,3.30658,-0.0088872,0.330924,0.924966
1786,874,3.30606,-0.0165658,0.330924,0.924654
1789,871,3.30528,-0.0173441,0.331453,0.924059
1792,868,3.30533,-0.016256,0.330922,0.923563
1795,865,3.30457,-0.0170575,0.331454,0.922966
1798,862,3.3038,-0.0177664,0.331988,0.922405
1801,859,3.30586,-0.0132517,0.330252,0.921632
1804,856,3.30565,-0.0139458,0.330252,0.921262
1807,853,3.30498,-0.0146398,0.330789,0.920729
1810,850,3.30485,-0.0134452,0.330848,0.92028
1813,847,3.3042,-0.0143401,0.330712,0.919626
1816,844,3.30625,-0.00957067,0.329034,0.918943
1819,841,3.30543,-0.0103124,0.329563,0.918363
1822,838,3.30512,-0.0104423,0.329564,0.918294
1825,835,3.30464,-0.0118747,0.330117,0.917404
1828,832,3.30415,-0.019508,0.330121,0.917176
1831,829,3.30552,-0.0167851,0.329565,0.916362
1834,826,3.30549,-0.0156424,0.328913,0.915856
1837,823,3.30465,-0.0164495,0.329443,0.915225
1840,820,3.30482,-0.0164495,0.328903,0.915394
1843,817,3.304,-0.017218,0.329431,0.914802
1846,814,3.306,-0.0124201,0.327684,0.914124
1849,811,3.30527,-0.0132836,0.328216,0.913493
1852,808,3.30475,-0.0123189,0.32823,0.912543
1855,805,3.30407,-0.01363,0.328779,0.911952
1858,802,3.30388,-0.0143651,0.328781,0.911577
1861,799,3.30591,-0.00951939,0.327044,0.910935
1864,796,3.30522,-0.010322,0.327577,0.910338
1867,793,3.30476,-0.0182604,0.327565,0.909935
1870,790,3.3039,-0.0190262,0.3281,0.909343
1873,787,3.30358,-0.0192172,0.328096,0.909239
1876,784,3.30541,-0.0162075,0.326888,0.908689
1879,781,3.30487,-0.0151693,0.326893,0.908009
1882,778,3.30432,-0.0166139,0.327444,0.907112
1885,775,3.30382,-0.0171926,0.327447,0.906813
1888,772,3.30322,-0.0180559,0.327981,0.906188
1891,769,3.30503,-0.015045,0.326775,0.905644
1894,766,3.3044,-0.0159239,0.327317,0.905018
1897,763,3.30382,-0.0148227,0.327317,0.904333
1900,760,3.30399,-0.0147719,0.326772,0.904528
1903,757,3.30328,-0.015536,0.327305,0.903941
1906,754,3.30505,-0.012641,0.326096,0.903562
1909,751,3.30435,-0.011715,0.326091,0.902532
1912,748,3.30427,-0.0105734,0.325553,0.902066
1915,745,3.30332,-0.019282,0.326089,0.901154
1918,742,3.30257,-0.0199994,0.326638,0.900637
1921,739,3.30442,-0.0171838,0.325424,0.899958
1924,736,3.30425,-0.0159731,0.324885,0.89952
1927,733,3.30359,-0.0168499,0.325423,0.898886
1930,730,3.30342,-0.0156154,0.324878,0.898428
1933,727,3.30267,-0.0164938,0.325416,0.897797
1936,724,3.30477,-0.0116497,0.323666,0.897106
1939,721,3.30383,-0.0143958,0.324749,0.896591
1942,718,3.30371,-0.0131537,0.324803,0.896172
1945,715,3.30295,-0.0139162,0.324754,0.895609
1948,712,3.30286,-0.0128196,0.32421,0.895088
1951,709,3.30476,-0.00978579,0.323594,0.894536
1954,706,3.30369,-0.0179827,0.323538,0.893933
1957,703,3.30285,-0.0187373,0.324073,0.893351
1960,700,3.30263,-0.0195334,0.324072,0.892938
1963,697,3.30464,-0.0145685,0.322327,0.892302
1966,694,3.30373,-0.0173426,0.323408,0.891789
1969,691,3.30369,-0.016136,0.322879,0.891349
1972,688,3.30296,-0.0169969,0.32401,0.890758
1975,685,3.30284,-0.0157467,0.322878,0.890321
1978,682,3.30449,-0.0116981,0.321672,0.889004
1981,679,3.30374,-0.0126149,0.322265,0.888362
1984,676,3.30338,-0.0132332,0.32221,0.888035
1987,673,3.30252,-0.0140285,0.32275,0.887452
1990,670,3.30224,-0.0147773,0.322744,0.887056
1993,667,3.30378,-0.00995508,0.321542,0.886161
1996,664,3.30343,-0.0107225,0.321525,0.885731
1999,661,3.30265,-0.0114834,0.322072,0.885184
2002,658,3.30214,-0.0196755,0.322088,0.884844
2005,655,3.30141,-0.0205224,0.322632,0.884247
2008,652,3.30331,-0.0174833,0.321427,0.883684
2011,649,3.30303,-0.0181389,0.321425,0.883343
2014,646,3.30242,-0.0171201,0.321425,0.88261
2017,643,3.30211,-0.0177255,0.321424,0.882303
2020,640,3.30369,-0.0129999,0.320219,0.881344
2023,637,3.30345,-0.013759,0.320217,0.880955
2026,634,3.30284,-0.0127174,0.320217,0.880237
2029,631,3.30241,-0.0122229,0.320212,0.87923
2032,628,3.30213,-0.0129739,0.320214,0.878847
2035,625,3.304,-0.00998115,0.319014,0.878037
2038,622,3.30287,-0.0181989,0.319553,0.877735
2041,619,3.30204,-0.0191707,0.320098,0.87706
2044,616,3.30175,-0.0198586,0.320097,0.876715
2047,613,3.30162,-0.0186368,0.319549,0.87624
2050,610,3.30296,-0.0157497,0.318889,0.875417
2053,607,3.30282,-0.0164552,0.318381,0.875056
2056,604,3.30225,-0.0154043,0.318887,0.874346
2059,601,3.30193,-0.0160864,0.318892,0.874019
2062,598,3.30337,-0.0130575,0.318236,0.873255
2065,595,3.30308,-0.0138563,0.318227,0.872836
2068,592,3.30304,-0.0127677,0.317678,0.872291
2071,589,3.30235,-0.0115818,0.31767,0.871615
2074,586,3.30198,-0.0123126,0.317658,0.871224
2077,583,3.3034,-0.00938388,0.316997,0.870394
2080,580,3.30312,-0.0101537,0.316995,0.869991
2083,577,3.302045,-0.0186312,0.317541,0.868077
2086,574,3.30135,-0.0200249,0.318102,0.868565
2089,571,3.3011,-0.0207559,0.31811,0.868216
2092,568,3.30327,-0.0157332,0.316359,0.867546
2095,565,3.30265,-0.014712,0.316356,0.866789
2098,562,3.3024,-0.0154314,0.316351,0.866422
2101,559,3.30151,-0.0161338,0.316793,0.865876
2104,556,3.30109,-0.0169198,0.316881,0.865465
2107,553,3.30281,-0.0120527,0.315671,0.864513
2110,550,3.30249,-0.0128685,0.315671,0.864096
2113,547,3.30227,-0.0136184,0.31569,0.863788
2116,544,3.30172,-0.0130745,0.315692,0.862817
2119,541,3.30316,-0.0101507,0.315037,0.861987
2122,538,3.30285,-0.0107563,0.315038,0.861693
2125,535,3.3019,-0.0116807,0.31558,0.861028
2128,532,3.30127,-0.0200637,0.315573,0.860666
2131,529,3.30032,-0.0209682,0.315461,0.860044
2134,526,3.30258,-0.0159784,0.314363,0.859308
2137,523,3.3018,-0.016848,0.314907,0.858702
2140,520,3.30144,-0.0174764,0.314906,0.858398
2143,517,3.30091,-0.0164014,0.314914,0.8577
2146,514,3.30285,-0.0133306,0.313713,0.857117
2149,511,3.30243,-0.0128595,0.313715,0.856102
2152,508,3.30159,-0.0138204,0.314846,0.855445
2155,505,3.30124,-0.0144558,0.314263,0.855135
2158,502,3.30031,-0.0153989,0.314815,0.85449
2161,499,3.30251,-0.0102559,0.312551,0.853804
2164,496,3.3016,-0.0112124,0.313596,0.853144
2167,493,3.30097,-0.019575,0.313589,0.852845
2170,490,3.30066,-0.0204074,0.313591,0.852444
2173,487,3.30234,-0.0153843,0.312405,0.851588
2176,484,3.3016,-0.0168972,0.312972,0.85074
2179,481,3.3016,-0.0156308,0.312527,0.850301
2182,478,3.30121,-0.0164576,0.31243,0.849893
2185,475,3.30041,-0.0172037,0.312965,0.84931
2188,472,3.3024,-0.0142295,0.311762,0.848655
2191,469,3.3018,-0.0130331,0.311744,0.847949
2194,466,3.30145,-0.0138424,0.311744,0.847555
2197,463,3.30064,-0.0147055,0.312291,0.846942
2200,460,3.30051,-0.0134664,0.31184,0.846458
2203,457,3.30201,-0.0104226,0.311104,0.845629
2206,454,3.3014,-0.0188265,0.311109,0.845458
2209,451,3.30107,-0.0195695,0.311106,0.845094
2212,448,3.30022,-0.0203876,0.311664,0.844554
2215,445,3.30218,-0.0173255,0.310454,0.843902
2218,442,3.30135,-0.0182045,0.310998,0.843264
2221,439,3.30108,-0.0190094,0.310998,0.84288
2224,436,3.3003,-0.0198138,0.311557,0.842323
2227,433,3.29951,-0.0206221,0.312111,0.841759
2230,430,3.2992,-0.0214577,0.312114,0.841611
2233,427,3.30067,-0.0184277,0.311469,0.840545
2236,424,3.30041,-0.0190786,0.31147,0.840244
2239,421,3.29977,-0.0179383,0.311509,0.839541
2242,418,3.29955,-0.0186234,0.31147,0.839219
2245,415,3.301,-0.0156623,0.310828,0.838369
2248,412,3.30089,-0.0143468,0.310263,0.837908
2251,409,3.29998,-0.0152257,0.310819,0.837294
2254,406,3.29966,-0.0160016,0.310816,0.836925
2257,403,3.29896,-0.0149118,0.310815,0.836189
2260,400,3.30098,-0.0116924,0.309605,0.835589
2263,397,3.30071,-0.0124505,0.309606,0.835247
2266,394,3.30018,-0.0120892,0.309624,0.834224
2269,391,3.29902,-0.0208491,0.310226,0.833704
2272,388,3.29866,-0.0216365,0.310198,0.833359
2275,385,3.30083,-0.0144165,0.307882,0.832537
2278,382,3.30074,-0.0130874,0.307307,0.832062
2281,379,3.29985,-0.0139888,0.307857,0.831447
2284,376,3.29951,-0.0147775,0.307846,0.83105
2287,373,3.30109,-0.0116707,0.307204,0.830237
2290,370,3.3007,-0.012443,0.307197,0.829859
2293,367,3.30015,-0.0113849,0.307183,0.829061
2296,364,3.29987,-0.0120722,0.307206,0.828815
2299,361,3.29916,-0.013674,0.307781,0.827921
2302,358,3.30036,-0.0185865,0.307141,0.827127
2305,355,3.30006,-0.0193546,0.307157,0.826806
2308,352,3.29977,-0.0200615,0.307143,0.82644
2311,349,3.29907,-0.0189291,0.307114,0.82566
2314,346,3.2986,-0.0189786,0.307099,0.825599
2317,343,3.30063,-0.0156452,0.305989,0.825056
2320,340,3.29977,-0.016677,0.306446,0.824372
2323,337,3.29944,-0.0174174,0.306446,0.824014
2326,334,3.29889,-0.0162648,0.30644,0.823297
2329,331,3.29854,-0.017012,0.306448,0.822976
2332,328,3.30072,-0.0117798,0.3047,0.822301
2335,325,3.30022,-0.0113309,0.304712,0.821279
2338,322,3.29915,-0.0202721,0.305986,0.820684
2341,319,3.29881,-0.0208953,0.305245,0.820372
2344,316,3.29832,-0.0210677,0.305235,0.820264
2347,313,3.30044,-0.0158829,0.304037,0.819254
2350,310,3.29954,-0.016802,0.304017,0.818854
2353,307,3.29917,-0.0175652,0.304014,0.818494
2356,304,3.29905,-0.0162645,0.303449,0.818001
2359,301,3.29812,-0.0172038,0.304006,0.817391
2362,298,3.30015,-0.0139309,0.302806,0.817066
2365,295,3.29973,-0.0135335,0.302812,0.815766
2368,292,3.29882,-0.0143799,0.30336,0.815178
2371,289,3.29836,-0.0144243,0.303357,0.813882
2374,286,3.29811,-0.0152176,0.303361,0.814798
2377,283,3.29976,-0.0120084,0.302716,0.814004
2380,280,3.29938,-0.0127796,0.302723,0.813648
2383,277,3.2985,-0.0136224,0.303285,0.813076
2386,274,3.29825,-0.014426,0.303288,0.812714
2389,271,3.29739,-0.0152784,0.30385,0.812148
2392,268,3.29727,-0.0139919,0.303281,0.811655
2395,265,3.29885,-0.0108461,0.302639,0.810819
2398,262,3.29846,-0.0116184,0.304432,0.810451
2401,259,3.2972,-0.0207018,0.30321,0.809915
2404,256,3.29689,-0.0214367,0.30321,0.809594
2407,253,3.29671,-0.020133,0.302646,0.809116
2410,250,3.29825,-0.0169693,0.301988,0.808294
2413,247,3.29795,-0.0177465,0.302006,0.807939
2416,244,3.29732,-0.0165686,0.302007,0.807235
2419,241,3.29701,-0.0173522,0.302001,0.806861
2422,238,3.29605,-0.0183057,0.302571,0.806273
2425,235,3.29844,-0.0128647,0.300816,0.805616
2428,232,3.29812,-0.0136936,0.300814,0.805238
2431,229,3.29743,-0.0124624,0.300812,0.804549
2434,226,3.29712,-0.0132508,0.300808,0.804179
2437,223,3.29612,-0.0141546,0.301377,0.803605
2440,220,3.29826,-0.0107937,0.300169,0.803017
2443,217,3.2976,-0.0198775,0.300166,0.801363
2446,214,3.29665,-0.0207824,0.300725,0.802063
2449,211,3.29652,-0.0194317,0.300155,0.801589
2452,208,3.29561,-0.020404,0.300721,0.800979
2455,205,3.29793,-0.0149603,0.298953,0.800279
2458,202,3.29703,-0.0159189,0.299526,0.799682
2461,199,3.29692,-0.0145784,0.298954,0.7992
2464,196,3.29654,-0.0153759,0.298945,0.798819
2467,193,3.29572,-0.0142752,0.29894,0.79799
2470,190,3.29784,-0.0109564,0.297736,0.797433
2473,187,3.29714,-0.0200413,0.297731,0.797086
2476,184,3.29623,-0.0209948,0.298294,0.79649
2479,181,3.29614,-0.0196191,0.297725,0.796023
2482,178,3.29523,-0.0205814,0.298283,0.795409
2485,175,3.29736,-0.0172524,0.297085,0.795071
2488,172,3.29729,-0.0159297,0.296533,0.794366
2491,169,3.2964,-0.0168485,0.297093,0.793786
2494,166,3.2963,-0.015434,0.296532,0.793359
2497,163,3.29537,-0.0163813,0.297096,0.792764
2500,160,3.29776,-0.0109419,0.295329,0.792013
2503,157,3.29703,-0.0131209,0.295877,0.792081
2506,154,3.29693,-0.0117673,0.295311,0.791606
2509,151,3.29603,-0.0127612,0.295869,0.790966
2512,148,3.29525,-0.0219259,0.295864,0.790594
2515,145,3.29489,-0.0226525,0.295853,0.7905
2518,142,3.29651,-0.019537,0.29523,0.789418
2521,139,3.29623,-0.0203041,0.295247,0.78907
2524,136,3.2955,-0.0190494,0.295237,0.788414
2527,133,3.29521,-0.0198459,0.295238,0.788071
2530,130,3.29497,-0.0184424,0.294681,0.787625
2533,127,3.29655,-0.0152434,0.294036,0.786774
2536,124,3.29623,-0.0160682,0.294027,0.786392
2539,121,3.29555,-0.0149007,0.294024,0.785642
2542,118,3.2952,-0.0157078,0.294021,0.785274
2545,115,3.2948,-0.0164843,0.294014,0.784918
2548,112,3.29676,-0.0123028,0.292814,0.784687
2551,109,3.29613,-0.0111671,0.29282,0.783953
2554,106,3.29583,-0.0119843,0.292823,0.783595
2557,103,3.29516,-0.0210907,0.292834,0.783344
2560,100,3.29429,-0.0228238,0.293401,0.782422
2563,97,3.2961,-0.0173861,0.292204,0.781494
2566,94,3.29619,-0.0172909,0.29164,0.781708
2569,91,3.29518,-0.0183016,0.292741,0.781049
2572,88,3.29481,-0.0190491,0.292182,0.7807
2575,85,3.29416,-0.0179015,0.292178,0.779947
2578,82,3.29379,-0.0186887,0.292727,0.779584
2581,79,3.29581,-0.0145025,0.290975,0.779346
2584,76,3.29514,-0.0132948,0.290978,0.778639
2587,73,3.2948,-0.0142083,0.290981,0.778246
2590,70,3.29446,-0.0148903,0.290982,0.777964
2593,67,3.29373,-0.0136687,0.291078,0.777266
2596,64,3.29325,-0.0144404,0.290998,0.776918
2599,61,3.29486,-0.0112127,0.290335,0.776027
2602,58,3.2946,-0.0120412,0.290322,0.775631
2605,55,3.29406,-0.0120519,0.290324,0.775895
2608,52,3.29371,-0.0128245,0.29032,0.775292
2611,49,3.29234,-0.0222712,0.290882,0.77472
2614,46,3.29187,-0.0230904,0.290882,0.774364
2617,43,3.29366,-0.01768,0.289693,0.773412
2620,40,3.29324,-0.0185535,0.289697,0.773049
2623,37,3.2932,-0.017134,0.289239,0.772624
2626,34,3.29278,-0.0178728,0.289157,0.772332
2629,31,3.29198,-0.0166817,0.289158,0.771603
2632,28,3.29419,-0.0132493,0.287961,0.771016
2635,25,3.29353,-0.0120563,0.28795,0.770261
2638,22,3.29279,-0.0142175,0.288503,0.770377
2641,19,3.29265,-0.0129344,0.28794,0.769855
2644,16,3.2923,-0.0136917,0.287926,0.769488
2647,13,3.29142,-0.0146162,0.288479,0.768889
2650,10,3.29286,-0.0114008,0.287856,0.768043
2653,7,3.29259,-0.0198896,0.287308,0.76832
2656,4,3.29197,-0.019369,0.287321,0.767319
2657,3,3.29174,-0.0193616,0.287322,0.767334