File: hust_correlation_analysis/matrices/HUST_3-4_cycle_feature_matrix.csv
cycle_number,rul,voltage,current,capacity,charge_capacity
1,1768,3.32825,-0.0208579,0.271025,0.98631
3,1766,3.31483,-0.0216256,0.275872,0.980177
5,1764,3.31442,-0.0230083,0.275876,0.979905
7,1762,3.3143,-0.0237392,0.27588,0.979394
9,1760,3.31669,-0.0206684,0.273855,0.979088
11,1758,3.31681,-0.0213769,0.273955,0.978806
13,1756,3.3166,-0.022152,0.273845,0.978488
15,1754,3.31655,-0.0227487,0.273843,0.978245
17,1752,3.31646,-0.0236372,0.27384,0.977893
19,1750,3.31598,-0.0235705,0.273838,0.977921
21,1748,3.31576,-0.0243764,0.273841,0.97761
23,1746,3.31787,-0.0214715,0.272287,0.976969
25,1744,3.31793,-0.0214723,0.272285,0.976973
27,1742,3.31767,-0.0222592,0.272286,0.976666
29,1740,3.3179,-0.0230456,0.272287,0.976359
31,1738,3.31745,-0.0230102,0.27229,0.976386
33,1736,3.3177,-0.0236473,0.272279,0.976107
35,1734,3.3177,-0.023514,0.271811,0.976415
37,1732,3.31724,-0.0241891,0.272256,0.975818
39,1730,3.31684,-0.0243412,0.272256,0.975551
41,1728,3.31665,-0.024322,0.272253,0.975756
43,1726,3.31909,-0.021422,0.271036,0.975101
45,1724,3.31867,-0.0214839,0.270697,0.975077
47,1722,3.31892,-0.0221668,0.270691,0.974786
49,1720,3.31854,-0.0221838,0.270691,0.974776
51,1718,3.31894,-0.0221407,0.270685,0.974787
53,1716,3.31859,-0.0229801,0.270683,0.974436
55,1714,3.31856,-0.0228908,0.270674,0.974453
57,1712,3.31853,-0.0236196,0.270677,0.97417
59,1710,3.31827,-0.0235593,0.270677,0.974183
61,1708,3.31824,-0.0242954,0.270674,0.973895
63,1706,3.31795,-0.0259294,0.271111,0.974127
65,1704,3.31777,-0.024247,0.270671,0.9739
67,1702,3.32003,-0.0213711,0.269125,0.973269
69,1700,3.31988,-0.0213989,0.269121,0.973489
71,1698,3.31972,-0.0214204,0.269118,0.973232
73,1696,3.31952,-0.0222994,0.269573,0.972594
75,1694,3.31909,-0.0223093,0.269567,0.972579
77,1692,3.3196,-0.0229244,0.269563,0.972325
79,1690,3.31905,-0.0229849,0.269898,0.972302
81,1688,3.31898,-0.0229142,0.269559,0.972322
83,1686,3.31899,-0.0235972,0.269554,0.972037
85,1684,3.319,-0.0236146,0.269554,0.972028
87,1682,3.31866,-0.0237073,0.270142,0.972009
89,1680,3.31891,-0.0242991,0.269539,0.971728
91,1678,3.31828,-0.0245468,0.26957,0.971693
93,1676,3.32042,-0.0207827,0.268025,0.971432
95,1674,3.32066,-0.0215372,0.268023,0.971121
97,1672,3.3203,-0.0215784,0.267711,0.971102
99,1670,3.32065,-0.021593,0.268022,0.971093
101,1668,3.31992,-0.0224838,0.268474,0.970448
103,1666,3.32026,-0.0222546,0.268018,0.970821
105,1664,3.31979,-0.02275,0.268469,0.970329
107,1662,3.31997,-0.0229742,0.269044,0.970234
109,1660,3.3196,-0.0230216,0.268457,0.970196
111,1658,3.31935,-0.0229746,0.268462,0.970221
113,1656,3.31954,-0.0237073,0.268452,0.969904
115,1654,3.31912,-0.0237576,0.268463,0.969911
117,1652,3.31928,-0.0238351,0.268468,0.969889
119,1650,3.3191,-0.024559,0.26881,0.96963
121,1648,3.31915,-0.0246194,0.268483,0.969635
123,1646,3.32118,-0.0208853,0.266929,0.96933
125,1644,3.32084,-0.0217442,0.267383,0.968688
127,1642,3.3203,-0.021693,0.267378,0.967338
129,1640,3.32104,-0.021554,0.267499,0.969026
131,1638,3.32076,-0.0215453,0.266918,0.969021
133,1636,3.32058,-0.0223628,0.26737,0.968404
135,1634,3.3203,-0.0222855,0.267366,0.968424
137,1632,3.31998,-0.0223398,0.267369,0.968405
139,1630,3.32022,-0.022321,0.267365,0.968405
141,1628,3.32005,-0.0230741,0.267362,0.968096
143,1626,3.32012,-0.0231286,0.267359,0.968068
145,1624,3.31968,-0.0231542,0.267371,0.968082
147,1622,3.32011,-0.0232248,0.267376,0.968078
149,1620,3.31923,-0.0239363,0.267837,0.967522
151,1618,3.31973,-0.0238812,0.267382,0.967838
153,1616,3.31969,-0.0238542,0.267378,0.96784
155,1614,3.31928,-0.0246772,0.267838,0.967237
157,1612,3.31902,-0.0246884,0.267836,0.967227
159,1610,3.31875,-0.0246623,0.267836,0.967233
161,1608,3.31848,-0.0246508,0.267829,0.967218
163,1606,3.32097,-0.0216406,0.266267,0.966591
165,1604,3.321,-0.0217149,0.266267,0.966559
167,1602,3.32076,-0.0216881,0.266263,0.96656
169,1600,3.32095,-0.021744,0.266263,0.96654
171,1598,3.32025,-0.0224083,0.266709,0.965968
173,1596,3.32036,-0.0225518,0.266716,0.965922
175,1594,3.31994,-0.0225525,0.266725,0.964465
177,1592,3.32078,-0.0224671,0.266271,0.96628
179,1590,3.3201,-0.0233218,0.266735,0.965679
181,1588,3.32019,-0.0233042,0.266741,0.96571
183,1586,3.31977,-0.0233076,0.26674,0.965706
185,1584,3.31945,-0.0240195,0.267202,0.965145
187,1582,3.31987,-0.0239221,0.26674,0.965455
189,1580,3.31915,-0.024118,0.267202,0.965104
191,1578,3.31963,-0.024027,0.266738,0.965406
193,1576,3.31945,-0.0239699,0.267312,0.965386
195,1574,3.31918,-0.0249249,0.267195,0.964772
197,1572,3.31873,-0.0249059,0.267196,0.964779
199,1570,3.31874,-0.0249495,0.267197,0.96476
201,1568,3.318495,-0.0249533,0.267195,0.964755
203,1566,3.32113,-0.0211909,0.265636,0.964441
205,1564,3.3209,-0.0218573,0.265639,0.964194
207,1562,3.32088,-0.021862,0.265641,0.964202
209,1560,3.32065,-0.0218774,0.265643,0.964206
211,1558,3.32079,-0.021791,0.265642,0.964231
213,1556,3.32025,-0.0226464,0.266102,0.963619
215,1554,3.32008,-0.0226276,0.266103,0.963623
217,1552,3.32013,-0.022647,0.266103,0.96362
219,1550,3.31979,-0.0226381,0.266102,0.963628
221,1548,3.3201,-0.0234769,0.266103,0.963288
223,1546,3.31979,-0.0234344,0.2661,0.963298
225,1544,3.31994,-0.0234916,0.266102,0.963281
227,1542,3.31961,-0.0235249,0.266102,0.963273
229,1540,3.32,-0.0235311,0.266103,0.963276
231,1538,3.3198,-0.0241579,0.2661,0.963021
233,1536,3.31973,-0.0241301,0.266097,0.963008
235,1534,3.31946,-0.0241413,0.266099,0.963023
237,1532,3.31933,-0.0240959,0.266099,0.96303
239,1530,3.31917,-0.0241303,0.266445,0.963033
241,1528,3.31906,-0.0248434,0.266549,0.96243
243,1526,3.31905,-0.024809,0.266533,0.962394
245,1524,3.31854,-0.0250199,0.26655,0.962324
247,1522,3.31849,-0.0250496,0.266554,0.962352
249,1520,3.31821,-0.025025,0.266552,0.962363
251,1518,3.32093,-0.0220253,0.264987,0.961733
253,1516,3.32075,-0.0220349,0.265331,0.960264
255,1514,3.32089,-0.0220036,0.264988,0.961743
257,1512,3.32074,-0.0220331,0.264988,0.961735
259,1510,3.32093,-0.0227511,0.264989,0.961447
261,1508,3.32058,-0.0226996,0.264987,0.961459
263,1506,3.32052,-0.0226936,0.264988,0.961475
265,1504,3.32034,-0.0226958,0.264988,0.961473
267,1502,3.31982,-0.0227744,0.26545,0.961165
269,1500,3.3201,-0.0235427,0.265449,0.960862
271,1498,3.31999,-0.0235104,0.265451,0.96088
273,1496,3.31973,-0.0235341,0.26545,0.96087
275,1494,3.31946,-0.0235286,0.265449,0.960864
277,1492,3.31946,-0.0235888,0.265446,0.960828
279,1490,3.3191,-0.0243886,0.265904,0.960211
281,1488,3.31966,-0.0243255,0.26544,0.960515
283,1486,3.31936,-0.0241955,0.265433,0.960545
285,1484,3.31957,-0.0242665,0.265422,0.960478
287,1482,3.31917,-0.0242647,0.26542,0.960466
289,1480,3.3193,-0.0241914,0.2654,0.960448
291,1478,3.31877,-0.0261059,0.265858,0.960612
293,1476,3.31875,-0.0269644,0.266321,0.959991
295,1474,3.31854,-0.0268674,0.266303,0.959976
297,1472,3.31836,-0.0269531,0.266648,0.959982
299,1470,3.31855,-0.0268963,0.266292,0.959918
301,1468,3.3181,-0.026849,0.266292,0.959933
303,1466,3.31829,-0.0275062,0.266298,0.959709
305,1464,3.31966,-0.0241536,0.265203,0.958776
307,1462,3.32015,-0.0238704,0.264736,0.959581
309,1460,3.31998,-0.0238881,0.264739,0.959342
311,1458,3.32038,-0.024686,0.264739,0.959029
313,1456,3.31968,-0.0248193,0.265202,0.958937
315,1454,3.32027,-0.0247267,0.264737,0.959001
317,1452,3.31986,-0.0247259,0.264737,0.959008
319,1450,3.32013,-0.0247458,0.264734,0.959
321,1448,3.31936,-0.0255251,0.265193,0.95839
323,1446,3.31942,-0.0255923,0.265199,0.95837
325,1444,3.31918,-0.0255908,0.265203,0.958385
327,1442,3.3199,-0.0254968,0.264844,0.958734
329,1440,3.31917,-0.0263476,0.265211,0.958129
331,1438,3.31931,-0.024381,0.264752,0.957988
333,1436,3.31895,-0.0243447,0.264753,0.958003
335,1434,3.31923,-0.0250118,0.264749,0.957641
337,1432,3.319,-0.025001,0.264747,0.957726
339,1430,3.3187,-0.026978,0.265207,0.957873
341,1428,3.31867,-0.0270417,0.265207,0.957846
343,1426,3.3184,-0.027028,0.265206,0.957843
345,1424,3.32049,-0.0240664,0.264092,0.956898
347,1422,3.32022,-0.0240737,0.26442,0.956896
349,1420,3.3202,-0.0240436,0.26409,0.956897
351,1418,3.31985,-0.024107,0.264086,0.956863
353,1416,3.32083,-0.024045,0.263626,0.957176
355,1414,3.31995,-0.0249306,0.264093,0.956562
357,1412,3.32028,-0.0230249,0.263969,0.956414
359,1410,3.31989,-0.0230162,0.263648,0.956429
361,1408,3.32039,-0.0238031,0.263653,0.956133
363,1406,3.31999,-0.0238767,0.263652,0.956108
365,1404,3.3199,-0.0237276,0.263145,0.956157
367,1402,3.31964,-0.0236659,0.263639,0.956159
369,1400,3.31985,-0.0236508,0.263639,0.956162
371,1398,3.31972,-0.0263221,0.264096,0.956025
373,1396,3.31986,-0.0243812,0.263631,0.955852
375,1394,3.31937,-0.0262964,0.264092,0.956035
377,1392,3.31874,-0.0264381,0.264554,0.955676
379,1390,3.31914,-0.0263455,0.264087,0.955982
381,1388,3.31868,-0.0271811,0.26455,0.95537
383,1386,3.31854,-0.0271636,0.264551,0.955384
385,1384,3.31831,-0.0272061,0.264561,0.955394
387,1382,3.32102,-0.0214846,0.262526,0.954898
389,1380,3.3208,-0.0222255,0.262525,0.954604
391,1378,3.32086,-0.0222788,0.262532,0.954604
393,1376,3.3205,-0.0222615,0.262533,0.954615
395,1374,3.32078,-0.0222943,0.263061,0.954596
397,1372,3.32004,-0.0230635,0.262987,0.953999
399,1370,3.32069,-0.0229786,0.262851,0.954315
401,1368,3.32038,-0.0230306,0.262524,0.954291
403,1366,3.32047,-0.023044,0.263104,0.954163
405,1364,3.32046,-0.022999,0.262523,0.954301
407,1362,3.32017,-0.0239087,0.262986,0.953663
409,1360,3.31969,-0.0238457,0.262976,0.953666
411,1358,3.31961,-0.0238719,0.262978,0.953657
413,1356,3.31933,-0.0238595,0.262979,0.953667
415,1354,3.31982,-0.0244783,0.26297,0.95341
417,1352,3.31943,-0.0246224,0.262996,0.953406
419,1350,3.31951,-0.0245713,0.263001,0.953453
421,1348,3.31947,-0.0252681,0.263007,0.953196
423,1346,3.31946,-0.0253193,0.263006,0.953172
425,1344,3.31911,-0.0253212,0.263002,0.953164
427,1342,3.31894,-0.0253164,0.263,0.953158
429,1340,3.31883,-0.0253651,0.263,0.953139
431,1338,3.32066,-0.0223244,0.261877,0.952192
433,1336,3.32073,-0.0223786,0.261781,0.952412
435,1334,3.32048,-0.0223706,0.261874,0.952161
437,1332,3.32104,-0.0222704,0.261411,0.952489
439,1330,3.32032,-0.0223796,0.26187,0.952154
441,1328,3.32065,-0.0231459,0.261865,0.951845
443,1326,3.32026,-0.0230541,0.261867,0.951878
445,1324,3.32041,-0.0232765,0.261876,0.951589
447,1322,3.31995,-0.0232071,0.262459,0.951869
449,1320,3.3204,-0.0240137,0.261891,0.951576
451,1318,3.32003,-0.024004,0.26189,0.951585
453,1316,3.32021,-0.0240206,0.261895,0.951588
455,1314,3.31987,-0.0240376,0.261891,0.951577
457,1312,3.3201,-0.0240599,0.261892,0.951572
459,1310,3.31938,-0.024894,0.262355,0.950958
461,1308,3.31993,-0.0247739,0.261892,0.951289
463,1306,3.31948,-0.0247412,0.261892,0.951302
465,1304,3.31964,-0.0247482,0.261891,0.951301
467,1302,3.31907,-0.0255532,0.262346,0.950682
469,1300,3.31909,-0.0255772,0.262349,0.950664
471,1298,3.31882,-0.0255712,0.262346,0.950668
473,1296,3.31885,-0.0255441,0.262344,0.950676
475,1294,3.32123,-0.0224613,0.260769,0.95007
477,1292,3.32116,-0.0224381,0.260775,0.950089
479,1290,3.32088,-0.022471,0.260774,0.950334
481,1288,3.32076,-0.0223995,0.260776,0.95012
483,1286,3.32038,-0.023369,0.26124,0.949464
485,1284,3.32024,-0.0232671,0.26124,0.949498
487,1282,3.32017,-0.0233572,0.261239,0.94822
489,1280,3.31989,-0.0234215,0.261242,0.94945
491,1278,3.32032,-0.0240949,0.261239,0.949178
493,1276,3.32002,-0.0240275,0.261235,0.949185
495,1274,3.31992,-0.0239857,0.26123,0.94918
497,1272,3.31951,-0.0240584,0.261228,0.949154
499,1270,3.31984,-0.0241362,0.261226,0.949124
501,1268,3.31955,-0.0248095,0.261221,0.948836
503,1266,3.31947,-0.0248614,0.261543,0.948811
505,1264,3.31925,-0.024894,0.261227,0.948814
507,1262,3.31953,-0.0249907,0.261236,0.948815
509,1260,3.31879,-0.0257904,0.261706,0.94825
511,1258,3.31879,-0.0258385,0.261706,0.94823
513,1256,3.31892,-0.0257318,0.261247,0.94857
515,1254,3.32114,-0.0226965,0.260467,0.94764
517,1252,3.32085,-0.022753,0.259819,0.947617
519,1250,3.32089,-0.0227856,0.260131,0.947617
521,1248,3.32048,-0.0227203,0.260129,0.947649
523,1246,3.32081,-0.0227532,0.260126,0.947628
525,1244,3.32062,-0.0235047,0.260124,0.94732
527,1242,3.3208,-0.0235118,0.260219,0.947313
529,1240,3.32034,-0.0234821,0.260121,0.947314
531,1238,3.32054,-0.0234384,0.260114,0.947323
533,1236,3.32038,-0.0241949,0.260112,0.947014
535,1234,3.32043,-0.024209,0.26011,0.947001
537,1232,3.32003,-0.0242118,0.260114,0.947012
539,1230,3.32024,-0.0241832,0.260121,0.947048
541,1228,3.31942,-0.0251175,0.260591,0.946415
543,1226,3.31943,-0.0251272,0.260595,0.946431
545,1224,3.31969,-0.0249865,0.260131,0.946782
547,1222,3.31958,-0.0257774,0.260591,0.946178
549,1220,3.31926,-0.0258218,0.260587,0.946143
551,1218,3.3192,-0.0257603,0.260576,0.946127
553,1216,3.31893,-0.0257705,0.260895,0.946106
555,1214,3.31936,-0.0256079,0.260106,0.946441
557,1212,3.3212,-0.0226976,0.258977,0.94568
559,1210,3.32113,-0.0226268,0.258974,0.945448
561,1208,3.32095,-0.0226651,0.258971,0.945428
563,1206,3.32088,-0.0226344,0.258974,0.945448
565,1204,3.32107,-0.0233392,0.258967,0.945149
567,1202,3.32097,-0.0233676,0.258683,0.94514
569,1200,3.32091,-0.0234871,0.258984,0.945144
571,1198,3.32067,-0.0234153,0.258976,0.945148
573,1196,3.32033,-0.0243314,0.259439,0.944516
575,1194,3.32011,-0.0242982,0.259438,0.944518
577,1192,3.31999,-0.0243649,0.259438,0.944495
579,1190,3.31978,-0.0242777,0.259434,0.944516
581,1188,3.32027,-0.0241997,0.258964,0.944816
583,1186,3.31971,-0.025037,0.25943,0.944202
585,1184,3.3197,-0.0250879,0.259427,0.944179
587,1182,3.31942,-0.0250418,0.259426,0.942746
589,1180,3.31954,-0.0251194,0.259425,0.944168
591,1178,3.31939,-0.0258027,0.259424,0.943888
593,1176,3.31941,-0.0258992,0.259423,0.94385
595,1174,3.31901,-0.0257937,0.259418,0.94388
597,1172,3.32147,-0.0219687,0.257828,0.943526
599,1170,3.3213,-0.0227022,0.25815,0.94325
601,1168,3.3213,-0.0225241,0.257839,0.943346
603,1166,3.32106,-0.0227142,0.257843,0.943285
605,1164,3.32082,-0.0236334,0.258408,0.942673
607,1162,3.3205,-0.0235739,0.258313,0.942706
609,1160,3.32055,-0.0236477,0.258313,0.942665
611,1158,3.32084,-0.0234938,0.257845,0.942994
613,1156,3.32058,-0.0243674,0.258306,0.942359
615,1154,3.3203,-0.0244416,0.258304,0.942319
617,1152,3.32031,-0.0244698,0.258293,0.942306
619,1150,3.32004,-0.0244131,0.2583,0.942328
621,1148,3.32027,-0.0251605,0.258298,0.942028
623,1146,3.31985,-0.0251401,0.258297,0.942038
625,1144,3.3198,-0.025151,0.258617,0.942032
627,1142,3.3196,-0.025182,0.258296,0.942018
629,1140,3.31969,-0.0259479,0.258306,0.941751
631,1138,3.3189,-0.0261418,0.258773,0.941406
633,1136,3.32165,-0.0229655,0.25718,0.940804
635,1134,3.32128,-0.0229766,0.257185,0.940814
637,1132,3.32131,-0.0229929,0.257184,0.940806
639,1130,3.32117,-0.0229671,0.25718,0.940809
641,1128,3.32129,-0.0236394,0.257182,0.940547
643,1126,3.32098,-0.0237295,0.257178,0.940502
645,1124,3.32102,-0.0237267,0.257172,0.940478
647,1122,3.32063,-0.0237614,0.25717,0.940459
649,1120,3.32098,-0.0244944,0.257163,0.94015
651,1118,3.32053,-0.0245029,0.25716,0.940134
653,1116,3.32048,-0.0244793,0.25716,0.940136
655,1114,3.32035,-0.0245127,0.257159,0.940127
657,1112,3.32002,-0.0253522,0.257621,0.939503
659,1110,3.3197,-0.0253665,0.257621,0.939501
661,1108,3.32032,-0.0253433,0.257165,0.939825
663,1106,3.31966,-0.0262266,0.257638,0.939222
665,1104,3.31961,-0.0262021,0.257641,0.939256
667,1102,3.32168,-0.0222785,0.256048,0.93918
669,1100,3.32192,-0.0229937,0.25605,0.938665
671,1098,3.32152,-0.0229609,0.25605,0.938679
673,1096,3.32146,-0.0229779,0.256042,0.938655
675,1094,3.32088,-0.0238734,0.256502,0.938004
677,1092,3.32099,-0.0239419,0.256498,0.937961
679,1090,3.3206,-0.0238831,0.256816,0.937987
681,1088,3.32063,-0.0239296,0.256496,0.937953
683,1086,3.32056,-0.024759,0.256493,0.937626
685,1084,3.32054,-0.0246602,0.256833,0.937676
687,1082,3.32024,-0.0246153,0.256493,0.937683
689,1080,3.32058,-0.0254485,0.256492,0.937356
691,1078,3.32012,-0.0253877,0.2565,0.9374
693,1076,3.32003,-0.0254422,0.256508,0.937419
695,1074,3.31944,-0.0263382,0.25698,0.936809
697,1072,3.31925,-0.0263997,0.256981,0.936792
699,1070,3.31907,-0.0263442,0.257302,0.936828
701,1068,3.32169,-0.0231265,0.255383,0.936219
703,1066,3.32128,-0.0230589,0.25538,0.936238
705,1064,3.32129,-0.0230793,0.255379,0.936222
707,1062,3.32074,-0.0239638,0.255846,0.935845
709,1060,3.32069,-0.0239957,0.255843,0.935574
711,1058,3.32057,-0.0240231,0.255843,0.935566
713,1056,3.32062,-0.0247977,0.255842,0.935267
715,1054,3.32053,-0.024738,0.255842,0.935289
717,1052,3.32078,-0.0246613,0.255713,0.935604
719,1050,3.32034,-0.0254548,0.255842,0.93502
721,1048,3.32004,-0.0253524,0.255843,0.93506
723,1046,3.3202,-0.0255741,0.255845,0.934985
725,1044,3.32,-0.0263541,0.256168,0.934695
727,1042,3.31975,-0.0263203,0.255847,0.934706
729,1040,3.31946,-0.0263699,0.255848,0.934694
731,1038,3.32161,-0.0232482,0.254711,0.933748
733,1036,3.32125,-0.023246,0.254711,0.933751
735,1034,3.32132,-0.0233114,0.254711,0.932383
737,1032,3.32116,-0.0240756,0.25471,0.933429
739,1030,3.32128,-0.0241521,0.254713,0.933405
741,1028,3.321,-0.024154,0.254711,0.933407
743,1026,3.32053,-0.0250331,0.255179,0.932789
745,1024,3.32065,-0.0248863,0.25471,0.933119
747,1022,3.3208,-0.0249501,0.254711,0.933104
749,1020,3.32006,-0.0258151,0.255178,0.932482
751,1018,3.31997,-0.0258614,0.255174,0.932458
753,1016,3.3197,-0.0259076,0.255172,0.932431
755,1014,3.31982,-0.0266321,0.255178,0.932167
757,1012,3.31933,-0.0265893,0.255175,0.932174
759,1010,3.32186,-0.022609,0.25356,0.931825
761,1008,3.32116,-0.0234876,0.254367,0.931208
763,1006,3.32158,-0.0233217,0.253558,0.931549
765,1004,3.32093,-0.024262,0.254024,0.930896
767,1002,3.32083,-0.0241752,0.254022,0.930926
769,1000,3.32072,-0.0241988,0.254023,0.930915
771,998,3.32044,-0.0251182,0.254492,0.930279
773,996,3.3201,-0.0250936,0.254492,0.930288
775,994,3.32053,-0.0249425,0.254019,0.930627
777,992,3.32006,-0.0258571,0.254488,0.929979
779,990,3.32034,-0.0257953,0.254017,0.930289
781,988,3.32015,-0.0257004,0.254016,0.930322
783,986,3.31969,-0.0266772,0.254485,0.929668
785,984,3.31948,-0.0266374,0.254483,0.929673
787,982,3.32215,-0.0225581,0.252399,0.929646
789,980,3.32178,-0.0234329,0.252866,0.929021
791,978,3.32136,-0.0235101,0.253203,0.929005
793,976,3.32108,-0.0244447,0.25334,0.928366
795,974,3.32064,-0.0244461,0.253339,0.92837
797,972,3.32078,-0.0244861,0.253339,0.928358
799,970,3.32046,-0.0251923,0.253648,0.928076
801,968,3.32044,-0.0252395,0.253336,0.928055
803,966,3.32013,-0.0252077,0.253332,0.928052
805,964,3.3203,-0.0260118,0.253648,0.927757
807,962,3.31989,-0.0259047,0.253331,0.927777
809,960,3.31949,-0.0268873,0.253803,0.927126
811,958,3.31924,-0.0268517,0.253802,0.927139
813,956,3.32215,-0.0226571,0.251709,0.927376
815,954,3.32153,-0.0235173,0.252179,0.926521
817,952,3.32133,-0.0235978,0.252174,0.926478
819,950,3.32146,-0.0243912,0.252179,0.926193
821,948,3.32122,-0.0243467,0.252181,0.926217
823,946,3.32116,-0.0244469,0.252181,0.926185
825,944,3.32028,-0.0253474,0.252655,0.925567
827,942,3.32044,-0.0253805,0.252658,0.925572
829,940,3.31948,-0.0262897,0.253127,0.924928
831,938,3.31995,-0.026165,0.252653,0.925248
833,936,3.31937,-0.0271348,0.253125,0.924605
835,934,3.31931,-0.0270822,0.253124,0.924623
837,932,3.32138,-0.0230904,0.251806,0.924253
839,930,3.3213,-0.0236714,0.251831,0.924025
841,928,3.32122,-0.0236714,0.251495,0.924021
843,926,3.32127,-0.0244614,0.251495,0.923718
845,924,3.32122,-0.024486,0.251495,0.923704
847,922,3.3209,-0.024556,0.251496,0.923697
849,920,3.32105,-0.0252242,0.251496,0.923435
851,918,3.32015,-0.0256067,0.251967,0.923014
853,916,3.32004,-0.0263427,0.251971,0.922742
855,914,3.31972,-0.0262896,0.251975,0.922777
857,912,3.3194,-0.0272866,0.252448,0.922111
859,910,3.31882,-0.02727,0.252449,0.922124
861,908,3.32153,-0.0239116,0.251394,0.921491
863,906,3.32114,-0.023814,0.25082,0.921539
865,904,3.32119,-0.0238489,0.250821,0.921543
867,902,3.32059,-0.024757,0.25129,0.920891
869,900,3.32077,-0.0247116,0.250819,0.921201
871,898,3.32042,-0.02558,0.251287,0.920571
873,896,3.31994,-0.0256452,0.251289,0.920557
875,894,3.32027,-0.0265202,0.251289,0.920229
877,892,3.31973,-0.0264915,0.251286,0.920222
879,890,3.31981,-0.0265665,0.251281,0.920189
881,888,3.31887,-0.0274289,0.251757,0.919579
883,886,3.31925,-0.0271946,0.251269,0.919895
885,884,3.32111,-0.023951,0.250683,0.918932
887,882,3.32094,-0.023915,0.25011,0.918965
889,880,3.3209,-0.0239886,0.250104,0.918929
891,878,3.32063,-0.0248162,0.250105,0.918612
893,876,3.32066,-0.0248149,0.250099,0.918607
895,874,3.31985,-0.0258851,0.250588,0.917705
897,872,3.31981,-0.0258696,0.250588,0.917969
899,870,3.31951,-0.026612,0.250586,0.917686
901,868,3.31943,-0.0265466,0.250586,0.917706
903,866,3.31884,-0.0274917,0.251064,0.917069
905,864,3.31914,-0.0273577,0.250585,0.917643
907,862,3.32123,-0.0241122,0.249419,0.916434
909,860,3.32091,-0.0241555,0.249419,0.91641
911,858,3.321044,-0.0241437,0.249418,0.916418
913,856,3.32063,-0.025038,0.249417,0.916065
915,854,3.32078,-0.0250248,0.248862,0.91605
917,852,3.31987,-0.0259368,0.249885,0.915427
919,850,3.31974,-0.025987,0.249893,0.915435
921,848,3.31959,-0.0266388,0.249891,0.915181
923,846,3.3194,-0.0267146,0.249892,0.915159
925,844,3.31942,-0.0274916,0.249893,0.91487
927,842,3.31895,-0.0275378,0.249892,0.914854
929,840,3.32116,-0.0243853,0.248737,0.913891
931,838,3.32064,-0.0243915,0.249316,0.913888
933,836,3.32024,-0.0253688,0.24921,0.913223
935,834,3.3198,-0.0252956,0.249209,0.913243
937,832,3.32005,-0.0260683,0.249209,0.912953
939,830,3.31983,-0.0260287,0.249208,0.91297
941,828,3.32013,-0.0259297,0.248728,0.913288
943,826,3.31971,-0.0268783,0.249203,0.912638
945,824,3.31911,-0.0269658,0.249507,0.912605
947,822,3.31888,-0.027896,0.249678,0.911959
949,820,3.32136,-0.0235685,0.247549,0.911948
951,818,3.3208,-0.0244346,0.248024,0.911325
953,816,3.32068,-0.0243943,0.248021,0.911338
955,814,3.32048,-0.0253365,0.248025,0.911001
957,812,3.32041,-0.0252995,0.248026,0.911019
959,810,3.3196,-0.0262066,0.248497,0.910372
961,808,3.31952,-0.0263442,0.248504,0.910345
963,806,3.31929,-0.0270003,0.248499,0.910078
965,804,3.31913,-0.0270146,0.248501,0.910076
967,802,3.31866,-0.0279602,0.24898,0.909437
969,800,3.31875,-0.0278253,0.248796,0.909527
971,798,3.32135,-0.0236828,0.246839,0.909382
973,796,3.32053,-0.024624,0.247312,0.908727
975,794,3.32057,-0.0246591,0.24731,0.90871
977,792,3.31976,-0.0255002,0.24779,0.908104
979,790,3.32017,-0.0254026,0.247306,0.908415
981,788,3.31972,-0.0263433,0.248068,0.907787
983,786,3.31988,-0.0262636,0.247313,0.908111
985,784,3.31934,-0.0272639,0.247807,0.907515
987,782,3.31849,-0.0282097,0.248283,0.906863
989,780,3.31886,-0.0281186,0.247811,0.907208
991,778,3.32088,-0.0247087,0.246635,0.906282
993,776,3.32062,-0.0248004,0.246636,0.90625
995,774,3.32063,-0.0255683,0.246624,0.905934
997,772,3.32014,-0.0256185,0.246955,0.905913
999,770,3.31973,-0.0266105,0.247104,0.905249
1001,768,3.3192,-0.0265405,0.247099,0.905257
1003,766,3.31931,-0.0272774,0.247097,0.904971
1005,764,3.3191,-0.0272821,0.247099,0.904972
1007,762,3.31837,-0.0283899,0.247576,0.904261
1009,760,3.31878,-0.02825,0.247088,0.904587
1011,758,3.3206,-0.0249588,0.245907,0.9036
1013,756,3.3204,-0.0249363,0.24591,0.903619
1015,754,3.32045,-0.0255796,0.24591,0.90338
1017,752,3.32021,-0.0257683,0.24592,0.903349
1019,750,3.31963,-0.0267756,0.246406,0.902711
1021,748,3.31911,-0.0267767,0.246405,0.902699
1023,746,3.31912,-0.0275512,0.24641,0.902429
1025,744,3.31862,-0.0283717,0.246897,0.901846
1027,742,3.3187,-0.028315,0.246401,0.902124
1029,740,3.32086,-0.0251257,0.245224,0.901113
1031,738,3.32027,-0.0251545,0.245222,0.901095
1033,736,3.31976,-0.0260104,0.245704,0.900484
1035,734,3.31973,-0.0259848,0.245707,0.900495
1037,732,3.31934,-0.02686,0.245701,0.900156
1039,730,3.31935,-0.0269121,0.2457,0.90014
1041,728,3.31843,-0.0279095,0.246183,0.899478
1043,726,3.31876,-0.0277009,0.245698,0.899841
1045,724,3.31819,-0.028557,0.246181,0.899233
1047,722,3.3211,-0.024216,0.244022,0.899192
1049,720,3.3205,-0.0253173,0.24451,0.898505
1051,718,3.31974,-0.0261555,0.244996,0.89791
1053,716,3.3195,-0.0261458,0.244997,0.897919
1055,714,3.31956,-0.0269607,0.245,0.897625
1057,712,3.31906,-0.0270659,0.245,0.897593
1059,710,3.31862,-0.0281062,0.245488,0.896922
1061,708,3.31804,-0.0279957,0.245783,0.896959
1063,706,3.31814,-0.0287667,0.245487,0.896684
1065,704,3.32057,-0.0243843,0.243806,0.896356
1067,702,3.3202,-0.0253795,0.243803,0.89598
1069,700,3.32015,-0.0254653,0.243803,0.895951
1071,698,3.31926,-0.0262785,0.244284,0.895335
1073,696,3.31919,-0.0268596,0.244281,0.895119
1075,694,3.31906,-0.0271411,0.244284,0.895023
1077,692,3.31811,-0.0282531,0.244773,0.894318
1079,690,3.31789,-0.0281766,0.244768,0.894338
1081,688,3.31789,-0.0288675,0.244769,0.894089
1083,686,3.32011,-0.0246414,0.243083,0.893696
1085,684,3.32019,-0.0255747,0.243078,0.893338
1087,682,3.31924,-0.026375,0.243567,0.892752
1089,680,3.31904,-0.026447,0.243566,0.892731
1091,678,3.31861,-0.0273609,0.244061,0.892112
1093,676,3.3188,-0.0272812,0.243571,0.89244
1095,674,3.31784,-0.0283506,0.244055,0.891737
1097,672,3.31782,-0.029022,0.244053,0.891495
1099,670,3.31742,-0.0291662,0.244062,0.891462
1101,668,3.31963,-0.0258494,0.242861,0.890434
1103,666,3.319,-0.0258051,0.242854,0.890429
1105,664,3.3191,-0.0266191,0.242849,0.890124
1107,662,3.3191,-0.0266054,0.243175,0.890116
1109,660,3.31857,-0.0274309,0.242845,0.889809
1111,658,3.3184,-0.027468,0.242842,0.88979
1113,656,3.3177,-0.0284045,0.243335,0.88916
1115,654,3.31751,-0.0292644,0.243332,0.888831
1117,652,3.31734,-0.0293836,0.243332,0.888785
1119,650,3.31915,-0.0257723,0.242111,0.887805
1121,648,3.31959,-0.0257921,0.241625,0.888115
1123,646,3.31896,-0.026715,0.24212,0.887505
1125,644,3.31806,-0.0278368,0.242621,0.886825
1127,642,3.31844,-0.0275083,0.242123,0.887231
1129,640,3.31788,-0.0286107,0.242618,0.886543
1131,638,3.31733,-0.0287304,0.242619,0.886306
1133,636,3.31725,-0.0295139,0.242623,0.886239
1135,634,3.31931,-0.0259186,0.241412,0.885285
1137,632,3.31883,-0.0260691,0.24141,0.885228
1139,630,3.31888,-0.0269963,0.241407,0.884875
1141,628,3.31801,-0.0278498,0.241897,0.884259
1143,626,3.31829,-0.027693,0.2414,0.884606
1145,624,3.31768,-0.0287884,0.241898,0.883922
1147,622,3.31712,-0.0288013,0.241894,0.883909
1149,620,3.31709,-0.0295734,0.241893,0.883625
1151,618,3.31904,-0.0261302,0.241268,0.882615
1153,616,3.31863,-0.0261865,0.240674,0.882581
1155,614,3.31796,-0.0272186,0.241182,0.881943
1157,612,3.3181,-0.0280822,0.241191,0.881658
1159,610,3.31752,-0.0281802,0.241484,0.881643
1161,608,3.31691,-0.0291168,0.2417,0.881041
1163,606,3.31679,-0.0299195,0.241696,0.880747
1165,604,3.31905,-0.025553,0.239974,0.880324
1167,602,3.31896,-0.0263208,0.239967,0.880027
1169,600,3.31834,-0.0273406,0.240548,0.879372
1171,598,3.31781,-0.0274003,0.240464,0.879339
1173,596,3.3176,-0.0283085,0.240463,0.879017
1175,594,3.31704,-0.029164,0.240965,0.878411
1177,592,3.31706,-0.0290289,0.240458,0.878747
1179,590,3.3163,-0.0301657,0.240955,0.878026
1181,588,3.31842,-0.0265376,0.239732,0.877046
1183,586,3.31853,-0.0264674,0.239231,0.877372
1185,584,3.31784,-0.0275851,0.23973,0.876671
1187,582,3.3171,-0.0284873,0.240231,0.876043
1189,580,3.31729,-0.0282825,0.239715,0.87502
1191,578,3.31673,-0.0294558,0.240225,0.875681
1193,576,3.31656,-0.0302467,0.240231,0.875423
1195,574,3.31898,-0.0258189,0.238508,0.875048
1197,572,3.31816,-0.0268358,0.239014,0.874398
1199,570,3.31824,-0.0275424,0.239013,0.874389
1201,568,3.31767,-0.0276456,0.23901,0.874109
1203,566,3.31708,-0.028825,0.239519,0.873397
1205,564,3.31693,-0.0294924,0.239513,0.873157
1207,562,3.31621,-0.0296026,0.239507,0.873331
1209,560,3.31559,-0.0306842,0.240012,0.872411
1211,558,3.31823,-0.0268414,0.238273,0.871786
1213,556,3.31771,-0.0269868,0.238274,0.871738
1215,554,3.31763,-0.0277085,0.238858,0.871468
1217,552,3.3169,-0.0287478,0.238776,0.870803
1219,550,3.31578,-0.0299685,0.239283,0.870069
1221,548,3.31623,-0.0296896,0.23877,0.870453
1223,546,3.31541,-0.0307677,0.239279,0.869773
1225,544,3.31724,-0.0271729,0.238036,0.868546
1227,542,3.31772,-0.0270495,0.23753,0.869087
1229,540,3.31693,-0.0281546,0.238038,0.868396
1231,538,3.31608,-0.0291107,0.23855,0.867766
1233,536,3.3159,-0.0300697,0.23855,0.867439
1235,534,3.31549,-0.0301787,0.23854,0.867374
1237,532,3.31535,-0.0308754,0.238544,0.867138
1239,530,3.31706,-0.0274458,0.237311,0.866067
1241,528,3.31713,-0.0282842,0.23731,0.865779
1243,526,3.31684,-0.0281972,0.237312,0.865819
1245,524,3.31577,-0.0293473,0.237823,0.865117
1247,522,3.31569,-0.0302249,0.238147,0.864809
1249,520,3.31488,-0.0313293,0.238336,0.864126
1251,518,3.31746,-0.0241812,0.236069,0.863768
1253,516,3.31709,-0.0250586,0.236063,0.863456
1255,514,3.31646,-0.0262034,0.236575,0.862747
1257,512,3.31594,-0.0364529,0.236573,0.862517
1259,510,3.3158,-0.0268763,0.23657,0.862512
1261,508,3.31521,-0.0375056,0.236574,0.862145
1263,506,3.31463,-0.0385465,0.237087,0.861492
1265,504,3.31696,-0.034798,0.235328,0.860813
1267,502,3.31707,-0.0323204,0.234817,0.860817
1269,500,3.31629,-0.033495,0.235329,0.860119
1271,498,3.31609,-0.0342646,0.23533,0.859861
1273,496,3.31533,-0.0330499,0.235333,0.859132
1275,494,3.31503,-0.0329933,0.235328,0.859143
1277,492,3.31813,-0.0266372,0.233055,0.85849
1279,490,3.31675,-0.0301962,0.234072,0.857799
1281,488,3.3168,-0.0286548,0.233557,0.857468
1283,486,3.31665,-0.0287453,0.233555,0.857668
1285,484,3.31549,-0.0296781,0.233908,0.85679
1287,482,3.31556,-0.028191,0.233548,0.856452
1289,480,3.31519,-0.0282992,0.233544,0.856408
1291,478,3.31804,-0.0243092,0.231781,0.855787
1293,476,3.31671,-0.0254597,0.232286,0.855074
1295,474,3.31635,-0.03594,0.232283,0.85479
1297,472,3.31616,-0.0360667,0.232283,0.854751
1299,470,3.31523,-0.0370539,0.232798,0.854129
1301,468,3.31486,-0.0379912,0.233391,0.853826
1303,466,3.3142,-0.0366821,0.232804,0.853129
1305,464,3.31709,-0.0326689,0.231037,0.852525
1307,462,3.31645,-0.0328047,0.231033,0.852478
1309,460,3.31668,-0.0311327,0.230531,0.852211
1311,458,3.31582,-0.0323597,0.231033,0.851477
1313,456,3.31585,-0.0306482,0.230524,0.851202
1315,454,3.31484,-0.0318665,0.231032,0.850488
1317,452,3.31745,-0.0270626,0.229316,0.850092
1319,450,3.31732,-0.0279337,0.229247,0.849791
1321,448,3.31636,-0.0290621,0.229749,0.849084
1323,446,3.31634,-0.027456,0.229237,0.848775
1325,444,3.316,-0.0275556,0.229234,0.848727
1327,442,3.31546,-0.0379775,0.229234,0.84873
1329,440,3.31413,-0.039254,0.229738,0.847761
1331,438,3.31711,-0.0352573,0.22796,0.847119
1333,436,3.31696,-0.0353371,0.227957,0.84709
1335,434,3.31616,-0.03383,0.227951,0.846419
1337,432,3.31582,-0.0348926,0.227955,0.846074
1339,430,3.31533,-0.0334675,0.227953,0.845398
1341,428,3.31576,-0.0332165,0.227452,0.8458
1343,426,3.31738,-0.0296614,0.226177,0.844706
1345,424,3.31737,-0.0304803,0.22618,0.844438
1347,422,3.31664,-0.0316327,0.226682,0.843753
1349,420,3.31667,-0.0300087,0.226177,0.843439
1351,418,3.31518,-0.0327843,0.226939,0.843043
1353,416,3.3155,-0.0285346,0.226237,0.842766
1355,414,3.31535,-0.0296225,0.22617,0.8424
1357,412,3.31726,-0.025707,0.224886,0.841391
1359,410,3.31695,-0.0266785,0.224885,0.841067
1361,408,3.31628,-0.0364836,0.224882,0.841302
1363,406,3.31554,-0.0376587,0.225382,0.840372
1365,404,3.31439,-0.0387085,0.225883,0.839707
1367,402,3.31409,-0.039701,0.225883,0.839386
1369,400,3.31702,-0.032384,0.223592,0.838979
1371,398,3.3169,-0.0332139,0.22359,0.838707
1373,396,3.3158,-0.034348,0.224351,0.838019
1375,394,3.31551,-0.035287,0.22383,0.837703
1377,392,3.315,-0.033979,0.224094,0.837
1379,390,3.3153,-0.0337261,0.223597,0.83742
1381,388,3.31709,-0.0299982,0.222315,0.836374
1383,386,3.31735,-0.0284024,0.221818,0.836076
1385,384,3.3164,-0.0295621,0.222318,0.835379
1387,382,3.31563,-0.0304964,0.222818,0.834765
1389,380,3.31508,-0.0315454,0.222811,0.834403
1391,378,3.31482,-0.0315288,0.22312,0.834411
1393,376,3.31716,-0.0251907,0.221013,0.833344
1395,374,3.31648,-0.0359574,0.221012,0.833085
1397,372,3.31574,-0.0272654,0.221508,0.832335
1399,370,3.31529,-0.0380564,0.221505,0.832064
1401,368,3.31507,-0.039134,0.221503,0.831719
1403,366,3.31501,-0.0364672,0.221003,0.831738
1405,364,3.3165,-0.0353406,0.220199,0.830648
1407,362,3.31669,-0.0336391,0.219703,0.830372
1409,360,3.31573,-0.0349147,0.2202,0.829639
1411,358,3.31588,-0.0330634,0.219698,0.829401
1413,356,3.31524,-0.0331917,0.219696,0.829355
1415,354,3.31541,-0.0315918,0.219203,0.829057
1417,352,3.31653,-0.0305943,0.218899,0.827618
1419,350,3.31665,-0.02881,0.218399,0.827365
1421,348,3.31599,-0.0298856,0.218977,0.827019
1423,346,3.31516,-0.0309849,0.218899,0.826357
1425,344,3.31521,-0.0293709,0.218398,0.82604
1427,342,3.31497,-0.0292483,0.218398,0.82608
1429,340,3.31671,-0.0255505,0.217088,0.823763
1431,338,3.31621,-0.0365111,0.217088,0.824701
1433,336,3.31517,-0.0377114,0.217584,0.823998
1435,334,3.31512,-0.0386429,0.217582,0.823692
1437,332,3.31392,-0.0396973,0.218328,0.823039
1439,330,3.31442,-0.0369756,0.21708,0.821914
1441,328,3.31659,-0.0332138,0.215768,0.82231
1443,326,3.31648,-0.0341671,0.215823,0.822002
1445,324,3.31574,-0.0325967,0.215764,0.821343
1447,322,3.31526,-0.0337089,0.215762,0.820986
1449,320,3.31475,-0.0321502,0.21576,0.820328
1451,318,3.3145,-0.0333598,0.215761,0.820173
1453,316,3.31712,-0.0280719,0.21374,0.819663
1455,314,3.31593,-0.0293468,0.214744,0.818937
1457,312,3.31603,-0.0276063,0.213947,0.818661
1459,310,3.31465,-0.0390281,0.214442,0.817961
1461,308,3.31489,-0.029701,0.21444,0.817679
1463,306,3.31331,-0.0410492,0.214936,0.817006
1465,304,3.31591,-0.037045,0.213117,0.816312
1467,302,3.31545,-0.0355211,0.213115,0.815639
1469,300,3.31552,-0.0379781,0.213113,0.816015
1471,298,3.31489,-0.03643,0.213111,0.815346
1473,296,3.31418,-0.0375199,0.21311,0.815002
1475,294,3.31373,-0.0359555,0.213165,0.814344
1477,292,3.31656,-0.0320008,0.21129,0.813627
1479,290,3.31605,-0.0304512,0.211291,0.812972
1481,288,3.31555,-0.0314343,0.211288,0.812653
1483,286,3.31447,-0.0326299,0.212078,0.811957
1485,284,3.31446,-0.0300145,0.211285,0.811951
1487,282,3.31697,-0.0285439,0.209953,0.81128
1489,280,3.31627,-0.0269424,0.209953,0.810626
1491,278,3.31564,-0.0280551,0.20995,0.810272
1493,276,3.31549,-0.0289418,0.20995,0.810005
1495,274,3.31423,-0.0403744,0.210444,0.809353
1497,272,3.31388,-0.0414145,0.210445,0.80904
1499,270,3.31597,-0.0374878,0.209107,0.807991
1501,268,3.31544,-0.0375979,0.209106,0.807958
1503,266,3.31557,-0.0359177,0.208614,0.807645
1505,264,3.31469,-0.037118,0.209102,0.806948
1507,262,3.31465,-0.0353073,0.208844,0.806678
1509,260,3.31654,-0.0315204,0.207266,0.805562
1511,258,3.31625,-0.032401,0.207266,0.805296
1513,256,3.31558,-0.0309844,0.207265,0.804582
1515,254,3.31528,-0.0320534,0.207558,0.804257
1517,252,3.31532,-0.0301564,0.206775,0.804016
1519,250,3.314,-0.0314957,0.207259,0.803268
1521,248,3.31683,-0.0272257,0.205421,0.802618
1523,246,3.31593,-0.0274362,0.205905,0.80222
1525,244,3.31565,-0.0284605,0.205903,0.801914
1527,242,3.31508,-0.0397444,0.205904,0.801664
1529,240,3.31368,-0.0410199,0.206961,0.800947
1531,238,3.31343,-0.0419864,0.206393,0.800658
1533,236,3.31602,-0.0354202,0.204548,0.799558
1535,234,3.31578,-0.0363545,0.204548,0.799278
1537,232,3.31577,-0.0345573,0.204065,0.799016
1539,230,3.31452,-0.0359394,0.20455,0.798275
1541,228,3.31348,-0.0370412,0.205038,0.797625
1543,226,3.31665,-0.0302425,0.202706,0.796908
1545,224,3.31572,-0.0314292,0.20319,0.79623
1547,222,3.31582,-0.0296432,0.202753,0.79596
1549,220,3.31481,-0.0324514,0.203187,0.795919
1551,218,3.31473,-0.0307085,0.2027,0.795625
1553,216,3.31664,-0.0372305,0.201332,0.794558
1555,214,3.31636,-0.0383216,0.201331,0.794229
1557,212,3.31613,-0.0391538,0.201327,0.793976
1559,210,3.3149,-0.040384,0.201812,0.793284
1561,208,3.31368,-0.0417159,0.202298,0.792569
1563,206,3.3137,-0.0398753,0.20181,0.792291
1565,204,3.31619,-0.0334405,0.20017,0.79111
1567,202,3.31598,-0.0342029,0.199953,0.790889
1569,200,3.31561,-0.0351478,0.199952,0.790606
1571,198,3.31431,-0.0365679,0.200432,0.789863
1573,196,3.3145,-0.0347018,0.199951,0.789832
1575,194,3.31708,-0.0295341,0.198091,0.789181
1577,192,3.31703,-0.0305845,0.198091,0.788879
1579,190,3.31631,-0.0289129,0.198651,0.78823
1581,188,3.31569,-0.0300004,0.19809,0.78792
1583,186,3.3147,-0.031191,0.198572,0.787241
1585,184,3.31716,-0.0376256,0.196708,0.786559
1587,182,3.31608,-0.0388877,0.197184,0.785864
1589,180,3.31601,-0.0398506,0.197187,0.785591
1591,178,3.31466,-0.041086,0.197663,0.784879
1593,176,3.31459,-0.0394349,0.19718,0.784551
1595,174,3.31757,-0.0351226,0.195314,0.783886
1597,172,3.31679,-0.0336054,0.195311,0.783173
1599,170,3.31642,-0.0347243,0.19531,0.782839
1601,168,3.3164,-0.0328159,0.194834,0.782777
1603,166,3.31518,-0.0340127,0.195307,0.781896
1605,164,3.31461,-0.0350766,0.195513,0.781588
1607,162,3.31729,-0.0281968,0.193436,0.78051
1609,160,3.31701,-0.0294659,0.193434,0.780138
1611,158,3.31662,-0.0303628,0.193432,0.779879
1613,156,3.31539,-0.0422416,0.193906,0.779249
1615,154,3.31474,-0.0433875,0.193903,0.77891
1617,152,3.31681,-0.039399,0.192506,0.77646
1619,150,3.31693,-0.0374747,0.192028,0.777546
1621,148,3.31603,-0.0360105,0.19202,0.776796
1623,146,3.31539,-0.0393787,0.192492,0.776641
1625,144,3.31551,-0.0379602,0.192574,0.776238
1627,142,3.31753,-0.033996,0.190614,0.775119
1629,140,3.31705,-0.0350023,0.190614,0.774832
1631,138,3.31727,-0.0332509,0.190143,0.774532
1633,136,3.3164,-0.0317434,0.190141,0.773818
1635,134,3.31604,-0.0327419,0.190139,0.773528
1637,132,3.3186,-0.0392018,0.188259,0.772868
1639,130,3.3173,-0.0404256,0.188722,0.772182
1641,128,3.31691,-0.0415733,0.188719,0.771849
1643,126,3.3167,-0.0425501,0.188718,0.77154
1645,124,3.31596,-0.0409133,0.188717,0.770897
1647,122,3.31879,-0.0368211,0.186831,0.770126
1649,120,3.31813,-0.0351156,0.18683,0.769467
1651,118,3.31764,-0.0361645,0.187378,0.76917
1653,116,3.31639,-0.0375158,0.187292,0.768448
1655,114,3.31612,-0.0384497,0.18729,0.768191
1657,112,3.3194,-0.0313694,0.184942,0.767465
1659,110,3.31937,-0.0296662,0.184485,0.767094
1661,108,3.31831,-0.030932,0.184948,0.766479
1663,106,3.31806,-0.0319296,0.184948,0.766203
1665,104,3.31646,-0.0332182,0.185598,0.765503
1667,102,3.31952,-0.0288628,0.18352,0.764813
1669,100,3.31905,-0.0409412,0.183517,0.764532
1671,98,3.31822,-0.0393506,0.183516,0.76383
1673,96,3.31775,-0.0404629,0.183513,0.763517
1675,94,3.321,-0.0331203,0.181169,0.762857
1677,92,3.31981,-0.0343068,0.181621,0.762181
1679,90,3.31913,-0.035515,0.181613,0.761822
1681,88,3.31887,-0.0364628,0.18187,0.761528
1683,86,3.31891,-0.0346869,0.181151,0.761223
1685,84,3.32129,-0.0277676,0.179262,0.760108
1687,82,3.321,-0.0289031,0.179261,0.759784
1689,80,3.32061,-0.0298089,0.179258,0.759525
1691,78,3.31911,-0.043145,0.179702,0.758543
1693,76,3.31788,-0.0444863,0.180152,0.75784
1695,74,3.3212,-0.0372632,0.178062,0.757119
1697,72,3.32091,-0.0383087,0.177799,0.756818
1699,70,3.32002,-0.0367805,0.177797,0.756093
1701,68,3.31976,-0.0379208,0.177799,0.755796
1703,66,3.3227,-0.0333249,0.175901,0.755385
1705,64,3.3217,-0.0318766,0.1759,0.754414
1707,62,3.32119,-0.0329941,0.175902,0.75411
1709,60,3.32119,-0.0321812,0.175455,0.753527
1711,58,3.32021,-0.0334839,0.175901,0.752844
1713,56,3.32272,-0.040308,0.174003,0.752149
1715,54,3.32239,-0.0413468,0.174004,0.751864
1717,52,3.32241,-0.0394388,0.173729,0.751571
1719,50,3.32112,-0.0408386,0.173996,0.750844
1721,48,3.32376,-0.036384,0.172115,0.750162
1723,46,3.3232,-0.0358504,0.172092,0.749155
1725,44,3.32319,-0.0341169,0.171652,0.748815
1727,42,3.32274,-0.0351564,0.171648,0.748519
1729,40,3.3249,-0.0309876,0.170178,0.74741
1731,38,3.32485,-0.0291205,0.169908,0.747118
1733,36,3.32439,-0.0301154,0.169743,0.746842
1735,34,3.32275,-0.0436373,0.170171,0.745868
1737,32,3.3221,-0.0448524,0.17017,0.745532
1739,30,3.32561,-0.0375342,0.167835,0.74482
1741,28,3.32435,-0.0388291,0.168262,0.744139
1743,26,3.32419,-0.0371562,0.167833,0.743779
1745,24,3.32424,-0.0362778,0.167404,0.743193
1747,22,3.32657,-0.0320315,0.165928,0.74213
1749,20,3.32589,-0.0332124,0.165928,0.741814
1751,18,3.32532,-0.0343646,0.165928,0.741506
1753,16,3.32462,-0.0338261,0.165929,0.740514
1755,14,3.32741,-0.0405277,0.164025,0.739876
1757,12,3.32669,-0.0417056,0.164026,0.739563
1759,10,3.32596,-0.0412364,0.164024,0.738544
1761,8,3.32908,-0.0367029,0.162353,0.737872
1763,6,3.32878,-0.0348577,0.161698,0.737549
1765,4,3.32764,-0.0344294,0.161696,0.73674
1766,3,3.32744,-0.0343767,0.161692,0.736524