File: hust_correlation_analysis/matrices/HUST_2-2_cycle_feature_matrix.csv
cycle_number,rul,voltage,current,capacity,charge_capacity
1,2653,3.3312,-0.0122707,0.284108,1.04053
4,2650,3.31668,-0.0139902,0.290099,1.03367
7,2647,3.31762,-0.0127601,0.289563,1.03197
10,2644,3.31752,-0.0139448,0.289549,1.03134
13,2641,3.31727,-0.0145788,0.289542,1.03102
16,2638,3.31846,-0.0127181,0.288589,1.03011
19,2635,3.31798,-0.013386,0.288589,1.02952
22,2632,3.31772,-0.0139918,0.288585,1.02921
25,2629,3.31772,-0.0145753,0.288584,1.02895
28,2626,3.31717,-0.0152497,0.288583,1.02859
31,2623,3.31865,-0.0127823,0.287608,1.02767
34,2620,3.31854,-0.0135047,0.287607,1.02583
37,2617,3.31833,-0.0134176,0.287593,1.02732
40,2614,3.31777,-0.0157016,0.288008,1.0272
43,2611,3.31734,-0.0164636,0.288424,1.02657
46,2608,3.31716,-0.0169686,0.288401,1.02627
49,2605,3.31884,-0.0139071,0.287204,1.02591
52,2602,3.31865,-0.0145889,0.287028,1.02559
55,2599,3.3181,-0.0154475,0.287763,1.0249
58,2596,3.31799,-0.0158357,0.28744,1.02473
61,2593,3.31798,-0.0159086,0.287435,1.02468
64,2590,3.31771,-0.0164403,0.287427,1.02438
67,2587,3.31762,-0.0170799,0.287418,1.02404
70,2584,3.31729,-0.017206,0.288029,1.02397
73,2581,3.31872,-0.0147075,0.286459,1.02312
76,2578,3.31863,-0.0152198,0.286462,1.02288
79,2575,3.31864,-0.0153212,0.286469,1.02286
82,2572,3.31833,-0.0159045,0.286476,1.02261
85,2569,3.31835,-0.016445,0.286475,1.02233
88,2566,3.31819,-0.0164487,0.286463,1.02229
91,2563,3.31765,-0.0172159,0.286877,1.02167
94,2560,3.31778,-0.0171645,0.286456,1.02191
97,2557,3.3193,-0.0146504,0.285497,1.02106
100,2554,3.31905,-0.0146527,0.2855,1.01973
103,2551,3.31908,-0.0153274,0.285514,1.02079
106,2548,3.31845,-0.0160195,0.285941,1.02025
109,2545,3.31847,-0.0159456,0.285935,1.02026
112,2542,3.31833,-0.0165702,0.285931,1.01993
115,2539,3.31806,-0.0166498,0.28589,1.01987
118,2536,3.31811,-0.0172324,0.286243,1.01959
121,2533,3.31784,-0.0172177,0.28592,1.01959
124,2530,3.31929,-0.0147081,0.28496,1.01872
127,2527,3.31963,-0.0146572,0.284553,1.01902
130,2524,3.31917,-0.015406,0.284975,1.01844
133,2521,3.31905,-0.0152923,0.284974,1.01849
136,2518,3.31917,-0.0159538,0.28529,1.01815
139,2515,3.31883,-0.015962,0.284963,1.01812
142,2512,3.31875,-0.0159408,0.284964,1.01814
145,2509,3.31831,-0.0166993,0.285997,1.01753
148,2506,3.31799,-0.0166615,0.285381,1.01754
151,2503,3.31828,-0.0173524,0.28539,1.01748
154,2500,3.31775,-0.0173104,0.285399,1.01729
157,2497,3.31938,-0.0147387,0.284458,1.01651
160,2494,3.31974,-0.0146406,0.284036,1.01678
163,2491,3.31933,-0.015461,0.284459,1.01615
166,2488,3.31917,-0.0154111,0.284455,1.01617
169,2485,3.31893,-0.0153925,0.284449,1.01616
172,2482,3.31893,-0.0159847,0.284457,1.01589
175,2479,3.31888,-0.0160477,0.28446,1.01587
178,2476,3.31848,-0.0167727,0.284886,1.0153
181,2473,3.31829,-0.0150383,0.28447,1.01539
184,2470,3.31861,-0.015614,0.284467,1.01485
187,2467,3.31816,-0.0157047,0.284467,1.01481
190,2464,3.31799,-0.0156345,0.284467,1.01485
193,2461,3.31966,-0.013122,0.283504,1.01397
196,2458,3.31941,-0.0131662,0.283507,1.01396
199,2455,3.31977,-0.0130849,0.283184,1.01422
202,2452,3.31933,-0.0154713,0.283922,1.01384
205,2449,3.3191,-0.0137646,0.283505,1.01366
208,2446,3.31915,-0.0154015,0.284017,1.01385
211,2443,3.31892,-0.0157054,0.283917,1.01367
214,2440,3.31898,-0.016071,0.283915,1.01351
217,2437,3.31882,-0.0160791,0.283916,1.01352
220,2434,3.31847,-0.0168564,0.284341,1.01291
223,2431,3.31829,-0.0168699,0.284339,1.0129
226,2428,3.3181,-0.0169257,0.28434,1.01288
229,2425,3.3182,-0.0174638,0.284341,1.01262
232,2422,3.31806,-0.0174908,0.284342,1.01261
235,2419,3.31794,-0.0158096,0.283921,1.01242
238,2416,3.31941,-0.0148669,0.283991,1.01178
241,2413,3.31928,-0.0148869,0.283368,1.01174
244,2410,3.31953,-0.0148129,0.282925,1.01222
247,2407,3.31952,-0.0148164,0.282914,1.01191
250,2404,3.31935,-0.0148631,0.282901,1.01184
253,2401,3.31932,-0.0148582,0.282894,1.01182
256,2398,3.31924,-0.0149113,0.28289,1.01178
259,2395,3.31902,-0.0147605,0.282863,1.01176
262,2392,3.31828,-0.0150345,0.283306,1.01143
265,2389,3.31865,-0.0156204,0.283307,1.01118
268,2386,3.31864,-0.016183,0.283306,1.01091
271,2383,3.31846,-0.0161851,0.283303,1.01089
274,2380,3.3183,-0.0162211,0.283303,1.01087
277,2377,3.31823,-0.0163039,0.283298,1.01082
280,2374,3.31787,-0.017063,0.28373,1.01024
283,2371,3.31807,-0.0169078,0.283319,1.0106
286,2368,3.31772,-0.0175981,0.283747,1.01005
289,2365,3.31752,-0.0176249,0.283746,1.01029
292,2362,3.31799,-0.0174607,0.283314,1.01032
295,2359,3.31947,-0.014938,0.282442,1.00943
298,2356,3.31943,-0.0149808,0.28234,1.00939
301,2353,3.31903,-0.0147921,0.282341,1.00949
304,2350,3.31903,-0.0149539,0.282343,1.00941
307,2347,3.31919,-0.0156094,0.282358,1.00914
310,2344,3.31896,-0.0156743,0.28236,1.00913
313,2341,3.31876,-0.016323,0.282785,1.00858
316,2338,3.31866,-0.0163312,0.282782,1.00856
319,2335,3.31844,-0.0164048,0.282778,1.00851
322,2332,3.31883,-0.0162597,0.282348,1.0088
325,2329,3.31822,-0.0163471,0.282763,1.00849
328,2326,3.31828,-0.0169529,0.282764,1.0082
331,2323,3.31815,-0.0170212,0.282778,1.00821
334,2320,3.31806,-0.0169914,0.283097,1.00825
337,2317,3.31797,-0.0175943,0.282784,1.00796
340,2314,3.31802,-0.0176416,0.282781,1.00793
343,2311,3.31766,-0.0176895,0.282781,1.0079
346,2308,3.31933,-0.0150252,0.281764,1.00734
349,2305,3.31983,-0.0149335,0.281389,1.00735
352,2302,3.31905,-0.0151155,0.281811,1.00703
355,2299,3.31901,-0.0150432,0.281813,1.00707
358,2296,3.31919,-0.0157291,0.281816,1.00676
361,2293,3.31898,-0.0157731,0.281831,1.00679
364,2290,3.31916,-0.0163195,0.281834,1.00654
367,2287,3.31893,-0.0163304,0.281827,1.00649
370,2284,3.31875,-0.0163206,0.281823,1.00649
373,2281,3.31874,-0.0163837,0.28182,1.00645
376,2278,3.31861,-0.0163138,0.281813,1.00646
379,2275,3.31817,-0.0170627,0.282237,1.00587
382,2272,3.3181,-0.0171517,0.282243,1.00583
385,2269,3.31847,-0.0170439,0.281829,1.00617
388,2266,3.31795,-0.0177074,0.282267,1.00566
391,2263,3.31778,-0.017704,0.282267,1.00566
394,2260,3.31995,-0.0150561,0.281065,1.00507
397,2257,3.3198,-0.0149575,0.280865,1.00509
400,2254,3.31975,-0.0150047,0.280867,1.00508
403,2251,3.31958,-0.015152,0.280861,1.00497
406,2248,3.31948,-0.0150347,0.28086,1.00502
409,2245,3.31968,-0.0157111,0.280881,1.00476
412,2242,3.31937,-0.0157414,0.280886,1.00476
415,2239,3.31922,-0.016388,0.281316,1.00423
418,2236,3.31904,-0.0163672,0.281317,1.00406
421,2233,3.31877,-0.0164389,0.281317,1.00422
424,2230,3.31922,-0.0162835,0.280798,1.00448
427,2227,3.31905,-0.0162691,0.280865,1.00446
430,2224,3.31872,-0.0170806,0.281287,1.00381
433,2221,3.31851,-0.0171455,0.281602,1.00378
436,2218,3.31863,-0.0177167,0.281318,1.0036
439,2215,3.31849,-0.016009,0.281513,1.00342
442,2212,3.31848,-0.0160172,0.280907,1.00345
445,2209,3.32007,-0.0134032,0.279939,1.0026
448,2206,3.32036,-0.0133177,0.279512,1.00287
451,2203,3.32037,-0.0133752,0.279508,1.00283
454,2200,3.3202,-0.0133537,0.279506,1.00284
457,2197,3.31997,-0.0150338,0.279922,1.00301
460,2194,3.31966,-0.0159149,0.280185,1.00236
463,2191,3.31961,-0.0140856,0.279936,1.00227
466,2188,3.31968,-0.0147751,0.279945,1.00196
469,2185,3.31958,-0.0146734,0.279942,1.00202
472,2182,3.31943,-0.0146481,0.279926,1.00197
475,2179,3.31914,-0.0164441,0.280345,1.0021
478,2176,3.31908,-0.0164898,0.280335,1.00205
481,2173,3.31894,-0.0164528,0.280322,1.00229
484,2170,3.3185,-0.0171915,0.28075,1.00144
487,2167,3.31898,-0.017188,0.280331,1.00169
490,2164,3.31869,-0.0171058,0.28033,1.00174
493,2161,3.31855,-0.0171089,0.280332,1.00174
496,2158,3.31839,-0.0178546,0.280754,1.00115
499,2155,3.31861,-0.0177575,0.280317,1.00139
502,2152,3.31795,-0.0178104,0.280745,1.00112
505,2149,3.31831,-0.0177361,0.280317,1.00139
508,2146,3.32002,-0.0152089,0.279439,1.00048
511,2143,3.31976,-0.0151545,0.279339,1.00049
514,2140,3.31977,-0.0152639,0.279354,1.00048
517,2137,3.32013,-0.0151572,0.27904,1.00082
520,2134,3.31972,-0.0157956,0.279376,1.0003
523,2131,3.31971,-0.0158364,0.279371,1.00027
526,2128,3.31946,-0.0158742,0.279451,1.00022
529,2125,3.31905,-0.0165699,0.279781,0.999466
532,2122,3.31954,-0.0164777,0.279345,0.999886
535,2119,3.31926,-0.0165251,0.279349,0.99987
538,2116,3.31907,-0.0164786,0.279357,0.999925
541,2113,3.31929,-0.017159,0.279379,0.999653
544,2110,3.31921,-0.015418,0.278958,0.999488
547,2107,3.31883,-0.0160263,0.279382,0.998964
550,2104,3.3188,-0.0160959,0.279372,0.998911
553,2101,3.31844,-0.0179172,0.279789,0.999017
556,2098,3.31828,-0.0178438,0.279775,0.999014
559,2095,3.31824,-0.0179141,0.279768,0.998954
562,2092,3.31803,-0.0179173,0.279764,0.998934
565,2089,3.3201,-0.0151903,0.278372,0.998355
568,2086,3.32027,-0.0153039,0.278402,0.998432
571,2083,3.32015,-0.014178,0.277985,0.997961
574,2080,3.31975,-0.0142359,0.278414,0.997718
577,2077,3.3199,-0.0158985,0.2784,0.998127
580,2074,3.3198,-0.0158632,0.278391,0.998108
583,2071,3.31933,-0.0165655,0.278811,0.997523
586,2068,3.31926,-0.0166336,0.278812,0.9975
589,2065,3.31909,-0.0165594,0.278807,0.997532
592,2062,3.31933,-0.0155686,0.278406,0.997051
595,2059,3.31936,-0.0155554,0.278417,0.997104
598,2056,3.31885,-0.0162457,0.278849,0.996558
601,2053,3.31852,-0.016208,0.278851,0.996586
604,2050,3.31896,-0.0161382,0.278425,0.996845
607,2047,3.32076,-0.0134502,0.277449,0.996008
610,2044,3.32037,-0.0134944,0.277447,0.995983
613,2041,3.3203,-0.0135066,0.27745,0.995985
616,2038,3.32044,-0.0141352,0.277453,0.995691
619,2035,3.31985,-0.0143503,0.277887,0.995378
622,2032,3.32016,-0.0141752,0.277462,0.995699
625,2029,3.31972,-0.0146891,0.27789,0.995243
628,2026,3.31963,-0.0149743,0.277896,0.99512
631,2023,3.31956,-0.01482,0.277895,0.995195
634,2020,3.31975,-0.0155412,0.277732,0.994868
637,2017,3.31938,-0.0155939,0.277896,0.99482
640,2014,3.31914,-0.0155116,0.277894,0.994856
643,2011,3.31915,-0.0155787,0.277889,0.994809
646,2008,3.31911,-0.0161489,0.277893,0.994547
649,2005,3.3189,-0.0161332,0.27789,0.99455
652,2002,3.31894,-0.0162176,0.277887,0.994498
655,1999,3.31873,-0.0162313,0.277887,0.994492
658,1996,3.32035,-0.0136042,0.276913,0.993625
661,1993,3.32078,-0.0135834,0.276485,0.993604
664,1990,3.32014,-0.0136366,0.27691,0.993587
667,1987,3.32035,-0.013529,0.27648,0.993863
670,1984,3.32014,-0.0143044,0.276906,0.993261
673,1981,3.31996,-0.0142784,0.276906,0.993268
676,1978,3.31989,-0.014336,0.276909,0.993266
679,1975,3.31997,-0.0149438,0.276908,0.992956
682,1972,3.3198,-0.0149297,0.276906,0.992961
685,1969,3.31957,-0.0150374,0.276903,0.992901
688,1966,3.31966,-0.0155355,0.276897,0.991336
691,1963,3.31954,-0.0155659,0.276896,0.992625
694,1960,3.31939,-0.0156356,0.27689,0.992581
697,1957,3.31932,-0.0155268,0.276888,0.992622
700,1954,3.31868,-0.0163136,0.277326,0.992036
703,1951,3.31864,-0.0164631,0.27733,0.991987
706,1948,3.3203,-0.0136924,0.276359,0.991197
709,1945,3.32075,-0.0136724,0.27593,0.991436
712,1942,3.32053,-0.0136799,0.27593,0.991434
715,1939,3.32029,-0.0136823,0.275929,0.991431
718,1936,3.32041,-0.0142812,0.275929,0.991143
721,1933,3.32026,-0.0143412,0.275928,0.991113
724,1930,3.32025,-0.0143681,0.275929,0.990622
727,1927,3.32013,-0.014971,0.275937,0.990843
730,1924,3.32019,-0.0149621,0.275941,0.990869
733,1921,3.31956,-0.015718,0.276367,0.990264
736,1918,3.31959,-0.0156518,0.276377,0.990334
739,1915,3.31942,-0.0156601,0.276374,0.990322
742,1912,3.31927,-0.0164058,0.276363,0.98993
745,1909,3.3192,-0.0163297,0.276367,0.98997
748,1906,3.31912,-0.0163894,0.276361,0.989929
751,1903,3.31881,-0.0162805,0.276343,0.989918
754,1900,3.32048,-0.0138041,0.275376,0.988986
757,1897,3.32089,-0.0135246,0.27494,0.98934
760,1894,3.32031,-0.0137576,0.275284,0.988985
763,1891,3.32026,-0.0144181,0.275378,0.988716
766,1888,3.32011,-0.014399,0.275376,0.988718
769,1885,3.3205,-0.0143284,0.27495,0.988983
772,1882,3.32009,-0.0151284,0.275371,0.988355
775,1879,3.31996,-0.0150568,0.275983,0.988377
778,1876,3.31992,-0.0151618,0.275358,0.988278
781,1873,3.31979,-0.0151655,0.275679,0.988351
784,1870,3.31964,-0.0158537,0.275374,0.988011
787,1867,3.31965,-0.0157976,0.275374,0.988047
790,1864,3.31916,-0.0164375,0.275811,0.987545
793,1861,3.319,-0.0165062,0.275803,0.987486
796,1858,3.31936,-0.0163885,0.275374,0.987768
799,1855,3.32109,-0.0137625,0.274395,0.986884
802,1852,3.32075,-0.0138484,0.274395,0.986834
805,1849,3.32072,-0.0137343,0.274386,0.986866
808,1846,3.32064,-0.0137957,0.274383,0.986828
811,1843,3.32059,-0.0144116,0.274474,0.986531
814,1840,3.32052,-0.0145687,0.274394,0.986291
817,1837,3.3205,-0.014482,0.274385,0.986516
820,1834,3.32055,-0.014976,0.274375,0.986242
823,1831,3.32014,-0.0151359,0.274369,0.986133
826,1828,3.32018,-0.015122,0.274364,0.986134
829,1825,3.31995,-0.0168553,0.274789,0.986307
832,1822,3.31959,-0.0159114,0.274799,0.985545
835,1819,3.31955,-0.016451,0.274805,0.985322
838,1816,3.31948,-0.0165269,0.274828,0.985369
841,1813,3.31936,-0.0164787,0.274814,0.985089
844,1810,3.31957,-0.0163579,0.274677,0.985577
847,1807,3.32137,-0.0138441,0.273392,0.984624
850,1804,3.32115,-0.0137947,0.27339,0.984644
853,1801,3.32086,-0.0138567,0.273383,0.984597
856,1798,3.32087,-0.0138331,0.27339,0.984626
859,1795,3.32093,-0.0145212,0.273395,0.984308
862,1792,3.32042,-0.015245,0.273836,0.984044
865,1789,3.32025,-0.0152176,0.27384,0.983832
868,1786,3.32073,-0.015258,0.27341,0.984025
871,1783,3.32025,-0.0158359,0.273837,0.98351
874,1780,3.32009,-0.0159334,0.273547,0.98347
877,1777,3.31995,-0.0158054,0.273825,0.983492
880,1774,3.31996,-0.0158911,0.273825,0.983453
883,1771,3.31987,-0.0165491,0.273825,0.983139
886,1768,3.3217,-0.0131307,0.272427,0.982892
889,1765,3.32147,-0.0138805,0.272858,0.98232
892,1762,3.32123,-0.0138739,0.272859,0.982332
895,1759,3.32151,-0.013796,0.27243,0.9826
898,1756,3.32106,-0.0144214,0.272857,0.982057
901,1753,3.32106,-0.0145427,0.272719,0.981998
904,1750,3.32083,-0.0145796,0.272853,0.981959
907,1747,3.32077,-0.0152023,0.272853,0.981663
910,1744,3.32067,-0.01521,0.27285,0.981644
913,1741,3.32052,-0.0152059,0.272849,0.981653
916,1738,3.32034,-0.0153241,0.272851,0.981611
919,1735,3.32012,-0.0158963,0.273283,0.981112
922,1732,3.32035,-0.015934,0.272853,0.97988
925,1729,3.3198,-0.0166266,0.273284,0.980774
928,1726,3.31958,-0.0166484,0.273274,0.980731
931,1723,3.31963,-0.0165963,0.273268,0.980738
934,1720,3.31989,-0.0166451,0.272839,0.980934
937,1717,3.32137,-0.0132679,0.271852,0.980388
940,1714,3.32109,-0.0156604,0.27227,0.980221
943,1711,3.32131,-0.0138178,0.271851,0.980114
946,1708,3.3213,-0.0145173,0.271851,0.979785
949,1705,3.32106,-0.0146219,0.271866,0.978444
952,1702,3.321,-0.0145498,0.271861,0.97981
955,1699,3.32066,-0.0153166,0.272279,0.97919
958,1696,3.3205,-0.0153139,0.272278,0.979173
961,1693,3.32024,-0.0153748,0.272277,0.979143
964,1690,3.32068,-0.0152289,0.271848,0.979431
967,1687,3.32033,-0.0161126,0.272283,0.978804
970,1684,3.31975,-0.0167298,0.272729,0.978352
973,1681,3.31999,-0.0166752,0.272316,0.978666
976,1678,3.32007,-0.0166082,0.272295,0.978622
979,1675,3.32171,-0.0139112,0.271311,0.977762
982,1672,3.32145,-0.014036,0.271309,0.977691
985,1669,3.32128,-0.0139051,0.271303,0.977734
988,1666,3.32167,-0.013915,0.270871,0.97794
991,1663,3.32125,-0.0146652,0.271294,0.977589
994,1660,3.32131,-0.0139972,0.270857,0.977854
997,1657,3.32108,-0.0147232,0.271306,0.977348
1000,1654,3.32113,-0.0154093,0.271309,0.977035
1003,1651,3.32099,-0.0152976,0.271305,0.977073
1006,1648,3.32075,-0.0153988,0.271299,0.977016
1009,1645,3.32068,-0.0153292,0.271298,0.977047
1012,1642,3.32029,-0.016095,0.271914,0.976437
1015,1639,3.32044,-0.0159951,0.27129,0.976696
1018,1636,3.32043,-0.0160786,0.271288,0.976657
1021,1633,3.31983,-0.0166769,0.271713,0.976116
1024,1630,3.31984,-0.0168535,0.27172,0.976056
1027,1627,3.31966,-0.0173976,0.271718,0.9758
1030,1624,3.3217,-0.014161,0.270308,0.975416
1033,1621,3.32152,-0.0139839,0.270318,0.975541
1036,1618,3.32122,-0.0147784,0.270749,0.97494
1039,1615,3.32115,-0.0147894,0.27075,0.974942
1042,1612,3.32135,-0.014733,0.27032,0.975189
1045,1609,3.32086,-0.0154066,0.270748,0.974645
1048,1606,3.32081,-0.015486,0.270754,0.974631
1051,1603,3.32086,-0.0160768,0.270761,0.974381
1054,1600,3.32058,-0.0163456,0.270773,0.97454
1057,1597,3.32011,-0.0167561,0.271199,0.973852
1060,1594,3.3205,-0.0166999,0.270758,0.974319
1063,1591,3.31986,-0.016847,0.271181,0.973753
1066,1588,3.32018,-0.016853,0.270747,0.973945
1069,1585,3.32173,-0.0140922,0.269848,0.973101
1072,1582,3.32172,-0.0141095,0.269756,0.973084
1075,1579,3.32165,-0.0141411,0.269762,0.973104
1078,1576,3.32162,-0.0147984,0.270081,0.972851
1081,1573,3.32131,-0.0148019,0.269782,0.972849
1084,1570,3.32138,-0.0147461,0.269776,0.972869
1087,1567,3.32151,-0.0153614,0.270067,0.972547
1090,1564,3.32124,-0.0154097,0.269758,0.97248
1093,1561,3.32106,-0.0156367,0.269755,0.972355
1096,1558,3.32094,-0.0154299,0.269748,0.972442
1099,1555,3.3206,-0.0162311,0.27017,0.971809
1102,1552,3.32047,-0.016232,0.27017,0.971793
1105,1549,3.32012,-0.0163096,0.270173,0.97177
1108,1546,3.32017,-0.0168906,0.270176,0.971501
1111,1543,3.32008,-0.0169654,0.270172,0.971458
1114,1540,3.32218,-0.013442,0.26875,0.971198
1117,1537,3.32164,-0.0141882,0.269268,0.970596
1120,1534,3.32189,-0.0141808,0.268745,0.970815
1123,1531,3.32174,-0.0140611,0.269354,0.970861
1126,1528,3.32171,-0.0141223,0.268735,0.970821
1129,1525,3.32112,-0.0166875,0.269599,0.970383
1132,1522,3.32098,-0.0149825,0.269178,0.970217
1135,1519,3.32108,-0.0156231,0.269188,0.969953
1138,1516,3.32093,-0.0154883,0.269186,0.970016
1141,1513,3.32104,-0.0162267,0.269373,0.969652
1144,1510,3.32082,-0.0161968,0.269176,0.969637
1147,1507,3.32062,-0.0163362,0.269263,0.969567
1150,1504,3.32044,-0.0162416,0.269173,0.969607
1153,1501,3.32009,-0.0169454,0.269605,0.969045
1156,1498,3.31999,-0.0170707,0.269604,0.968989
1159,1495,3.32002,-0.0169831,0.269609,0.969039
1162,1492,3.32184,-0.0142125,0.268196,0.968452
1165,1489,3.32168,-0.0141315,0.268197,0.968488
1168,1486,3.32142,-0.0148885,0.268626,0.967905
1171,1483,3.32177,-0.0148461,0.268196,0.968147
1174,1480,3.3216,-0.0148165,0.268187,0.968145
1177,1477,3.32139,-0.0149237,0.268185,0.968086
1180,1474,3.32081,-0.0155887,0.268617,0.967537
1183,1471,3.32072,-0.015611,0.268616,0.967518
1186,1468,3.32085,-0.0163375,0.268621,0.967192
1189,1465,3.3206,-0.0162743,0.26862,0.967231
1192,1462,3.32046,-0.016331,0.268621,0.967205
1195,1459,3.31985,-0.0170998,0.269058,0.966623
1198,1456,3.31985,-0.0170826,0.269053,0.966626
1201,1453,3.3197,-0.017133,0.26906,0.966612
1204,1450,3.32197,-0.0142177,0.26772,0.966043
1207,1447,3.32169,-0.0142545,0.267637,0.966036
1210,1444,3.32157,-0.0143679,0.267638,0.965991
1213,1441,3.32104,-0.0150469,0.268071,0.965205
1216,1438,3.32137,-0.0149398,0.26764,0.965727
1219,1435,3.32108,-0.0157111,0.268073,0.965144
1222,1432,3.32076,-0.0157132,0.268073,0.965144
1225,1429,3.32073,-0.0157683,0.268072,0.96511
1228,1426,3.32058,-0.016435,0.268071,0.964786
1231,1423,3.32045,-0.0164138,0.268072,0.964795
1234,1420,3.32045,-0.0164075,0.26807,0.964796
1237,1417,3.31999,-0.0171897,0.268504,0.964201
1240,1414,3.31985,-0.0171929,0.268505,0.964203
1243,1411,3.32192,-0.0143448,0.267079,0.963606
1246,1408,3.32169,-0.0144462,0.267706,0.96361
1249,1405,3.32176,-0.0150136,0.267093,0.96334
1252,1402,3.32152,-0.0149336,0.267088,0.963359
1255,1399,3.32156,-0.0149938,0.26708,0.963317
1258,1396,3.32134,-0.0150134,0.267078,0.963307
1261,1393,3.32094,-0.0157668,0.267517,0.962731
1264,1390,3.32059,-0.0158277,0.267805,0.962693
1267,1387,3.32068,-0.0165383,0.267517,0.962361
1270,1384,3.32046,-0.016476,0.267519,0.962398
1273,1381,3.3205,-0.0164314,0.267522,0.962432
1276,1378,3.32044,-0.0171681,0.267527,0.962108
1279,1375,3.32016,-0.0171142,0.267524,0.962087
1282,1372,3.32216,-0.0144182,0.266526,0.961201
1285,1369,3.32166,-0.0144685,0.266612,0.961175
1288,1366,3.32157,-0.014454,0.266522,0.961176
1291,1363,3.32156,-0.0150606,0.266521,0.960883
1294,1360,3.32097,-0.0151503,0.266954,0.960612
1297,1357,3.32138,-0.0151234,0.26653,0.959415
1300,1354,3.32131,-0.015137,0.266511,0.960809
1303,1351,3.32133,-0.0157682,0.26651,0.960511
1306,1348,3.32106,-0.0158196,0.266512,0.960498
1309,1345,3.32048,-0.0159461,0.266945,0.960195
1312,1342,3.32037,-0.0166921,0.26694,0.959829
1315,1339,3.32023,-0.016651,0.266936,0.95983
1318,1336,3.32,-0.0166023,0.26693,0.959835
1321,1333,3.31965,-0.0173557,0.267365,0.959504
1324,1330,3.31985,-0.0172955,0.266936,0.95953
1327,1327,3.32175,-0.0145571,0.265947,0.958672
1330,1324,3.32156,-0.0145592,0.265952,0.958682
1333,1321,3.32155,-0.0151128,0.265949,0.958417
1336,1318,3.3214,-0.015179,0.266137,0.95838
1339,1315,3.32121,-0.0150246,0.265927,0.958391
1342,1312,3.32093,-0.01523,0.265927,0.958294
1345,1309,3.32056,-0.0160695,0.26636,0.957647
1348,1306,3.32081,-0.0159065,0.265914,0.957925
1351,1303,3.32017,-0.0178762,0.266784,0.957765
1354,1300,3.31997,-0.0178607,0.266785,0.957784
1357,1297,3.32015,-0.0166987,0.266354,0.957331
1360,1294,3.32006,-0.0166962,0.26636,0.957355
1363,1291,3.31999,-0.0174149,0.266388,0.957011
1366,1288,3.31985,-0.0174085,0.266355,0.957005
1369,1285,3.31948,-0.0192343,0.266974,0.957132
1372,1282,3.32124,-0.016472,0.265781,0.956459
1375,1279,3.32107,-0.016575,0.265775,0.956155
1378,1276,3.32129,-0.0163246,0.265334,0.956488
1381,1273,3.32084,-0.01713,0.265234,0.955869
1384,1270,3.32063,-0.0172395,0.26578,0.955855
1387,1267,3.3208,-0.0160451,0.265965,0.955435
1390,1264,3.32061,-0.0160496,0.265351,0.955444
1393,1261,3.32018,-0.0168019,0.265786,0.954857
1396,1258,3.31977,-0.0186513,0.266219,0.954969
1399,1255,3.3197,-0.0186684,0.266218,0.954962
1402,1252,3.31914,-0.0194535,0.266657,0.953094
1405,1249,3.31957,-0.019305,0.266214,0.954648
1408,1246,3.3194,-0.0193552,0.266217,0.954632
1411,1243,3.32124,-0.0146516,0.264792,0.953691
1414,1240,3.32123,-0.0153602,0.264792,0.953362
1417,1237,3.32102,-0.0154942,0.264812,0.953353
1420,1234,3.32111,-0.0159908,0.264794,0.953076
1423,1231,3.3208,-0.0160649,0.264794,0.953038
1426,1228,3.32085,-0.016062,0.264793,0.953041
1429,1225,3.32023,-0.0167917,0.26585,0.952471
1432,1222,3.32002,-0.0168347,0.265232,0.952449
1435,1219,3.3196,-0.0176461,0.265672,0.951847
1438,1216,3.31987,-0.0175438,0.265233,0.95212
1441,1213,3.3219,-0.0139199,0.263801,0.951885
1444,1210,3.32135,-0.014734,0.264246,0.951293
1447,1207,3.32095,-0.0156143,0.264699,0.950701
1450,1204,3.32108,-0.0153909,0.264244,0.950978
1453,1201,3.32102,-0.0154404,0.264243,0.950958
1456,1198,3.3207,-0.0162699,0.264685,0.950348
1459,1195,3.32033,-0.0162546,0.264685,0.950358
1462,1192,3.32059,-0.0161635,0.264328,0.950626
1465,1189,3.32014,-0.0169425,0.264683,0.95003
1468,1186,3.31987,-0.0169559,0.264685,0.950037
1471,1183,3.31943,-0.0177802,0.26513,0.949445
1474,1180,3.32157,-0.0146935,0.263696,0.948946
1477,1177,3.32137,-0.014738,0.263689,0.948901
1480,1174,3.32125,-0.0147239,0.263686,0.948903
1483,1171,3.32073,-0.0155509,0.264124,0.948281
1486,1168,3.32062,-0.0156546,0.264122,0.948215
1489,1165,3.32082,-0.0154636,0.26368,0.94853
1492,1162,3.32041,-0.0162718,0.264122,0.947926
1495,1159,3.32014,-0.0162599,0.264123,0.947938
1498,1156,3.3201,-0.0170202,0.264142,0.947656
1501,1153,3.31952,-0.0178949,0.264617,0.947131
1504,1150,3.31938,-0.017698,0.264574,0.947075
1507,1147,3.31914,-0.0178802,0.264558,0.946929
1510,1144,3.31895,-0.01779,0.264546,0.946941
1513,1141,3.32117,-0.0148064,0.263098,0.946345
1516,1138,3.32052,-0.0148977,0.263538,0.946056
1519,1135,3.32078,-0.0148279,0.263092,0.94631
1522,1132,3.32024,-0.0156771,0.263619,0.945689
1525,1129,3.32007,-0.015832,0.263541,0.945632
1528,1126,3.32006,-0.0164259,0.263734,0.945371
1531,1123,3.31992,-0.0164277,0.26355,0.9454
1534,1120,3.31946,-0.0171482,0.26398,0.944798
1537,1117,3.31912,-0.0171363,0.263979,0.9448
1540,1114,3.31899,-0.0171939,0.264596,0.944747
1543,1111,3.31897,-0.0179071,0.263975,0.944409
1546,1108,3.31871,-0.0178803,0.263974,0.944417
1549,1105,3.32043,-0.0149821,0.262967,0.943554
1552,1102,3.32028,-0.014998,0.262966,0.943545
1555,1099,3.32025,-0.0156518,0.262968,0.943251
1558,1096,3.32011,-0.0157406,0.262984,0.943271
1561,1093,3.31961,-0.0165196,0.26344,0.942728
1564,1090,3.31949,-0.0171346,0.263316,0.942423
1567,1087,3.3193,-0.0171588,0.263427,0.942379
1570,1084,3.31899,-0.0171601,0.263419,0.942363
1573,1081,3.31849,-0.0180039,0.263868,0.94175
1576,1078,3.32094,-0.0142058,0.261971,0.941755
1579,1075,3.32049,-0.0150241,0.263039,0.941159
1582,1072,3.31978,-0.015802,0.262867,0.940587
1585,1069,3.31978,-0.0158192,0.262866,0.940558
1588,1066,3.31911,-0.0165469,0.26331,0.939992
1591,1063,3.3189,-0.0165703,0.263312,0.939987
1594,1060,3.31886,-0.0173255,0.263311,0.938454
1597,1057,3.31849,-0.0172748,0.263309,0.939647
1600,1054,3.31842,-0.0173248,0.263309,0.939634
1603,1051,3.31769,-0.0181284,0.263757,0.939023
1606,1048,3.31795,-0.0180571,0.263304,0.939284
1609,1045,3.31959,-0.0151344,0.262292,0.938391
1612,1042,3.31945,-0.0150485,0.262279,0.938295
1615,1039,3.31938,-0.0159053,0.262276,0.937988
1618,1036,3.31872,-0.0160604,0.262726,0.937682
1621,1033,3.31865,-0.0167296,0.262726,0.937379
1624,1030,3.31845,-0.0166842,0.262736,0.937441
1627,1027,3.31839,-0.0174087,0.26274,0.937124
1630,1024,3.31782,-0.0182203,0.263194,0.936531
1633,1021,3.31759,-0.0182637,0.263195,0.936522
1636,1018,3.3197,-0.0151778,0.261727,0.935924
1639,1015,3.31945,-0.0152083,0.26173,0.935913
1642,1012,3.31891,-0.0160301,0.26218,0.935311
1645,1009,3.31877,-0.0166637,0.262182,0.935039
1648,1006,3.31806,-0.0167956,0.262637,0.934752
1651,1003,3.31799,-0.0175465,0.262646,0.934427
1654,1000,3.31767,-0.0174409,0.262636,0.93446
1657,997,3.31748,-0.0182746,0.26263,0.934061
1660,994,3.31965,-0.0145437,0.261162,0.933758
1663,991,3.31908,-0.0153809,0.261615,0.933392
1666,988,3.31839,-0.0162111,0.262072,0.932554
1669,985,3.31865,-0.0160414,0.261615,0.932852
1672,982,3.31807,-0.0168674,0.262073,0.932253
1675,979,3.31801,-0.0168688,0.262075,0.932271
1678,976,3.31733,-0.0176903,0.262532,0.931677
1681,973,3.31717,-0.0184456,0.262617,0.931347
1684,970,3.31691,-0.0183811,0.262533,0.931369
1687,967,3.31861,-0.0154638,0.261517,0.930457
1690,964,3.31836,-0.0154931,0.261519,0.930454
1693,961,3.31834,-0.0161515,0.261517,0.930137
1696,958,3.31771,-0.0162399,0.261977,0.929882
1699,955,3.31745,-0.0169455,0.261979,0.929816
1702,952,3.31682,-0.0178919,0.262433,0.928903
1705,949,3.31711,-0.0177701,0.261975,0.929206
1708,946,3.31619,-0.0185511,0.262415,0.928557
1711,943,3.31598,-0.0185827,0.263025,0.928471
1714,940,3.31822,-0.0155376,0.260933,0.927878
1717,937,3.31806,-0.0155386,0.26093,0.927872
1720,934,3.31743,-0.0163489,0.26139,0.927282
1723,931,3.31731,-0.0170785,0.261387,0.926948
1726,928,3.31699,-0.0171385,0.261385,0.926918
1729,925,3.31635,-0.0179255,0.261838,0.926316
1732,922,3.31572,-0.0198347,0.262276,0.926607
1735,919,3.31534,-0.0188009,0.262284,0.92563
1738,916,3.31755,-0.0156829,0.260809,0.925048
1741,913,3.31688,-0.0165296,0.261273,0.924449
1744,910,3.31674,-0.0171902,0.261282,0.924182
1747,907,3.31644,-0.0172204,0.261559,0.924172
1750,904,3.31624,-0.0179909,0.261273,0.9238
1753,901,3.31602,-0.0180391,0.26127,0.923764
1756,898,3.31527,-0.0188556,0.26173,0.923159
1759,895,3.31728,-0.0139158,0.260237,0.922095
1762,892,3.31727,-0.0156973,0.260234,0.922525
1765,889,3.31682,-0.0145564,0.260245,0.921856
1768,886,3.31664,-0.0153056,0.260246,0.921533
1771,883,3.31593,-0.0161704,0.260715,0.920923
1774,880,3.31546,-0.0246662,0.260904,0.920646
1777,877,3.31514,-0.0246982,0.260712,0.920633
1780,874,3.31684,-0.0216653,0.259682,0.919719
1783,871,3.31618,-0.022494,0.260148,0.919118
1786,868,3.31582,-0.0225748,0.260147,0.919086
1789,865,3.31587,-0.0212693,0.259683,0.918677
1792,862,3.31515,-0.0221574,0.260117,0.918046
1795,859,3.31494,-0.0229394,0.260154,0.917738
1798,856,3.31663,-0.0198771,0.25913,0.916862
1801,853,3.31709,-0.0177622,0.258208,0.917069
1804,850,3.31641,-0.0185858,0.258672,0.916461
1807,847,3.31574,-0.0194303,0.259133,0.915862
1810,844,3.31581,-0.0181551,0.258664,0.915414
1813,841,3.31541,-0.0181181,0.25893,0.915408
1816,838,3.31514,-0.0189017,0.258649,0.915036
1819,835,3.31698,-0.0138536,0.257153,0.914019
1822,832,3.31648,-0.0159166,0.257615,0.914087
1825,829,3.31602,-0.0147959,0.257618,0.913371
1828,826,3.31586,-0.0154497,0.257621,0.913086
1831,823,3.31487,-0.0242415,0.258361,0.912504
1834,820,3.31456,-0.0249751,0.258092,0.912196
1837,817,3.31668,-0.0211422,0.256597,0.91187
1840,814,3.31596,-0.0219867,0.257056,0.911254
1843,811,3.31573,-0.0227328,0.257054,0.910927
1846,808,3.31521,-0.0215988,0.25705,0.910201
1849,805,3.31491,-0.0215813,0.257046,0.910193
1852,802,3.31423,-0.0224515,0.257783,0.909563
1855,799,3.31417,-0.021136,0.257047,0.909161
1858,796,3.31637,-0.0178309,0.255536,0.90855
1861,793,3.316,-0.017959,0.255538,0.908503
1864,790,3.31529,-0.0188391,0.256002,0.907886
1867,787,3.3153,-0.0175481,0.255532,0.907441
1870,784,3.31461,-0.018481,0.255992,0.907035
1873,781,3.31424,-0.0185202,0.255992,0.906782
1876,778,3.314,-0.0191897,0.255991,0.906479
1879,775,3.31587,-0.014113,0.254491,0.905449
1882,772,3.31516,-0.0149682,0.254954,0.90484
1885,769,3.31498,-0.0156802,0.254952,0.904529
1888,766,3.31392,-0.0245929,0.255418,0.903924
1891,763,3.31433,-0.0164533,0.254953,0.904209
1894,760,3.31564,-0.0213714,0.253916,0.903318
1897,757,3.31493,-0.0222857,0.254381,0.902693
1900,754,3.31466,-0.0230487,0.254379,0.902615
1903,751,3.31449,-0.0237767,0.254377,0.902058
1906,748,3.31398,-0.0226398,0.254374,0.901312
1909,745,3.31363,-0.0226315,0.254374,0.901319
1912,742,3.31287,-0.0234982,0.254841,0.900705
1915,739,3.31509,-0.0202617,0.253335,0.900096
1918,736,3.31449,-0.0191679,0.253337,0.899358
1921,733,3.31425,-0.0198517,0.253343,0.899081
1924,730,3.31357,-0.0207292,0.25381,0.89848
1927,727,3.31364,-0.0193677,0.253339,0.89807
1930,724,3.3152,-0.0163079,0.252299,0.897135
1933,721,3.31483,-0.0162956,0.252925,0.897131
1936,718,3.31463,-0.0170615,0.252294,0.896797
1939,715,3.31408,-0.01589,0.25229,0.896071
1942,712,3.31329,-0.0167459,0.252754,0.895451
1945,709,3.31278,-0.0256323,0.25275,0.895145
1948,706,3.31448,-0.0225797,0.251709,0.894207
1951,703,3.31458,-0.0224582,0.251236,0.894475
1954,700,3.31382,-0.0232875,0.251708,0.893923
1957,697,3.31351,-0.0241096,0.251714,0.89359
1960,694,3.313,-0.0230352,0.251716,0.892835
1963,691,3.31511,-0.0196708,0.250204,0.892258
1966,688,3.31433,-0.0205532,0.25067,0.891653
1969,685,3.31377,-0.0193611,0.250667,0.889577
1972,682,3.31349,-0.0201178,0.250666,0.8906
1975,679,3.31293,-0.0189462,0.250664,0.889869
1978,676,3.31263,-0.0196995,0.250661,0.889791
1981,673,3.31433,-0.0165045,0.249613,0.88732
1984,670,3.31426,-0.0152584,0.249787,0.888242
1987,667,3.31413,-0.0160556,0.249168,0.887948
1990,664,3.31326,-0.0169241,0.249635,0.887341
1993,661,3.31216,-0.0260071,0.250092,0.886737
1996,658,3.31489,-0.0217983,0.2481,0.886703
1999,655,3.31405,-0.022705,0.248559,0.886059
2002,652,3.31324,-0.023669,0.249024,0.885417
2005,649,3.31289,-0.024454,0.249023,0.885085
2008,646,3.31244,-0.0232097,0.249023,0.884391
2011,643,3.31195,-0.0239952,0.249016,0.884049
2014,640,3.31386,-0.0187197,0.247495,0.883018
2017,637,3.31353,-0.0194399,0.247563,0.882725
2020,634,3.31269,-0.0204451,0.24797,0.882103
2023,631,3.31267,-0.0190797,0.247502,0.881687
2026,628,3.31171,-0.0199733,0.247969,0.881081
2029,625,3.31421,-0.014551,0.245983,0.880354
2032,622,3.31346,-0.0154599,0.246445,0.879728
2035,619,3.31321,-0.0162435,0.246445,0.879401
2038,616,3.31238,-0.0171851,0.246909,0.878773
2041,613,3.31185,-0.0262071,0.246906,0.878495
2044,610,3.31422,-0.0137306,0.245383,0.878182
2047,607,3.31309,-0.0230664,0.245846,0.877545
2050,604,3.3128,-0.0238132,0.246032,0.877243
2053,601,3.31198,-0.0247408,0.24632,0.876652
2056,598,3.31193,-0.0233981,0.245849,0.876215
2059,595,3.31359,-0.0202101,0.244793,0.875303
2062,592,3.31353,-0.0188049,0.244322,0.874883
2065,589,3.31277,-0.0197203,0.244783,0.874248
2068,586,3.31249,-0.0205308,0.244965,0.873905
2071,583,3.31166,-0.0214627,0.245245,0.873277
2074,580,3.31082,-0.0224273,0.245711,0.872633
2077,577,3.31299,-0.0190418,0.244182,0.872025
2080,574,3.31302,-0.0177831,0.243731,0.871626
2083,571,3.31213,-0.0186492,0.244197,0.871041
2086,568,3.31204,-0.017263,0.243733,0.870882
2089,565,3.31116,-0.0182243,0.244197,0.870007
2092,562,3.31335,-0.0147389,0.242654,0.869376
2095,559,3.31225,-0.0240245,0.243115,0.869038
2098,556,3.31197,-0.0249894,0.243111,0.868404
2101,553,3.31106,-0.0259792,0.243579,0.867753
2104,550,3.31082,-0.0267082,0.243574,0.867454
2107,547,3.31272,-0.0213362,0.242038,0.866396
2110,544,3.31243,-0.0221178,0.242038,0.86609
2113,541,3.31172,-0.0209116,0.24205,0.865406
2116,538,3.31154,-0.0217089,0.242058,0.865123
2119,535,3.31317,-0.0184503,0.24099,0.864192
2122,532,3.31308,-0.0170284,0.240521,0.863799
2125,529,3.31229,-0.0179675,0.240982,0.863161
2128,526,3.31187,-0.0187905,0.240979,0.862821
2131,523,3.31115,-0.0174583,0.240975,0.862127
2134,520,3.31086,-0.0183037,0.240967,0.861759
2137,517,3.31246,-0.0150247,0.239953,0.860814
2140,514,3.31195,-0.0244087,0.239892,0.860516
2143,511,3.31092,-0.0253813,0.240363,0.859903
2146,508,3.31037,-0.0249271,0.240377,0.858915
2149,505,3.31274,-0.0215025,0.238838,0.858305
2152,502,3.31187,-0.0224221,0.23954,0.857694
2155,499,3.31091,-0.0234723,0.239775,0.857033
2158,496,3.31065,-0.0242372,0.239768,0.856722
2161,493,3.30968,-0.0251923,0.24024,0.856106
2164,490,3.31234,-0.0194494,0.238222,0.855398
2167,487,3.31143,-0.0204081,0.238688,0.854769
2170,484,3.31081,-0.0234108,0.239154,0.854543
2173,481,3.31063,-0.0212133,0.238678,0.854421
2176,478,3.30984,-0.0229813,0.239144,0.853472
2179,475,3.31205,-0.0165786,0.237114,0.852985
2182,472,3.31139,-0.0182819,0.237588,0.852098
2185,469,3.31106,-0.0191156,0.237592,0.851784
2188,466,3.31033,-0.0179046,0.237594,0.851052
2191,463,3.30997,-0.0185993,0.236964,0.850782
2194,460,3.31164,-0.0153163,0.236551,0.849775
2197,457,3.31038,-0.0250565,0.236971,0.84917
2200,454,3.30997,-0.0258387,0.236968,0.848866
2203,451,3.3097,-0.0266348,0.236961,0.848542
2206,448,3.30875,-0.0276331,0.237431,0.847896
2209,445,3.31131,-0.0219041,0.2354,0.847157
2212,442,3.31044,-0.0228605,0.2361,0.846538
2215,439,3.31031,-0.0215171,0.2354,0.846091
2218,436,3.30945,-0.0224756,0.235871,0.845493
2221,433,3.31156,-0.0189722,0.234316,0.844866
2224,430,3.31086,-0.0176107,0.234366,0.844167
2227,427,3.31015,-0.0194023,0.234776,0.843222
2230,424,3.31001,-0.0179827,0.234308,0.842817
2233,421,3.30915,-0.0190082,0.235002,0.842153
2236,418,3.31135,-0.0154648,0.233394,0.841527
2239,415,3.31042,-0.016445,0.233682,0.840893
2242,412,3.30958,-0.0261393,0.233679,0.840586
2245,409,3.30872,-0.0271513,0.234151,0.83995
2248,406,3.31106,-0.0235641,0.232585,0.839339
2251,403,3.31092,-0.0221896,0.232115,0.838912
2254,400,3.31025,-0.0217055,0.232121,0.837911
2257,397,3.30936,-0.0227422,0.232589,0.837266
2260,394,3.30914,-0.0212368,0.232114,0.836857
2263,391,3.31078,-0.0178465,0.231013,0.835892
2266,388,3.31055,-0.0187098,0.231013,0.835575
2269,385,3.30944,-0.0196414,0.23148,0.83497
2272,382,3.30889,-0.0192204,0.231479,0.833922
2275,379,3.31116,-0.0156416,0.22991,0.833286
2278,376,3.3104,-0.0254297,0.229908,0.832983
2281,373,3.30939,-0.0264821,0.230376,0.832334
2284,370,3.30893,-0.0273394,0.230374,0.832001
2287,367,3.31083,-0.0215383,0.228801,0.830983
2290,364,3.3099,-0.0225914,0.229271,0.830349
2293,361,3.30989,-0.021971,0.228802,0.82963
2296,358,3.30897,-0.0229722,0.22928,0.829035
2299,355,3.30792,-0.0239475,0.229749,0.828416
2302,352,3.3103,-0.0203668,0.228169,0.827768
2305,349,3.31023,-0.0189152,0.227701,0.827363
2308,346,3.30922,-0.0198543,0.228168,0.826756
2311,343,3.30848,-0.019446,0.228167,0.825695
2314,340,3.31084,-0.0157979,0.226591,0.825072
2317,337,3.31049,-0.0167184,0.226592,0.824743
2320,334,3.30907,-0.0267362,0.22706,0.824154
2323,331,3.3081,-0.0278118,0.227526,0.823495
2326,328,3.31034,-0.0242036,0.225946,0.822858
2329,325,3.3097,-0.0229215,0.225948,0.822123
2332,322,3.30879,-0.0247385,0.226417,0.821208
2335,319,3.30859,-0.0232672,0.225943,0.820783
2338,316,3.30812,-0.0241411,0.225937,0.820453
2341,313,3.30994,-0.0206509,0.224824,0.819506
2344,310,3.30951,-0.0214826,0.224818,0.819181
2347,307,3.3088,-0.0210503,0.224818,0.818131
2350,304,3.30782,-0.0220603,0.225285,0.817516
2353,301,3.3104,-0.0160918,0.223238,0.816781
2356,298,3.30942,-0.0170673,0.223703,0.816167
2359,295,3.30823,-0.0282176,0.224171,0.815218
2362,292,3.30777,-0.0290463,0.224171,0.81492
2365,289,3.31007,-0.025315,0.222578,0.814298
2368,286,3.30931,-0.0240185,0.222574,0.813546
2371,283,3.30893,-0.0248595,0.222573,0.813244
2374,280,3.307912,-0.0259213,0.223034,0.81258
2377,277,3.30991,-0.0208384,0.221435,0.811211
2380,274,3.30949,-0.0218101,0.221437,0.810866
2383,271,3.30873,-0.020455,0.22143,0.810124
2386,268,3.30827,-0.0213042,0.22143,0.809837
2389,265,3.30996,-0.0178209,0.220307,0.808656
2392,262,3.30944,-0.0173123,0.220351,0.807845
2395,259,3.30864,-0.0275057,0.220312,0.807566
2398,256,3.30823,-0.0283071,0.220312,0.807301
2401,253,3.31009,-0.0256309,0.219184,0.806032
2404,250,3.30932,-0.0242852,0.219223,0.805308
2407,247,3.30882,-0.0251684,0.219178,0.804975
2410,244,3.3084,-0.0261014,0.219175,0.804642
2413,241,3.31006,-0.0224161,0.218036,0.803697
2416,238,3.30942,-0.0219742,0.218033,0.802637
2419,235,3.30892,-0.0228926,0.218028,0.802304
2422,232,3.30816,-0.021581,0.218025,0.801562
2425,229,3.31025,-0.0164949,0.216437,0.800222
2428,226,3.30989,-0.0173733,0.216442,0.799937
2431,223,3.30891,-0.0183547,0.216902,0.799325
2434,220,3.30832,-0.0193676,0.216912,0.798999
2437,217,3.30986,-0.0213008,0.216702,0.797948
2440,214,3.3093,-0.0175528,0.21623,0.797113
2443,211,3.30888,-0.0184264,0.216223,0.796789
2446,208,3.30805,-0.0288087,0.21622,0.796484
2449,205,3.30976,-0.0252797,0.215077,0.795491
2452,202,3.30911,-0.0247677,0.215074,0.794458
2455,199,3.30865,-0.0256905,0.215072,0.794371
2458,196,3.30781,-0.0242852,0.21507,0.793418
2461,193,3.31017,-0.0204958,0.213462,0.792778
2464,190,3.30954,-0.0199577,0.21408,0.791788
2467,187,3.30847,-0.0211136,0.213935,0.791143
2470,184,3.30819,-0.0196057,0.21347,0.790732
2473,181,3.31012,-0.0167383,0.212318,0.789478
2476,178,3.30924,-0.0272583,0.21232,0.789192
2479,175,3.30816,-0.0283572,0.212953,0.788547
2482,172,3.30737,-0.0278842,0.212779,0.787502
2485,169,3.30974,-0.0239594,0.211156,0.786875
2488,166,3.30875,-0.0250818,0.211616,0.78621
2491,163,3.30848,-0.0235107,0.211327,0.785806
2494,160,3.30736,-0.0255907,0.211611,0.784827
2497,157,3.31015,-0.0192226,0.209529,0.78411
2500,154,3.30936,-0.018852,0.209544,0.783089
2503,151,3.30831,-0.0199286,0.210017,0.782505
2506,148,3.31046,-0.026552,0.208398,0.781616
2509,145,3.3096,-0.0251881,0.208397,0.780883
2512,142,3.30919,-0.0262289,0.208399,0.780534
2515,139,3.30845,-0.025654,0.208416,0.779503
2518,136,3.3102,-0.0217761,0.207226,0.778584
2521,133,3.31011,-0.0203303,0.20676,0.778128
2524,130,3.30959,-0.0213166,0.206756,0.77757
2527,127,3.30843,-0.0232881,0.207212,0.776842
2530,124,3.31056,-0.0170845,0.205586,0.775762
2533,121,3.3101,-0.017938,0.205578,0.775458
2536,118,3.30873,-0.0298068,0.206041,0.774537
2539,115,3.31109,-0.0258935,0.204426,0.774182
2542,112,3.31065,-0.0229068,0.203973,0.772815
2545,109,3.30959,-0.024091,0.204426,0.77215
2548,106,3.30934,-0.0233406,0.203972,0.771481
2551,103,3.31126,-0.0195922,0.202801,0.770525
2554,100,3.31047,-0.0189759,0.202818,0.769502
2557,97,3.30994,-0.0200494,0.202788,0.769123
2560,94,3.31143,-0.0261218,0.201612,0.768185
2563,91,3.31093,-0.0270724,0.201613,0.767873
2566,88,3.31023,-0.0265118,0.201611,0.766853
2569,85,3.30938,-0.0276661,0.202062,0.766203
2572,82,3.31141,-0.0262794,0.200886,0.765891
2575,79,3.31037,-0.0282757,0.20134,0.764727
2578,76,3.30954,-0.0269355,0.201343,0.763992
2581,73,3.3091,-0.0277955,0.201946,0.763708
2584,70,3.31134,-0.0224199,0.199703,0.762328
2587,67,3.3109,-0.0232873,0.199702,0.762048
2590,64,3.30999,-0.0219271,0.199703,0.761303
2593,61,3.30985,-0.0212605,0.199249,0.760593
2596,58,3.31179,-0.0174607,0.198057,0.759597
2599,55,3.3109,-0.0284228,0.198055,0.759303
2602,52,3.31003,-0.0279655,0.198052,0.758247
2605,49,3.31257,-0.0240062,0.196411,0.757595
2608,46,3.31176,-0.0234682,0.196409,0.756563
2611,43,3.31156,-0.0219868,0.195959,0.756109
2614,40,3.31114,-0.0228998,0.195959,0.755824
2617,37,3.31299,-0.0275322,0.19433,0.754501
2620,34,3.31191,-0.0296379,0.194775,0.753561
2623,31,3.3115,-0.0279364,0.194331,0.75319
2626,28,3.31454,-0.0188918,0.191816,0.752339
2629,25,3.31396,-0.028353,0.191376,0.751604
2632,22,3.31365,-0.0277744,0.190938,0.750826
2635,19,3.31623,-0.0213836,0.188878,0.750015
2638,16,3.31604,-0.0207162,0.188447,0.749295
2641,13,3.31576,-0.0192137,0.188173,0.748836
2644,10,3.31423,-0.0312776,0.188444,0.747914
2647,7,3.31748,-0.0246365,0.185974,0.747463
2650,4,3.31658,-0.0242178,0.185964,0.74636
2651,3,3.31638,-0.0252188,0.185965,0.746036