File: hust_correlation_analysis/matrices/HUST_8-8_cycle_feature_matrix.csv
cycle_number,rul,voltage,current,capacity,charge_capacity
1,1681,3.31482,0.0166921,0.271129,1.03772
3,1679,3.29993,-0.0188788,0.283457,1.00725
5,1677,3.30203,-0.0169108,0.282938,1.01076
7,1675,3.303728,-0.0165291,0.281954,1.01404
9,1673,3.30598,-0.0188332,0.280868,1.01671
11,1671,3.30646,-0.0193906,0.280595,1.01923
13,1669,3.30607,-0.0205092,0.280731,1.02123
15,1667,3.30804,-0.019164,0.279519,1.0226
17,1665,3.3097,-0.0178199,0.278316,1.02397
19,1663,3.3101,-0.0171785,0.27792,1.02455
21,1661,3.30949,-0.0196126,0.278465,1.02561
23,1659,3.31022,-0.0188753,0.277677,1.02645
25,1657,3.31033,-0.0187231,0.27728,1.02674
27,1655,3.31078,-0.0183013,0.276893,1.02722
29,1653,3.3117,-0.0181779,0.276102,1.02771
31,1651,3.31192,-0.0175479,0.275713,1.02827
33,1649,3.3127,-0.0169685,0.275316,1.02858
35,1647,3.31321,-0.016904,0.274932,1.02902
37,1645,3.31297,-0.0169122,0.27494,1.02904
39,1643,3.31342,-0.0168822,0.274538,1.02925
41,1641,3.31155,-0.0199831,0.275873,1.02949
43,1639,3.3117,-0.0192942,0.275479,1.03031
45,1637,3.31372,-0.0168766,0.274147,1.02946
47,1635,3.31225,-0.0192476,0.275089,1.03029
49,1633,3.31232,-0.0192502,0.275085,1.03055
51,1631,3.31418,-0.0168976,0.273765,1.02968
53,1629,3.31394,-0.0170375,0.27375,1.02956
55,1627,3.31369,-0.017476,0.273756,1.02958
57,1625,3.31327,-0.0175169,0.273441,1.02932
59,1623,3.31402,-0.0173993,0.273623,1.02957
61,1621,3.31438,-0.017483,0.27337,1.02955
63,1619,3.31438,-0.0174047,0.273365,1.02958
65,1617,3.31426,-0.0174588,0.273362,1.02954
67,1615,3.31438,-0.0179922,0.272983,1.02948
69,1613,3.3137,-0.0180526,0.273362,1.02948
71,1611,3.31394,-0.0186831,0.273364,1.02889
73,1609,3.31342,-0.018704,0.273364,1.02888
75,1607,3.3131,-0.0189292,0.273615,1.02875
77,1605,3.31353,-0.019363,0.273367,1.02854
79,1603,3.31588,-0.0167469,0.271653,1.02825
81,1601,3.31494,-0.0174297,0.271938,1.02767
83,1599,3.31491,-0.0174838,0.272132,1.02765
85,1597,3.31498,-0.0174618,0.27203,1.02764
87,1595,3.31479,-0.0174809,0.272033,1.02765
89,1593,3.31498,-0.0180245,0.272286,1.02733
91,1591,3.31493,-0.0180117,0.272033,1.02736
93,1589,3.31476,-0.0179923,0.272024,1.02735
95,1587,3.31481,-0.0187632,0.272411,1.02674
97,1585,3.31477,-0.0185999,0.272028,1.02702
99,1583,3.31388,-0.0193839,0.272416,1.02639
101,1581,3.31395,-0.0194001,0.27242,1.02642
103,1579,3.31609,-0.0168667,0.271084,1.02586
105,1577,3.31592,-0.0168974,0.271092,1.02587
107,1575,3.31601,-0.0169147,0.271085,1.02583
109,1573,3.31584,-0.0174485,0.271083,1.02554
111,1571,3.31556,-0.0174598,0.27118,1.02555
113,1569,3.31555,-0.017465,0.271084,1.02553
115,1567,3.31488,-0.0181174,0.271467,1.02498
117,1565,3.3144,-0.0181549,0.271467,1.02496
119,1563,3.31481,-0.018187,0.271463,1.02495
121,1561,3.31532,-0.0187242,0.271461,1.02465
123,1559,3.31493,-0.0187843,0.271462,1.02487
125,1557,3.31474,-0.0193198,0.271472,1.02434
127,1555,3.31426,-0.0194197,0.271844,1.02407
129,1553,3.31595,-0.0169551,0.270896,1.02348
131,1551,3.31575,-0.0169115,0.270606,1.0235
133,1549,3.31557,-0.0169357,0.270512,1.02349
135,1547,3.31561,-0.0170205,0.270523,1.02346
137,1545,3.31609,-0.0174692,0.270509,1.0232
139,1543,3.31547,-0.0176321,0.2709,1.02291
141,1541,3.31519,-0.0181966,0.270895,1.0226
143,1539,3.31517,-0.0181935,0.270898,1.02261
145,1537,3.31518,-0.0181559,0.270577,1.02261
147,1535,3.31455,-0.0188798,0.27128,1.02203
149,1533,3.31484,-0.0188094,0.2709,1.0223
151,1531,3.31487,-0.019488,0.271292,1.02174
153,1529,3.315,-0.0194605,0.271291,1.02175
155,1527,3.31485,-0.0194431,0.271543,1.02176
157,1525,3.31654,-0.0163539,0.269955,1.0215
159,1523,3.31634,-0.0169237,0.26996,1.0212
161,1521,3.31572,-0.0170474,0.270338,1.02092
163,1519,3.31528,-0.0177725,0.270722,1.02033
165,1517,3.31535,-0.0176237,0.270339,1.02061
167,1515,3.31546,-0.0176713,0.270599,1.02058
169,1513,3.31567,-0.0175873,0.270336,1.02064
171,1511,3.31537,-0.0182875,0.270733,1.02008
173,1509,3.31526,-0.0182224,0.270728,1.0201
175,1507,3.3158,-0.0188483,0.270727,1.01977
177,1505,3.31445,-0.0190789,0.271373,1.01944
179,1503,3.31495,-0.0189413,0.271116,1.01932
181,1501,3.31416,-0.0190879,0.271114,1.01944
183,1499,3.31432,-0.0195826,0.271115,1.01917
185,1497,3.31453,-0.0195114,0.271114,1.01921
187,1495,3.31615,-0.0170592,0.269781,1.0186
189,1493,3.31571,-0.0171717,0.270169,1.01835
191,1491,3.31613,-0.0169711,0.26978,1.01866
193,1489,3.31609,-0.0170717,0.269781,1.01861
195,1487,3.31552,-0.0177412,0.270165,1.01804
197,1485,3.31568,-0.017758,0.270421,1.01802
199,1483,3.31545,-0.0177269,0.270171,1.01805
201,1481,3.31461,-0.0184115,0.270553,1.01745
203,1479,3.31478,-0.0176992,0.270156,1.01803
205,1477,3.3147,-0.0184392,0.270546,1.01744
207,1475,3.31502,-0.0182633,0.270159,1.01774
209,1473,3.315,-0.0190609,0.270553,1.01711
211,1471,3.31466,-0.0189488,0.270804,1.01716
213,1469,3.31442,-0.0190059,0.270534,1.01711
215,1467,3.31432,-0.0198116,0.270928,1.01649
217,1465,3.3139,-0.0197352,0.270933,1.01652
219,1463,3.31367,-0.0197608,0.270929,1.0165
221,1461,3.31535,-0.017398,0.269985,1.01566
223,1459,3.315,-0.0172767,0.269978,1.0157
225,1457,3.3154,-0.0172182,0.269848,1.01597
227,1455,3.31572,-0.0172252,0.269594,1.01594
229,1453,3.31527,-0.0177898,0.269975,1.01543
231,1451,3.31513,-0.0178789,0.269977,1.01538
233,1449,3.31514,-0.0178354,0.270069,1.01541
235,1447,3.31514,-0.018436,0.269979,1.01509
237,1445,3.31448,-0.0185205,0.270361,1.01483
239,1443,3.31439,-0.0184818,0.270606,1.01481
241,1441,3.31369,-0.0185023,0.270742,1.01458
243,1439,3.31365,-0.018531,0.270735,1.01456
245,1437,3.31279,-0.0184489,0.271132,1.01438
247,1435,3.31346,-0.0184921,0.270737,1.01456
249,1433,3.31304,-0.0180906,0.271127,1.01455
251,1431,3.31333,-0.018744,0.271126,1.0142
253,1429,3.31215,-0.0189185,0.271523,1.01389
255,1427,3.3131,-0.0192867,0.271128,1.01393
257,1425,3.31313,-0.0192866,0.271126,1.01392
259,1423,3.31257,-0.0198853,0.271822,1.01341
261,1421,3.31196,-0.0198594,0.271513,1.0134
263,1419,3.31175,-0.0198948,0.271514,1.01337
265,1417,3.31213,-0.019905,0.271511,1.01337
267,1415,3.31341,-0.0174853,0.270556,1.01251
269,1413,3.31336,-0.017455,0.270562,1.01254
271,1411,3.31375,-0.0179936,0.270258,1.01246
273,1409,3.31423,-0.018003,0.269777,1.01267
275,1407,3.314,-0.0185726,0.270169,1.01218
277,1405,3.31433,-0.018556,0.269779,1.01239
279,1403,3.3137,-0.0186675,0.270175,1.01214
281,1401,3.31402,-0.019273,0.270172,1.01182
283,1399,3.31381,-0.0193018,0.270169,1.0118
285,1397,3.31316,-0.0191605,0.270169,1.01188
287,1395,3.31331,-0.0192783,0.270166,1.0118
289,1393,3.31318,-0.0191849,0.270161,1.01183
291,1391,3.31235,-0.0199381,0.270551,1.01122
293,1389,3.3125,-0.0199659,0.270561,1.01123
295,1387,3.31451,-0.0174102,0.269215,1.01067
297,1385,3.31436,-0.0174393,0.269218,1.01066
299,1383,3.31437,-0.0174357,0.269216,1.01066
301,1381,3.31463,-0.01802,0.269214,1.01036
303,1379,3.31479,-0.0180667,0.268875,1.01034
305,1377,3.31449,-0.0180488,0.269214,1.01035
307,1375,3.31429,-0.018032,0.269208,1.01032
309,1373,3.31397,-0.0186996,0.269599,1.00977
311,1371,3.31385,-0.0187325,0.269596,1.00975
313,1369,3.31379,-0.0187323,0.269593,1.00974
315,1367,3.31366,-0.01871,0.269593,1.00973
317,1365,3.31292,-0.0193331,0.269986,1.00921
319,1363,3.31295,-0.0194909,0.269994,1.00892
321,1361,3.31325,-0.0193932,0.269601,1.00941
323,1359,3.31274,-0.0201131,0.269995,1.00884
325,1357,3.31287,-0.0200966,0.269994,1.00884
327,1355,3.3152,-0.0169334,0.268256,1.00878
329,1353,3.31474,-0.0174681,0.268643,1.0083
331,1351,3.31496,-0.0174703,0.268651,1.00831
333,1349,3.31472,-0.0174065,0.268645,1.00833
335,1347,3.31496,-0.0180452,0.268649,1.00652
337,1345,3.31457,-0.0181789,0.269286,1.0077
339,1343,3.31418,-0.0180987,0.269038,1.00776
341,1341,3.31409,-0.0181795,0.269038,1.00771
343,1339,3.314,-0.0182276,0.269041,1.00768
345,1337,3.31392,-0.0187296,0.269038,1.00742
347,1335,3.31388,-0.0187917,0.269289,1.00739
349,1333,3.31336,-0.0195384,0.269433,1.0068
351,1331,3.31354,-0.0194298,0.269432,1.00687
353,1329,3.31316,-0.0195057,0.269432,1.00682
355,1327,3.3129,-0.0194405,0.269428,1.00685
357,1325,3.31321,-0.0201442,0.269433,1.00649
359,1323,3.31296,-0.0201126,0.269436,1.0065
361,1321,3.31292,-0.0200951,0.269679,1.00651
363,1319,3.31284,-0.0200847,0.26943,1.00651
365,1317,3.31472,-0.0169107,0.268077,1.00624
367,1315,3.31448,-0.0176378,0.268469,1.00565
369,1313,3.31416,-0.0176431,0.268223,1.00565
371,1311,3.31453,-0.0181926,0.26847,1.00536
373,1309,3.3147,-0.0182502,0.268471,1.00534
375,1307,3.3146,-0.0182068,0.268466,1.00535
377,1305,3.31444,-0.0181504,0.268474,1.0054
379,1303,3.3144,-0.0188316,0.268472,1.00503
381,1301,3.31429,-0.0187648,0.268557,1.00507
383,1299,3.31415,-0.0187938,0.268475,1.00507
385,1297,3.3135,-0.019471,0.268859,1.00448
387,1295,3.31361,-0.019512,0.26887,1.00449
389,1293,3.31353,-0.0195691,0.268867,1.00444
391,1291,3.31308,-0.019514,0.268862,1.00445
393,1289,3.31303,-0.0202857,0.269265,1.00387
395,1287,3.31274,-0.0202581,0.269263,1.00388
397,1285,3.31455,-0.0170338,0.267907,1.00363
399,1283,3.31458,-0.0176594,0.267902,1.00329
401,1281,3.31415,-0.0176496,0.268301,1.0031
403,1279,3.31458,-0.0176172,0.267907,1.00333
405,1277,3.31463,-0.0176523,0.267906,1.00331
407,1275,3.31417,-0.0182503,0.268304,1.0028
409,1273,3.31402,-0.0183367,0.268687,1.00275
411,1271,3.31373,-0.0183511,0.268309,1.00275
413,1269,3.31417,-0.018234,0.267908,1.00302
415,1267,3.31385,-0.0189501,0.2683,1.00242
417,1265,3.31377,-0.0189,0.268299,1.00244
419,1263,3.31386,-0.0189879,0.268304,1.0024
421,1261,3.31388,-0.018946,0.268305,1.00244
423,1259,3.31382,-0.0196742,0.268702,1.00185
425,1257,3.31355,-0.0196918,0.268706,1.00184
427,1255,3.31319,-0.0196635,0.26871,1.00188
429,1253,3.3131,-0.0202745,0.269099,1.00134
431,1251,3.31342,-0.0202423,0.268708,1.00158
433,1249,3.3149,-0.0171521,0.267745,1.00104
435,1247,3.31485,-0.0177303,0.267744,1.00073
437,1245,3.3147,-0.0177631,0.267746,1.00072
439,1243,3.31453,-0.0177715,0.267745,1.00071
441,1241,3.31384,-0.018454,0.268139,1.00014
443,1239,3.31437,-0.0183939,0.267739,1.00038
445,1237,3.31452,-0.0184032,0.267737,1.00036
447,1235,3.31384,-0.0184909,0.268235,1.00013
449,1233,3.31406,-0.0184719,0.268139,1.00013
451,1231,3.31375,-0.0190356,0.268142,0.999846
453,1229,3.31376,-0.0191067,0.268144,0.999811
455,1227,3.31359,-0.0190791,0.26814,1.00008
457,1225,3.31293,-0.0197554,0.268549,0.999284
459,1223,3.31318,-0.0194927,0.268528,0.999614
461,1221,3.31259,-0.0198005,0.268539,0.999224
463,1219,3.31263,-0.0198319,0.268536,0.999216
465,1217,3.31234,-0.0204271,0.26853,0.998891
467,1215,3.31204,-0.0203925,0.268536,0.998915
469,1213,3.3121,-0.0204107,0.26892,0.998917
471,1211,3.31387,-0.0171477,0.26692,0.998661
473,1209,3.31399,-0.0179558,0.267575,0.998057
475,1207,3.31409,-0.0178363,0.267175,0.998314
477,1205,3.31349,-0.01797,0.267959,0.998041
479,1203,3.31391,-0.0178148,0.26717,0.998313
481,1201,3.31315,-0.0184314,0.267567,0.997776
483,1199,3.31322,-0.0185019,0.267567,0.997738
485,1197,3.31334,-0.0185043,0.267566,0.997998
487,1195,3.31356,-0.0190875,0.267314,0.997424
489,1193,3.3128,-0.0192125,0.267967,0.997164
491,1191,3.31266,-0.0192152,0.267965,0.997163
493,1189,3.3132,-0.0190863,0.267562,0.997439
495,1187,3.3125,-0.0198483,0.267964,0.996836
497,1185,3.31246,-0.019839,0.267962,0.996838
499,1183,3.31259,-0.0198694,0.268056,0.996828
501,1181,3.31252,-0.0203362,0.267967,0.996594
503,1179,3.31259,-0.0204818,0.26797,0.996532
505,1177,3.3139,-0.0172823,0.26701,0.996045
507,1175,3.31388,-0.0179302,0.267261,0.99437
509,1173,3.3136,-0.0180206,0.267012,0.995649
511,1171,3.31379,-0.0179985,0.267003,0.995653
513,1169,3.31386,-0.0178633,0.266997,0.995718
515,1167,3.31365,-0.0185345,0.267006,0.99538
517,1165,3.31369,-0.018575,0.267004,0.995354
519,1163,3.31288,-0.0186806,0.267401,0.995079
521,1161,3.31278,-0.0192703,0.267399,0.994776
523,1159,3.31302,-0.0193096,0.267394,0.994749
525,1157,3.31293,-0.0192339,0.2674,0.994809
527,1155,3.3125,-0.0200394,0.268058,0.994192
529,1153,3.31226,-0.0200395,0.267814,0.994208
531,1151,3.31292,-0.0198604,0.267399,0.994484
533,1149,3.31241,-0.0206881,0.267806,0.993851
535,1147,3.31213,-0.0206017,0.267802,0.993894
537,1145,3.31223,-0.0206595,0.267803,0.993867
539,1143,3.31198,-0.0206202,0.267798,0.993861
541,1141,3.31362,-0.0180996,0.266835,0.993008
543,1139,3.31315,-0.0180124,0.266828,0.993051
545,1137,3.31307,-0.0180649,0.266835,0.993029
547,1135,3.31372,-0.0179809,0.266429,0.993277
549,1133,3.31295,-0.0186578,0.266828,0.992243
551,1131,3.31318,-0.0187588,0.266834,0.99267
553,1129,3.31288,-0.0193862,0.267236,0.992154
555,1127,3.3132,-0.0193272,0.266841,0.992412
557,1125,3.31244,-0.0194591,0.267242,0.992142
559,1123,3.31278,-0.0201404,0.267237,0.991783
561,1121,3.31275,-0.0201119,0.267239,0.99179
563,1119,3.31193,-0.0200189,0.267236,0.991829
565,1117,3.31171,-0.0207842,0.267639,0.99121
567,1115,3.31161,-0.0209964,0.267638,0.991369
569,1113,3.31133,-0.0208191,0.267638,0.991202
571,1111,3.31309,-0.0174769,0.266261,0.990961
573,1109,3.31336,-0.0180707,0.266266,0.990671
575,1107,3.3137,-0.0181396,0.266273,0.990659
577,1105,3.31259,-0.0182309,0.266684,0.990408
579,1103,3.31311,-0.0187826,0.26668,0.990121
581,1101,3.31292,-0.0188101,0.266678,0.990351
583,1099,3.31265,-0.0195379,0.267087,0.989538
585,1097,3.31237,-0.0195432,0.267094,0.989553
587,1095,3.31204,-0.0195261,0.267087,0.989554
589,1093,3.31204,-0.0201639,0.267086,0.989215
591,1091,3.31141,-0.0201313,0.266772,0.98923
593,1089,3.31136,-0.0209306,0.267496,0.988632
595,1087,3.31137,-0.0209561,0.26749,0.988608
597,1085,3.31152,-0.0208263,0.267087,0.988883
599,1083,3.31308,-0.0181907,0.266507,0.988068
601,1081,3.31293,-0.0180985,0.266122,0.988131
603,1079,3.31283,-0.0182019,0.266121,0.988074
605,1077,3.3121,-0.0189363,0.266528,0.987487
607,1075,3.31258,-0.0189497,0.266531,0.987502
609,1073,3.31235,-0.0188432,0.266523,0.987515
611,1071,3.31144,-0.0196983,0.266934,0.986703
613,1069,3.31174,-0.0196114,0.26653,0.987141
615,1067,3.31189,-0.0202333,0.266935,0.986643
617,1065,3.31147,-0.0203406,0.266911,0.986589
619,1063,3.31156,-0.0201538,0.266528,0.986876
621,1061,3.31154,-0.0209505,0.266938,0.986281
623,1059,3.31096,-0.0208933,0.266936,0.986299
625,1057,3.31306,-0.0176413,0.265643,0.986
627,1055,3.31341,-0.0182918,0.265367,0.985679
629,1053,3.31338,-0.0182702,0.265653,0.985701
631,1051,3.31254,-0.0183755,0.265962,0.985426
633,1049,3.31278,-0.0189072,0.265557,0.985369
635,1047,3.31238,-0.0189675,0.26606,0.985144
637,1045,3.31233,-0.0190468,0.265967,0.985093
639,1043,3.31233,-0.0195905,0.266216,0.984818
641,1041,3.3121,-0.0196121,0.265961,0.984785
643,1039,3.3122,-0.0196302,0.265967,0.984799
645,1037,3.31142,-0.0203553,0.266374,0.984215
647,1035,3.31149,-0.0204341,0.266383,0.984188
649,1033,3.31152,-0.0203976,0.266374,0.984196
651,1031,3.31083,-0.0209818,0.266372,0.984151
653,1029,3.31015,-0.021083,0.266782,0.983644
655,1027,3.31239,-0.0183616,0.2654,0.983054
657,1025,3.31233,-0.018371,0.265395,0.983037
659,1023,3.31194,-0.0184259,0.265404,0.983034
661,1021,3.31175,-0.0191431,0.265808,0.982442
663,1019,3.31182,-0.0190314,0.265395,0.982717
665,1017,3.31076,-0.0198823,0.266217,0.981849
667,1015,3.31136,-0.0196906,0.265891,0.982165
669,1013,3.31137,-0.0197529,0.265809,0.982151
671,1011,3.3104,-0.0205816,0.266216,0.981504
673,1009,3.31049,-0.0204956,0.26621,0.981543
675,1007,3.3114,-0.0204186,0.266047,0.981795
677,1005,3.31046,-0.0211894,0.266212,0.981184
679,1003,3.31066,-0.0215409,0.266211,0.981005
681,1001,3.31204,-0.0180093,0.265236,0.980607
683,999,3.31206,-0.018474,0.265237,0.980377
685,997,3.31196,-0.0185811,0.265236,0.980574
687,995,3.31231,-0.0191827,0.265237,0.980033
689,993,3.31212,-0.0192064,0.265242,0.980036
691,991,3.3113,-0.0199892,0.265899,0.979422
693,989,3.3112,-0.0198934,0.265649,0.979469
695,987,3.31088,-0.0198708,0.265644,0.979478
697,985,3.31076,-0.0206623,0.265647,0.979076
699,983,3.31038,-0.0205348,0.265736,0.979134
701,981,3.31056,-0.0211876,0.265646,0.978821
703,979,3.30976,-0.0212658,0.266058,0.978563
705,977,3.31174,-0.0184505,0.264671,0.97801
707,975,3.31132,-0.0187184,0.264518,0.977654
709,973,3.31129,-0.0186977,0.265086,0.977685
711,971,3.31135,-0.0193298,0.265082,0.977368
713,969,3.31112,-0.0194022,0.265089,0.977344
715,967,3.31144,-0.020001,0.265478,0.977043
717,965,3.31123,-0.0199472,0.265087,0.977074
719,963,3.31065,-0.0201054,0.265499,0.976774
721,961,3.31097,-0.0206743,0.265089,0.976706
723,959,3.31053,-0.0213101,0.265492,0.976169
725,957,3.31016,-0.0213927,0.265499,0.976131
727,955,3.30996,-0.0213446,0.265493,0.976143
729,953,3.31008,-0.0170255,0.265131,0.975271
731,951,3.31126,-0.0184312,0.264523,0.975452
733,949,3.31101,-0.0187992,0.264519,0.975258
735,947,3.30939,-0.0176914,0.265128,0.974959
737,945,3.3106,-0.0193198,0.264509,0.974961
739,943,3.30977,-0.0194765,0.264926,0.974674
741,941,3.30991,-0.02015,0.26493,0.974352
743,939,3.30985,-0.020137,0.264931,0.974357
745,937,3.31014,-0.0208464,0.265017,0.974012
747,935,3.31002,-0.0208533,0.264936,0.974037
749,933,3.30999,-0.0215739,0.26535,0.973458
751,931,3.31093,-0.0163849,0.264311,0.973221
753,929,3.31079,-0.0189645,0.264372,0.972562
755,927,3.31095,-0.0190959,0.263952,0.97271
757,925,3.31101,-0.0187776,0.263951,0.972867
759,923,3.31066,-0.0194898,0.263951,0.97252
761,921,3.31072,-0.0193993,0.263697,0.97255
763,919,3.30976,-0.0196348,0.264365,0.972225
765,917,3.30987,-0.0203774,0.264782,0.971639
767,915,3.30958,-0.0203211,0.264782,0.971663
769,913,3.31069,-0.0158656,0.263989,0.971043
771,911,3.30956,-0.0209991,0.264818,0.971339
773,909,3.30955,-0.0216134,0.264787,0.971038
775,907,3.31172,-0.0181752,0.263377,0.970748
777,905,3.31122,-0.0189482,0.264044,0.970178
779,903,3.31075,-0.0189181,0.263802,0.970199
781,901,3.31013,-0.019588,0.263791,0.96985
783,899,3.31034,-0.0195946,0.263799,0.969853
785,897,3.30993,-0.020363,0.264217,0.969257
787,895,3.30958,-0.0203642,0.26421,0.969239
789,893,3.30916,-0.0202844,0.264211,0.969273
791,891,3.30939,-0.0209949,0.264212,0.968935
793,889,3.30926,-0.02102,0.264211,0.968921
795,887,3.30914,-0.0218191,0.264716,0.968333
797,885,3.30859,-0.0218126,0.264631,0.968318
799,883,3.31093,-0.0190689,0.263623,0.967479
801,881,3.31062,-0.0190026,0.263222,0.967722
803,879,3.31005,-0.0197025,0.263647,0.967175
805,877,3.30948,-0.0197608,0.263645,0.967139
807,875,3.30929,-0.0197636,0.263648,0.967122
809,873,3.30865,-0.0206031,0.264064,0.966739
811,871,3.3094,-0.0204408,0.263638,0.966786
813,869,3.3089,-0.0212048,0.264051,0.966168
815,867,3.30847,-0.0212516,0.264058,0.966163
817,865,3.30868,-0.0218569,0.264057,0.965878
819,863,3.31103,-0.0184978,0.262653,0.965564
821,861,3.3103,-0.0191396,0.26307,0.965038
823,859,3.31075,-0.0190634,0.262653,0.965296
825,857,3.31015,-0.0198238,0.263071,0.964688
827,855,3.3096,-0.0197613,0.263066,0.964703
829,853,3.309,-0.0206301,0.263754,0.964087
831,851,3.30886,-0.0205876,0.26349,0.964073
833,849,3.30901,-0.0207022,0.263739,0.964031
835,847,3.30881,-0.02135,0.263493,0.963713
837,845,3.30865,-0.0213977,0.263489,0.963678
839,843,3.3083,-0.0220497,0.263907,0.963137
841,841,3.31084,-0.018525,0.262082,0.963115
843,839,3.30969,-0.0192755,0.262496,0.962508
845,837,3.3096,-0.019248,0.2625,0.962538
847,835,3.30932,-0.0199321,0.262926,0.962016
849,833,3.30938,-0.0199965,0.262928,0.961987
851,831,3.30898,-0.0205845,0.262929,0.961684
853,829,3.30909,-0.0206852,0.263191,0.961668
855,827,3.30878,-0.0215663,0.263354,0.961016
857,825,3.30875,-0.0215289,0.263359,0.961041
859,823,3.30849,-0.0220982,0.263355,0.960757
861,821,3.31033,-0.018591,0.261944,0.960484
863,819,3.30943,-0.0193485,0.262367,0.959906
865,817,3.30934,-0.019451,0.262368,0.959865
867,815,3.30897,-0.0200113,0.26236,0.959566
869,813,3.30875,-0.0201405,0.262787,0.959287
871,811,3.30887,-0.0208301,0.262787,0.958961
873,809,3.30884,-0.0208264,0.26279,0.958963
875,807,3.30874,-0.0214203,0.262785,0.958659
877,805,3.30865,-0.0215396,0.262791,0.958615
879,803,3.30746,-0.0222445,0.263212,0.958065
881,801,3.30976,-0.0193385,0.261795,0.957489
883,799,3.30888,-0.0195127,0.262227,0.957179
885,797,3.30882,-0.0201752,0.262223,0.956849
887,795,3.30892,-0.0201987,0.262226,0.956863
889,793,3.30913,-0.0208702,0.262221,0.956531
891,791,3.30823,-0.0209729,0.262644,0.956251
893,789,3.30847,-0.0209502,0.262464,0.95649
895,787,3.30739,-0.0216418,0.262652,0.955954
897,785,3.3075,-0.0223778,0.26265,0.9556
899,783,3.30945,-0.0187112,0.26123,0.955362
901,781,3.30872,-0.019485,0.26166,0.954783
903,779,3.30925,-0.0194541,0.261236,0.955026
905,777,3.30911,-0.0203323,0.261662,0.954639
907,775,3.30861,-0.0202632,0.261651,0.954396
909,773,3.30879,-0.020963,0.26166,0.954081
911,771,3.30758,-0.0210522,0.262081,0.953819
913,769,3.30751,-0.0217327,0.262087,0.953501
915,767,3.30735,-0.0217295,0.262089,0.953506
917,765,3.30656,-0.0224084,0.262516,0.952954
919,763,3.3092,-0.0188626,0.26066,0.952882
921,761,3.30869,-0.019689,0.26109,0.952284
923,759,3.30873,-0.0203204,0.261085,0.951966
925,757,3.30844,-0.0203731,0.261087,0.951949
927,755,3.30742,-0.0211751,0.261518,0.951344
929,753,3.30691,-0.021161,0.261519,0.951345
931,751,3.30682,-0.0219508,0.261942,0.950724
933,749,3.30657,-0.0219852,0.261951,0.950734
935,747,3.30669,-0.0227087,0.261954,0.950408
937,745,3.3088,-0.0190743,0.260519,0.950129
939,743,3.309,-0.0197562,0.260526,0.948471
941,741,3.30787,-0.0198314,0.260956,0.949546
943,739,3.30761,-0.0205844,0.260957,0.949195
945,737,3.30723,-0.0205445,0.260949,0.949219
947,735,3.30684,-0.0213326,0.261384,0.948612
949,733,3.30671,-0.0220452,0.261384,0.948274
951,731,3.30666,-0.0220035,0.261382,0.948286
953,729,3.30626,-0.0228763,0.261816,0.947665
955,727,3.30629,-0.0227314,0.26138,0.947945
957,725,3.30746,-0.019891,0.260382,0.947063
959,723,3.30771,-0.0199139,0.260384,0.947096
961,721,3.30694,-0.0206264,0.261079,0.946541
963,719,3.30768,-0.0214924,0.260827,0.946138
965,717,3.30722,-0.0213856,0.260823,0.946181
967,715,3.30722,-0.0220394,0.260819,0.945858
969,713,3.30672,-0.0219981,0.260813,0.945874
971,711,3.30588,-0.0229524,0.261251,0.945204
973,709,3.30766,-0.0192656,0.259819,0.944959
975,707,3.30775,-0.0197757,0.25982,0.944729
977,705,3.30766,-0.0200036,0.25982,0.944609
979,703,3.30753,-0.0208428,0.260245,0.943983
981,701,3.30705,-0.0214976,0.260248,0.943668
983,699,3.30646,-0.0214924,0.260242,0.943669
985,697,3.3058,-0.0222929,0.260515,0.943084
987,695,3.30544,-0.0223128,0.260682,0.943042
989,693,3.30586,-0.0230075,0.260682,0.942742
991,691,3.30633,-0.0183531,0.2603,0.941866
993,689,3.30763,-0.0201994,0.260086,0.941869
995,687,3.30717,-0.020801,0.259683,0.941569
997,685,3.30696,-0.0208152,0.259681,0.941561
999,683,3.30584,-0.0216389,0.260114,0.940936
1001,681,3.30595,-0.0223461,0.260371,0.940609
1003,679,3.30616,-0.0223566,0.260116,0.940606
1005,677,3.30567,-0.0232695,0.260555,0.939955
1007,675,3.30738,-0.0195449,0.259111,0.939698
1009,673,3.30638,-0.0203687,0.259549,0.939085
1011,671,3.30666,-0.0202249,0.259113,0.939384
1013,669,3.30582,-0.020998,0.259554,0.938785
1015,667,3.30656,-0.0218277,0.259543,0.93839
1017,665,3.30552,-0.0218277,0.259985,0.938176
1019,663,3.30549,-0.0226076,0.260071,0.937834
1021,661,3.30456,-0.0233193,0.260429,0.937273
1023,659,3.30682,-0.0195201,0.258533,0.937245
1025,657,3.30633,-0.0202535,0.258989,0.936704
1027,655,3.30693,-0.021156,0.258986,0.936292
1029,653,3.30655,-0.0210732,0.25898,0.936315
1031,651,3.30562,-0.0221731,0.259428,0.935596
1033,649,3.30534,-0.0226269,0.25943,0.9354
1035,647,3.3044,-0.0227339,0.259873,0.935131
1037,645,3.30439,-0.0234984,0.259871,0.934769
1039,643,3.30704,-0.0195871,0.257972,0.934791
1041,641,3.30669,-0.0204096,0.258422,0.934193
1043,639,3.30578,-0.0213463,0.258869,0.933537
1045,637,3.30541,-0.021251,0.258863,0.933591
1047,635,3.30511,-0.0219126,0.258866,0.933284
1049,633,3.30446,-0.0228686,0.259311,0.932623
1051,631,3.30515,-0.0235438,0.259311,0.932321
1053,629,3.30454,-0.0235364,0.259312,0.93232
1055,627,3.30595,-0.0206432,0.258296,0.931418
1057,625,3.30535,-0.0206249,0.258301,0.931436
1059,623,3.30486,-0.0214635,0.258743,0.930809
1061,621,3.3057,-0.0213851,0.25829,0.931071
1063,619,3.30547,-0.0221348,0.258295,0.929211
1065,617,3.30432,-0.022877,0.258741,0.930145
1067,615,3.30349,-0.0237504,0.259189,0.929541
1069,613,3.30345,-0.0237294,0.259188,0.929543
1071,611,3.30564,-0.0207745,0.257731,0.928887
1073,609,3.30544,-0.021612,0.258181,0.928297
1075,607,3.30525,-0.0214811,0.257728,0.928573
1077,605,3.30437,-0.0221975,0.258174,0.928032
1079,603,3.30395,-0.0231306,0.258864,0.927379
1081,601,3.30369,-0.0230439,0.25862,0.927418
1083,599,3.30426,-0.0238886,0.258627,0.927026
1085,597,3.3053,-0.0209017,0.257615,0.926154
1087,595,3.30337,-0.0189919,0.258226,0.926166
1089,593,3.30418,-0.0216967,0.258061,0.925556
1091,591,3.30471,-0.0216333,0.257608,0.925801
1093,589,3.30427,-0.0228377,0.258062,0.925049
1095,587,3.30333,-0.023215,0.258061,0.924862
1097,585,3.30253,-0.024098,0.258745,0.924239
1099,583,3.30483,-0.0201964,0.257038,0.923988
1101,581,3.30509,-0.0212924,0.257037,0.923485
1103,579,3.305,-0.0161218,0.25663,0.922713
1105,577,3.30404,-0.0216855,0.257033,0.923297
1107,575,3.30313,-0.0225353,0.257486,0.922693
1109,573,3.3037,-0.0232819,0.257484,0.922349
1111,571,3.30294,-0.0241567,0.25794,0.921727
1113,569,3.30467,-0.0202699,0.256471,0.921475
1115,567,3.30428,-0.0210088,0.256229,0.921137
1117,565,3.30376,-0.0218965,0.256995,0.920512
1119,563,3.30327,-0.0228033,0.257376,0.919872
1121,561,3.30322,-0.0226322,0.256914,0.920153
1123,559,3.3024,-0.0235543,0.257377,0.919736
1125,557,3.30146,-0.0243272,0.257823,0.918937
1127,555,3.30464,-0.0204335,0.255894,0.918909
1129,553,3.30367,-0.0212917,0.256355,0.918303
1131,551,3.30345,-0.0220388,0.256352,0.91795
1133,549,3.30234,-0.0228882,0.256803,0.917331
1135,547,3.30247,-0.0229042,0.256808,0.917348
1137,545,3.3025,-0.0236362,0.256807,0.917005
1139,543,3.3039,-0.0205653,0.255782,0.91613
1141,541,3.30317,-0.0214044,0.25624,0.915779
1143,539,3.3032,-0.0222378,0.256248,0.915171
1145,537,3.30323,-0.0221592,0.256242,0.91519
1147,535,3.30269,-0.0229605,0.256242,0.914845
1149,533,3.3017,-0.0238202,0.256701,0.914222
1151,531,3.30146,-0.0245418,0.256694,0.913888
1153,529,3.30411,-0.020726,0.255212,0.913571
1155,527,3.30283,-0.0215377,0.25608,0.912971
1157,525,3.30169,-0.022378,0.25613,0.912364
1159,523,3.30194,-0.023172,0.256138,0.912035
1161,521,3.3022,-0.0232032,0.25613,0.912004
1163,519,3.30119,-0.0239403,0.256132,0.911664
1165,517,3.30062,-0.0247259,0.256591,0.911084
1167,515,3.30304,-0.0216216,0.255103,0.91044
1169,513,3.30257,-0.022498,0.255567,0.909827
1171,511,3.30193,-0.0224793,0.25557,0.909854
1173,509,3.3009,-0.0232676,0.256031,0.909269
1175,507,3.30131,-0.0241851,0.256039,0.908874
1177,505,3.30078,-0.0248317,0.256032,0.908575
1179,503,3.30231,-0.0217571,0.255004,0.907668
1181,501,3.3015,-0.0225787,0.255699,0.907073
1183,499,3.3018,-0.0225992,0.254998,0.907276
1185,497,3.30076,-0.0234581,0.255465,0.906511
1187,495,3.29986,-0.0242635,0.256009,0.906098
1189,493,3.30023,-0.0251598,0.255932,0.905691
1191,491,3.30207,-0.0219419,0.254431,0.905064
1193,489,3.30103,-0.0227606,0.2549,0.904481
1195,487,3.30084,-0.0235487,0.25531,0.904122
1197,485,3.30058,-0.0244355,0.255363,0.903277
1199,483,3.29975,-0.0244585,0.255597,0.903492
1201,481,3.29924,-0.0252129,0.255372,0.903174
1203,479,3.30156,-0.0221291,0.254333,0.902242
1205,477,3.30095,-0.0228471,0.254332,0.901937
1207,475,3.29994,-0.0237523,0.254801,0.901304
1209,473,3.29995,-0.0245151,0.254805,0.900984
1211,471,3.29926,-0.0254501,0.255276,0.900335
1213,469,3.30138,-0.0213246,0.253296,0.90031
1215,467,3.30066,-0.0220923,0.253762,0.899738
1217,465,3.30114,-0.0229815,0.253768,0.899366
1219,463,3.29973,-0.0239205,0.254238,0.898722
1221,461,3.29891,-0.0247462,0.254706,0.898117
1223,459,3.29886,-0.0252107,0.254712,0.897931
1225,457,3.30116,-0.0223042,0.253199,0.897134
1227,455,3.29976,-0.0231706,0.253743,0.896523
1229,453,3.30044,-0.0209225,0.252726,0.896543
1231,451,3.29924,-0.0310597,0.253671,0.895487
1233,449,3.29882,-0.0234581,0.253674,0.895208
1235,447,3.30035,-0.026494,0.252155,0.894211
1237,445,3.30106,-0.0263743,0.251687,0.894507
1239,443,3.29982,-0.02728,0.252158,0.893868
1241,441,3.29967,-0.0259315,0.251684,0.893485
1243,439,3.29942,-0.0248519,0.251685,0.892747
1245,437,3.30079,-0.0236663,0.250644,0.892181
1247,435,3.29992,-0.0247896,0.251367,0.891459
1249,433,3.30086,-0.0212026,0.250172,0.891001
1251,431,3.29965,-0.0220258,0.250641,0.890488
1253,429,3.29855,-0.0235505,0.251105,0.889814
1255,427,3.30119,-0.0278325,0.249125,0.8895
1257,425,3.30034,-0.0287374,0.24959,0.88888
1259,423,3.29906,-0.0295104,0.250062,0.888311
1261,421,3.30036,-0.0242703,0.248787,0.887624
1263,419,3.29914,-0.0290677,0.249593,0.887535
1265,417,3.29803,-0.0299904,0.250066,0.886917
1267,415,3.30089,-0.0246185,0.248072,0.886185
1269,413,3.30126,-0.0172553,0.247157,0.885194
1271,411,3.2992,-0.0262848,0.248612,0.885235
1273,409,3.29936,-0.0230236,0.248068,0.88444
1275,407,3.29891,-0.023775,0.24807,0.88412
1277,405,3.30005,-0.0205662,0.247028,0.883462
1279,403,3.29983,-0.0297341,0.247023,0.882885
1281,401,3.30027,-0.0244165,0.246559,0.881981
1283,399,3.29978,-0.0167602,0.246975,0.881646
1285,397,3.29855,-0.0300486,0.247021,0.881533
1287,395,3.30049,-0.0269171,0.245968,0.88059
1289,393,3.2993,-0.0293333,0.246439,0.880535
1291,391,3.29952,-0.0265373,0.245966,0.879534
1293,389,3.29933,-0.0251786,0.245498,0.879138
1295,387,3.29732,-0.0302716,0.246904,0.878702
1297,385,3.30038,-0.0226983,0.244448,0.877911
1299,383,3.30063,-0.0216012,0.244199,0.877164
1301,381,3.29876,-0.0221888,0.244444,0.876924
1303,379,3.30018,-0.0231862,0.243456,0.876159
1305,377,3.30107,-0.0244328,0.242459,0.875301
1307,375,3.30005,-0.0294807,0.24339,0.87514
1309,373,3.29964,-0.0282632,0.243388,0.874436
1311,371,3.30032,-0.0208405,0.242451,0.873422
1313,369,3.29803,-0.031768,0.244075,0.873716
1315,367,3.30078,-0.0241127,0.241866,0.872936
1317,365,3.30076,-0.0206423,0.240938,0.872434
1319,363,3.29888,-0.0257851,0.242324,0.871975
1321,361,3.29972,-0.0222955,0.241396,0.8715
1323,359,3.29845,-0.0325228,0.241854,0.870521
1325,357,3.29827,-0.0178315,0.241381,0.869966
1327,355,3.30074,-0.0230989,0.239858,0.86929
1329,353,3.29898,-0.0288391,0.240798,0.868594
1331,351,3.29799,-0.0317831,0.241262,0.868343
1333,349,3.30062,-0.0243592,0.239271,0.867205
1335,347,3.29954,-0.0271946,0.239734,0.867012
1337,345,3.29917,-0.0259929,0.23973,0.866296
1339,343,3.29941,-0.0247862,0.239271,0.865827
1341,341,3.2981,-0.0259918,0.239785,0.865084
1343,339,3.30001,-0.0221282,0.238203,0.864639
1345,337,3.30014,-0.0293366,0.237734,0.86422
1347,335,3.29864,-0.023896,0.238665,0.863675
1349,333,3.29862,-0.0310904,0.238196,0.863277
1351,331,3.2979,-0.0324816,0.238659,0.862462
1353,329,3.29885,-0.0296279,0.237596,0.861616
1355,327,3.29884,-0.0304154,0.23759,0.861048
1357,325,3.29932,-0.0269394,0.236669,0.86051
1359,323,3.29739,-0.0321961,0.238054,0.860087
1361,321,3.30097,-0.0223111,0.235142,0.859181
1363,319,3.2997,-0.0253975,0.23606,0.858663
1365,317,3.29827,-0.0262383,0.236522,0.858083
1367,315,3.29913,-0.0249837,0.236056,0.857857
1369,313,3.29736,-0.0267097,0.236516,0.856664
1371,311,3.3002,-0.0209697,0.234521,0.856002
1373,309,3.29936,-0.0284574,0.234524,0.855271
1375,307,3.29845,-0.0314354,0.235036,0.85503
1377,305,3.29818,-0.0299747,0.234515,0.854634
1379,303,3.29998,-0.0268595,0.233447,0.853652
1381,301,3.29924,-0.0275589,0.233439,0.853358
1383,299,3.29893,-0.0263894,0.233443,0.852638
1385,297,3.29811,-0.0272173,0.233432,0.852263
1387,295,3.29706,-0.0281659,0.233897,0.851668
1389,293,3.30059,-0.0211714,0.231504,0.850524
1391,291,3.29847,-0.0241721,0.232353,0.850017
1393,289,3.29867,-0.0229181,0.2319,0.849563
1395,287,3.2982,-0.0323075,0.231897,0.849291
1397,285,3.29972,-0.0203519,0.231233,0.848337
1399,283,3.29903,-0.028647,0.230823,0.847302
1401,281,3.29878,-0.0295159,0.230818,0.846956
1403,279,3.29794,-0.0281613,0.23082,0.846289
1405,277,3.29982,-0.0249936,0.229747,0.845318
1407,275,3.29967,-0.023563,0.229283,0.844912
1409,273,3.29877,-0.0265571,0.229741,0.844675
1411,271,3.29853,-0.0238755,0.229277,0.843546
1413,269,3.29683,-0.0271015,0.23019,0.843021
1415,267,3.29977,-0.0214311,0.228198,0.842273
1417,265,3.29886,-0.0309368,0.228196,0.841982
1419,263,3.29755,-0.0318908,0.228648,0.841369
1421,261,3.29794,-0.0305321,0.228192,0.840929
1423,259,3.29889,-0.0302734,0.227561,0.839752
1425,257,3.29815,-0.028971,0.227555,0.839048
1427,255,3.298,-0.0299115,0.227554,0.838675
1429,253,3.29668,-0.0307708,0.228006,0.838103
1431,251,3.29988,-0.0228686,0.22556,0.837266
1433,249,3.29829,-0.0269123,0.22647,0.836416
1435,247,3.29906,-0.0231537,0.22556,0.835947
1437,245,3.29761,-0.0329582,0.226014,0.835354
1439,243,3.29949,-0.0228761,0.224921,0.834776
1441,241,3.29897,-0.0305451,0.224921,0.834038
1443,239,3.29828,-0.0313285,0.224921,0.83374
1445,237,3.2972,-0.0331041,0.225373,0.832806
1447,235,3.29939,-0.0275845,0.223828,0.831752
1449,233,3.29877,-0.0283948,0.223826,0.831423
1451,231,3.29849,-0.0269177,0.223374,0.831027
1453,229,3.29792,-0.0288893,0.223825,0.830028
1455,227,3.29644,-0.0297062,0.224275,0.829459
1457,225,3.29984,-0.0217738,0.221828,0.828607
1459,223,3.2978,-0.0248619,0.222718,0.828116
1461,221,3.29814,-0.023507,0.22227,0.827688
1463,219,3.29784,-0.0244291,0.222274,0.827336
1465,217,3.29859,-0.0219343,0.221624,0.825797
1467,215,3.29858,-0.0318138,0.221625,0.82546
1469,213,3.29757,-0.032538,0.221627,0.825192
1471,211,3.29693,-0.0336399,0.222081,0.82454
1473,209,3.29921,-0.0264715,0.220079,0.823122
1475,207,3.29846,-0.0271942,0.220076,0.822831
1477,205,3.2983,-0.0260269,0.220075,0.822073
1479,203,3.29668,-0.0314581,0.220981,0.821933
1481,201,3.29959,-0.0219332,0.21852,0.820422
1483,199,3.29856,-0.0250577,0.21897,0.820199
1485,197,3.29766,-0.026127,0.219419,0.819543
1487,195,3.29752,-0.0336807,0.218965,0.81915
1489,193,3.29815,-0.0246002,0.218765,0.817637
1491,191,3.29858,-0.0298285,0.217864,0.817184
1493,189,3.29736,-0.0329942,0.218309,0.816945
1495,187,3.29667,-0.0316634,0.218309,0.816253
1497,185,3.29897,-0.0280705,0.216748,0.815611
1499,183,3.2983,-0.0275793,0.216751,0.814603
1501,181,3.29743,-0.0286763,0.217201,0.81393
1503,179,3.29685,-0.0294744,0.21719,0.813625
1505,177,3.29968,-0.0234989,0.215191,0.812929
1507,175,3.29865,-0.025517,0.215643,0.811929
1509,173,3.29812,-0.0241257,0.215813,0.811256
1511,171,3.29749,-0.024992,0.215632,0.810901
1513,169,3.2987,-0.0215008,0.214527,0.809997
1515,167,3.29883,-0.0300615,0.214073,0.809247
1517,165,3.2973,-0.030961,0.214513,0.808666
1519,163,3.29678,-0.0343199,0.214966,0.80838
1521,161,3.29915,-0.0261079,0.212956,0.807279
1523,159,3.29741,-0.0303415,0.213845,0.806417
1525,157,3.29803,-0.0265384,0.212949,0.805911
1527,155,3.29615,-0.0299552,0.213846,0.805364
1529,153,3.29917,-0.0239127,0.211831,0.804637
1531,151,3.29817,-0.0258605,0.212278,0.803686
1533,149,3.29712,-0.0243608,0.212493,0.803016
1535,147,3.29711,-0.0254023,0.212271,0.802637
1537,145,3.29895,-0.0215352,0.210702,0.802074
1539,143,3.29856,-0.0304569,0.210705,0.801015
1541,141,3.29687,-0.0315666,0.211154,0.800381
1543,139,3.29851,-0.0231498,0.209663,0.799682
1545,137,3.29701,-0.0250847,0.210104,0.798724
1547,135,3.29862,-0.0258627,0.20914,0.798556
1549,133,3.29782,-0.0267557,0.209143,0.79801
1551,131,3.29701,-0.028269,0.209576,0.797183
1553,129,3.29913,-0.0227761,0.208008,0.796011
1555,127,3.29796,-0.0259893,0.208444,0.795767
1557,125,3.29756,-0.0340715,0.20871,0.793794
1559,123,3.29626,-0.0348333,0.208439,0.794766
1561,121,3.29863,-0.0298216,0.207086,0.793397
1563,119,3.29798,-0.033023,0.207302,0.793182
1565,117,3.2965,-0.0341402,0.207747,0.792545
1567,115,3.29673,-0.0313358,0.207298,0.79138
1569,113,3.29717,-0.0325132,0.207054,0.790649
1571,111,3.29853,-0.026296,0.205733,0.79005
1573,109,3.2966,-0.0319411,0.206617,0.789909
1575,107,3.29997,-0.0220623,0.204154,0.788378
1577,105,3.29919,-0.0229788,0.204151,0.788034
1579,103,3.29846,-0.0317945,0.204152,0.787078
1581,101,3.29719,-0.0352056,0.204585,0.786792
1583,99,3.29596,-0.0361484,0.205024,0.786205
1585,97,3.2979,-0.032777,0.203882,0.7852
1587,95,3.29698,-0.0334827,0.203878,0.784927
1589,93,3.29693,-0.030769,0.203438,0.783744
1591,91,3.29577,-0.033984,0.20387,0.783548
1593,89,3.29827,-0.0280305,0.202286,0.782477
1595,87,3.2974,-0.0288028,0.202288,0.782201
1597,85,3.29751,-0.0272941,0.201849,0.781786
1599,83,3.29607,-0.0293129,0.202286,0.78081
1601,81,3.29809,-0.0256023,0.201134,0.780132
1603,79,3.29728,-0.025204,0.201136,0.778838
1605,77,3.29667,-0.0260249,0.201128,0.778518
1607,75,3.29896,-0.0318258,0.199546,0.777906
1609,73,3.29798,-0.0233236,0.199982,0.777271
1611,71,3.29712,-0.0349408,0.200425,0.776339
1613,69,3.29621,-0.0262589,0.200418,0.775978
1615,67,3.29978,-0.0271663,0.197962,0.775182
1617,65,3.29695,-0.0317885,0.199264,0.774017
1619,63,3.29847,-0.0275232,0.197955,0.77385
1621,61,3.29541,-0.0337175,0.199719,0.773077
1623,59,3.29947,-0.0248557,0.196796,0.772547
1625,57,3.29708,-0.0269878,0.197657,0.771278
1627,55,3.29744,-0.0254417,0.197229,0.770901
1629,53,3.296,-0.0275221,0.197656,0.769901
1631,51,3.29851,-0.0234758,0.196062,0.769329
1633,49,3.29725,-0.0247042,0.196497,0.768649
1635,47,3.2967,-0.0255427,0.19651,0.768339
1637,45,3.29889,-0.0300494,0.194895,0.766999
1639,43,3.29742,-0.0238115,0.195758,0.766446
1641,41,3.29777,-0.030488,0.194892,0.765631
1643,39,3.2951,-0.0366457,0.196192,0.765384
1645,37,3.29954,-0.0252838,0.193293,0.764276
1647,35,3.29711,-0.0321732,0.194589,0.763535
1649,33,3.29809,-0.0281952,0.193723,0.763012
1651,31,3.29567,-0.0342196,0.195024,0.762579
1653,29,3.29864,-0.0265452,0.192986,0.761099
1655,27,3.29764,-0.0273674,0.192981,0.760813
1657,25,3.29972,-0.0185909,0.191433,0.760086
1659,23,3.2964,-0.0277713,0.192985,0.759496
1661,21,3.2982,-0.0340179,0.191805,0.758521
1663,19,3.29726,-0.0349558,0.191806,0.758191
1665,17,3.2968,-0.0344748,0.191999,0.757148
1667,15,3.29885,-0.0304307,0.190189,0.756553
1669,13,3.29789,-0.0316509,0.190615,0.755875
1671,11,3.29751,-0.0309554,0.190181,0.755146
1673,9,3.29613,-0.0321935,0.190615,0.7545
1675,7,3.29951,-0.0241067,0.188151,0.753377
1677,5,3.29858,-0.0251366,0.188574,0.752781
1679,3,3.29692,-0.0297513,0.189626,0.751901