File: hust_correlation_analysis/matrices/HUST_7-6_cycle_feature_matrix.csv
cycle_number,rul,voltage,current,capacity,charge_capacity
1,1421,3.31166,-0.0088175,0.309987,1.02567
3,1419,3.30021,-0.0122177,0.315413,1.02123
5,1417,3.29989,-0.0133314,0.31541,1.02055
7,1415,3.30159,-0.0109473,0.314233,1.02001
9,1413,3.30139,-0.0115965,0.314241,1.01963
11,1411,3.30174,-0.0114822,0.313802,1.01985
13,1409,3.30184,-0.0121263,0.313927,1.01949
15,1407,3.30178,-0.0126779,0.313806,1.01915
17,1405,3.30147,-0.0133014,0.3138,1.01876
19,1403,3.30147,-0.0132755,0.313381,1.01895
21,1401,3.30284,-0.0109916,0.312643,1.0182
23,1399,3.30302,-0.0110057,0.312631,1.01818
25,1397,3.30274,-0.0116192,0.312632,1.01779
27,1395,3.30237,-0.011593,0.312612,1.01775
29,1393,3.30258,-0.0115526,0.311807,1.01789
31,1391,3.30232,-0.012199,0.312594,1.01732
33,1389,3.30206,-0.0122327,0.312583,1.01729
35,1387,3.30217,-0.0128423,0.312587,1.01692
37,1385,3.30177,-0.0128895,0.312577,1.01687
39,1383,3.30203,-0.0127743,0.312153,1.0171
41,1381,3.30186,-0.0134449,0.312566,1.01651
43,1379,3.302,-0.0133825,0.312132,1.01669
45,1377,3.30156,-0.0133636,0.312134,1.01671
47,1375,3.30331,-0.0110854,0.310976,1.01612
49,1373,3.30287,-0.0113049,0.311379,1.01579
51,1371,3.30375,-0.0117626,0.311437,1.01569
53,1369,3.30345,-0.0116492,0.310981,1.0158
55,1367,3.30312,-0.0117034,0.311086,1.01574
57,1365,3.30353,-0.0122359,0.310967,1.01541
59,1363,3.30346,-0.0123195,0.31097,1.01537
61,1361,3.30331,-0.0122902,0.310961,1.01538
63,1359,3.30322,-0.0128913,0.310961,1.015
65,1357,3.30303,-0.0128251,0.311046,1.01503
67,1355,3.30323,-0.0129161,0.310969,1.01502
69,1353,3.30374,-0.0134199,0.310943,1.01468
71,1351,3.30461,-0.0106124,0.309824,1.01448
73,1349,3.30462,-0.0110783,0.309832,1.01421
75,1347,3.30489,-0.0110479,0.30983,1.01424
77,1345,3.30501,-0.0116507,0.309825,1.01385
79,1343,3.30476,-0.0116374,0.309817,1.01412
81,1341,3.3045,-0.011672,0.309818,1.01383
83,1339,3.3046,-0.0116256,0.309808,1.01384
85,1337,3.30498,-0.0122108,0.309813,1.01348
87,1335,3.30475,-0.0122175,0.309812,1.01347
89,1333,3.30435,-0.0121922,0.309812,1.01349
91,1331,3.30415,-0.0129085,0.310243,1.01293
93,1329,3.30465,-0.0128999,0.30983,1.01313
95,1327,3.30471,-0.0133835,0.310059,1.01283
97,1325,3.3043,-0.0133582,0.309836,1.01285
99,1323,3.30422,-0.0133585,0.30984,1.01286
101,1321,3.30643,-0.0109708,0.308661,1.01229
103,1319,3.30627,-0.0110426,0.308656,1.01223
105,1317,3.30578,-0.0110645,0.30866,1.01223
107,1315,3.30568,-0.0110491,0.308654,1.01222
109,1313,3.30586,-0.0110669,0.308655,1.01221
111,1311,3.30624,-0.0116318,0.30865,1.01185
113,1309,3.30577,-0.0115992,0.308656,1.0119
115,1307,3.30534,-0.0117381,0.309087,1.01167
117,1305,3.30548,-0.0122426,0.309083,1.01139
119,1303,3.30537,-0.0122424,0.309085,1.01139
121,1301,3.30509,-0.0122555,0.309083,1.01137
123,1299,3.30512,-0.0123267,0.309089,1.01133
125,1297,3.30511,-0.0128009,0.309082,1.01101
127,1295,3.30496,-0.0128343,0.3093,1.01099
129,1293,3.30495,-0.0127232,0.309064,1.01104
131,1291,3.30451,-0.0128792,0.30908,1.01095
133,1289,3.30478,-0.0128237,0.309067,1.01097
135,1287,3.30431,-0.0135393,0.309491,1.01037
137,1285,3.3041,-0.0135575,0.3095,1.00907
139,1283,3.30585,-0.010622,0.308341,1.0102
141,1281,3.30581,-0.0110845,0.308339,1.00991
143,1279,3.30572,-0.0111284,0.308352,1.0099
145,1277,3.30565,-0.0111256,0.308345,1.0099
147,1275,3.30573,-0.0117079,0.308347,1.00953
149,1273,3.3056,-0.0116312,0.308339,1.00957
151,1271,3.30558,-0.0116519,0.308256,1.00955
153,1269,3.30532,-0.0116658,0.308339,1.00955
155,1267,3.30544,-0.0117718,0.30834,1.00975
157,1265,3.30489,-0.0123536,0.308756,1.00897
159,1263,3.30522,-0.012255,0.308336,1.00917
161,1261,3.30525,-0.0122509,0.308341,1.0092
163,1259,3.30507,-0.0128684,0.308764,1.00867
165,1257,3.30526,-0.0128739,0.30835,1.0091
167,1255,3.30434,-0.0129513,0.308763,1.00862
169,1253,3.30523,-0.0128371,0.308572,1.00864
171,1251,3.30518,-0.0129614,0.308346,1.00879
173,1249,3.30513,-0.0134466,0.308349,1.00849
175,1247,3.30457,-0.0134392,0.308756,1.00832
177,1245,3.30497,-0.0134436,0.308335,1.00847
179,1243,3.30476,-0.0134346,0.308334,1.00847
181,1241,3.30453,-0.013536,0.308335,1.00841
183,1239,3.30625,-0.0111663,0.307743,1.00766
185,1237,3.30668,-0.0111632,0.307178,1.00786
187,1235,3.3067,-0.0110757,0.307161,1.00789
189,1233,3.30653,-0.0110453,0.307152,1.00789
191,1231,3.30644,-0.0109734,0.307142,1.00785
193,1229,3.30666,-0.0111526,0.307156,1.0078
195,1227,3.30678,-0.011631,0.307149,1.00751
197,1225,3.30613,-0.0116778,0.307569,1.00732
199,1223,3.30602,-0.011718,0.307651,1.00731
201,1221,3.30616,-0.011729,0.307585,1.00732
203,1219,3.3066,-0.0123627,0.307581,1.00692
205,1217,3.30632,-0.0123475,0.307577,1.00692
207,1215,3.30605,-0.0123982,0.307569,1.00668
209,1213,3.30606,-0.0122939,0.307578,1.00697
211,1211,3.30675,-0.0122602,0.307157,1.00715
213,1209,3.30637,-0.0129055,0.307588,1.00663
215,1207,3.30593,-0.0128824,0.307696,1.00663
217,1205,3.30638,-0.0127736,0.307152,1.00683
219,1203,3.30593,-0.0129578,0.30758,1.00657
221,1201,3.30631,-0.0128865,0.307122,1.00677
223,1199,3.30576,-0.0129093,0.30755,1.00653
225,1197,3.30562,-0.0129751,0.307556,1.00649
227,1195,3.30586,-0.0128765,0.307532,1.00648
229,1193,3.30576,-0.0129233,0.307994,1.00644
231,1191,3.3057,-0.0133,0.307925,1.00598
233,1189,3.30516,-0.0135768,0.307938,1.00586
235,1187,3.3045,-0.0145476,0.308327,1.00627
237,1185,3.30533,-0.014687,0.307934,1.00641
239,1183,3.30441,-0.0148704,0.307923,1.00616
241,1181,3.30513,-0.0135261,0.307508,1.00601
243,1179,3.3049,-0.0150676,0.307939,1.0062
245,1177,3.30681,-0.0120848,0.306755,1.00586
247,1175,3.30657,-0.0127215,0.307267,1.00546
249,1173,3.30619,-0.0127626,0.307176,1.00541
251,1171,3.30598,-0.0127433,0.307176,1.00541
253,1169,3.30579,-0.0127668,0.307182,1.0054
255,1167,3.30596,-0.0129222,0.307191,1.00533
257,1165,3.30623,-0.011847,0.306775,1.00492
259,1163,3.30583,-0.0119011,0.306799,1.00492
261,1161,3.30555,-0.0124305,0.307441,1.00444
263,1159,3.30595,-0.0124425,0.306817,1.00315
265,1157,3.30592,-0.012413,0.306793,1.00459
267,1155,3.30556,-0.0124291,0.307013,1.00457
269,1153,3.30531,-0.0124132,0.306793,1.0046
271,1151,3.30572,-0.0130167,0.306786,1.0042
273,1149,3.3056,-0.0130231,0.306784,1.0042
275,1147,3.3053,-0.0130302,0.306782,1.00419
277,1145,3.30502,-0.0130594,0.306793,1.00419
279,1143,3.30531,-0.0136386,0.306803,1.00387
281,1141,3.30521,-0.0136334,0.306802,1.00389
283,1139,3.30684,-0.0106981,0.30565,1.0037
285,1137,3.30685,-0.0112108,0.305649,1.00338
287,1135,3.30684,-0.0111928,0.305721,1.00337
289,1133,3.30692,-0.0112597,0.305637,1.00332
291,1131,3.30663,-0.0111995,0.305627,1.00333
293,1129,3.30684,-0.0111903,0.305211,1.00351
295,1127,3.30661,-0.0112212,0.305636,1.00333
297,1125,3.30672,-0.0112992,0.305625,1.00327
299,1123,3.30669,-0.0118019,0.305617,1.00295
301,1121,3.30632,-0.0119009,0.305633,1.00291
303,1119,3.30647,-0.0118989,0.305636,1.00295
305,1117,3.30673,-0.0124227,0.305651,1.00265
307,1115,3.30661,-0.0124606,0.30611,1.00262
309,1113,3.3066,-0.0124493,0.305648,1.00264
311,1111,3.30625,-0.0124214,0.305863,1.00264
313,1109,3.30663,-0.0130108,0.305642,1.00226
315,1107,3.30664,-0.013003,0.305636,1.00227
317,1105,3.30674,-0.0129515,0.30563,1.00228
319,1103,3.30643,-0.012934,0.305632,1.00229
321,1101,3.30634,-0.0129775,0.305634,1.00226
323,1099,3.30672,-0.0135596,0.305636,1.00192
325,1097,3.30671,-0.0135378,0.305628,1.00192
327,1095,3.30825,-0.0106161,0.304479,1.00174
329,1093,3.30762,-0.0112373,0.304904,1.00121
331,1091,3.30817,-0.0111303,0.304496,1.00144
333,1089,3.30825,-0.0111224,0.304114,1.00142
335,1087,3.3082,-0.0111825,0.304483,1.0014
337,1085,3.30772,-0.0118278,0.304893,1.00107
339,1083,3.30781,-0.0117972,0.304891,1.00084
341,1081,3.30821,-0.011802,0.304477,1.00098
343,1079,3.308,-0.0117819,0.304475,1.00099
345,1077,3.30787,-0.0117875,0.304473,1.001
347,1075,3.30788,-0.0117963,0.304467,1.00098
349,1073,3.30801,-0.0123755,0.304564,1.00067
351,1071,3.30784,-0.0123394,0.304493,1.0007
353,1069,3.3078,-0.0123358,0.304492,1.00072
355,1067,3.30735,-0.0129996,0.304911,1.00016
357,1065,3.30723,-0.0130168,0.304917,1.00016
359,1063,3.30723,-0.013034,0.304912,1.00013
361,1061,3.30708,-0.0130261,0.304913,1.00014
363,1059,3.30725,-0.013591,0.304913,0.999786
365,1057,3.30708,-0.0136198,0.304914,0.999771
367,1055,3.30708,-0.0135819,0.304906,0.999792
369,1053,3.30682,-0.0135213,0.304903,0.999801
371,1051,3.30851,-0.0106425,0.303697,0.999559
373,1049,3.30831,-0.0111745,0.303827,0.999244
375,1047,3.30856,-0.0111158,0.303755,0.999299
377,1045,3.30859,-0.0111933,0.303758,0.999261
379,1043,3.30855,-0.011158,0.303758,0.99929
381,1041,3.30793,-0.0118103,0.304169,0.998711
383,1039,3.30789,-0.0117045,0.304174,0.998785
385,1037,3.30802,-0.0118347,0.304163,0.998678
387,1035,3.30788,-0.0118147,0.304163,0.998681
389,1033,3.30741,-0.0118723,0.304158,0.998619
391,1031,3.3074,-0.0118005,0.304147,0.998643
393,1029,3.30762,-0.0118914,0.304148,0.998582
395,1027,3.30749,-0.0124983,0.304158,0.998236
397,1025,3.30751,-0.0124142,0.304277,0.998325
399,1023,3.30704,-0.013067,0.304591,0.997787
401,1021,3.30703,-0.0130529,0.304588,0.997799
403,1019,3.3072,-0.0129961,0.304169,0.997992
405,1017,3.30712,-0.0130388,0.304172,0.997974
407,1015,3.30665,-0.0136608,0.304603,0.997448
409,1013,3.30648,-0.0136461,0.304586,0.997701
411,1011,3.30701,-0.0135492,0.304171,0.997667
413,1009,3.30689,-0.0135793,0.304161,0.997626
415,1007,3.30867,-0.0111485,0.302996,0.997055
417,1005,3.30833,-0.0111785,0.303,0.997039
419,1003,3.30846,-0.0112246,0.302999,0.996788
421,1001,3.30853,-0.0112173,0.303082,0.997048
423,999,3.30873,-0.0118487,0.303013,0.996681
425,997,3.30792,-0.0118859,0.303439,0.996514
427,995,3.3085,-0.0117147,0.303014,0.996764
429,993,3.30843,-0.0117908,0.303003,0.996687
431,991,3.30834,-0.0118321,0.302988,0.996624
433,989,3.30792,-0.0118707,0.30299,0.99661
435,987,3.3081,-0.0118612,0.302982,0.996581
437,985,3.30841,-0.012484,0.30298,0.9962
439,983,3.30831,-0.0125032,0.302976,0.996169
441,981,3.30806,-0.0124902,0.302985,0.996195
443,979,3.30792,-0.012496,0.302977,0.996175
445,977,3.30812,-0.012928,0.302971,0.995895
447,975,3.30809,-0.0129837,0.302976,0.99588
449,973,3.30816,-0.0130234,0.302972,0.995846
451,971,3.30796,-0.013051,0.302975,0.995835
453,969,3.30811,-0.0130281,0.302962,0.99583
455,967,3.30761,-0.0137224,0.30339,0.99524
457,965,3.30807,-0.0136246,0.302891,0.995456
459,963,3.30783,-0.0136591,0.30296,0.995428
461,961,3.30976,-0.0112104,0.3018,0.99487
463,959,3.30917,-0.0113015,0.302214,0.994658
465,957,3.3096,-0.0112312,0.301912,0.994852
467,955,3.30941,-0.0113084,0.302261,0.994826
469,953,3.3094,-0.0118863,0.301807,0.9945
471,951,3.30948,-0.0118429,0.301817,0.994551
473,949,3.30992,-0.0123873,0.301824,0.994234
475,947,3.30967,-0.0123888,0.301399,0.994229
477,945,3.30918,-0.0123354,0.301813,0.994234
479,943,3.30858,-0.0125293,0.302228,0.993955
481,941,3.30916,-0.012466,0.301816,0.994157
483,939,3.30891,-0.0131009,0.302221,0.993577
485,937,3.30859,-0.013104,0.302224,0.99359
487,935,3.30832,-0.0131181,0.302217,0.993577
489,933,3.30841,-0.0131109,0.302229,0.993604
491,931,3.30841,-0.0136695,0.302229,0.99328
493,929,3.3083,-0.0136778,0.30224,0.993301
495,927,3.31007,-0.0112803,0.301078,0.992712
497,925,3.30986,-0.0111584,0.301533,0.992788
499,923,3.30983,-0.0112002,0.301077,0.992754
501,921,3.30984,-0.0112415,0.301068,0.992715
503,919,3.30966,-0.0112332,0.30106,0.992706
505,917,3.30967,-0.0112331,0.301059,0.992927
507,915,3.3092,-0.0119346,0.301486,0.992118
509,913,3.3091,-0.0119184,0.301458,0.992077
511,911,3.30876,-0.0119355,0.301466,0.992072
513,909,3.30846,-0.0119644,0.301459,0.992043
515,907,3.30824,-0.0125956,0.301894,0.991531
517,905,3.30894,-0.0125116,0.301491,0.991812
519,903,3.30834,-0.0131775,0.301905,0.991235
521,901,3.30846,-0.0130749,0.301493,0.991458
523,899,3.30776,-0.0131675,0.301911,0.991238
525,897,3.30846,-0.0131229,0.301486,0.991409
527,895,3.30796,-0.013788,0.302357,0.99081
529,893,3.30807,-0.0136313,0.301474,0.989634
531,891,3.30728,-0.0137874,0.301891,0.990812
533,889,3.30766,-0.0136853,0.301476,0.991018
535,887,3.3093,-0.0114248,0.300719,0.99019
537,885,3.30921,-0.0114301,0.300722,0.990187
539,883,3.30959,-0.0113117,0.300525,0.990458
541,881,3.30918,-0.0118972,0.300736,0.989963
543,879,3.30912,-0.0119505,0.300747,0.989954
545,877,3.30949,-0.0125991,0.300759,0.989565
547,875,3.3091,-0.0125051,0.300746,0.98987
549,873,3.30882,-0.0125291,0.300744,0.989594
551,871,3.30905,-0.0125243,0.300741,0.989588
553,869,3.309,-0.0131183,0.300741,0.989232
555,867,3.30879,-0.0131819,0.30074,0.989175
557,865,3.30888,-0.0130815,0.300536,0.98939
559,863,3.30877,-0.0131682,0.30074,0.989184
561,861,3.30891,-0.0137696,0.300734,0.988809
563,859,3.30878,-0.013735,0.300737,0.988832
565,857,3.31018,-0.0107034,0.29957,0.988629
567,855,3.31042,-0.0112206,0.299573,0.988322
569,853,3.31049,-0.0112321,0.299566,0.988294
571,851,3.31065,-0.0112876,0.299565,0.988268
573,849,3.31042,-0.011887,0.299567,0.987887
575,847,3.30997,-0.0119826,0.299989,0.987683
577,845,3.31019,-0.0118876,0.29957,0.987901
579,843,3.31004,-0.0124831,0.299988,0.987384
581,841,3.31042,-0.0124666,0.299576,0.987545
583,839,3.31015,-0.012452,0.299568,0.987803
585,837,3.3098,-0.0131529,0.299924,0.986955
587,835,3.30975,-0.0131499,0.299989,0.987223
589,833,3.31014,-0.0130742,0.299563,0.98713
591,831,3.3097,-0.0137673,0.299979,0.986555
593,829,3.30929,-0.0137153,0.299977,0.986597
595,827,3.30929,-0.0137296,0.299976,0.986573
597,825,3.31159,-0.0106616,0.298392,0.986548
599,823,3.31113,-0.0112942,0.298804,0.986002
601,821,3.31078,-0.0112857,0.2988,0.985994
603,819,3.31088,-0.0112861,0.298798,0.985974
605,817,3.31102,-0.0114028,0.298799,0.985927
607,815,3.31085,-0.011954,0.298798,0.985563
609,813,3.3106,-0.0119626,0.298732,0.985567
611,811,3.31058,-0.0118753,0.298791,0.9856
613,809,3.31021,-0.0125898,0.29922,0.985022
615,807,3.31017,-0.0125598,0.299221,0.985058
617,805,3.31027,-0.0125464,0.298903,0.985188
619,803,3.30989,-0.0131486,0.299204,0.984674
621,801,3.30968,-0.0131472,0.299209,0.984672
623,799,3.31029,-0.0130972,0.298791,0.984866
625,797,3.30967,-0.0138215,0.299204,0.983995
627,795,3.30968,-0.0137376,0.298793,0.984456
629,793,3.30921,-0.0137874,0.299212,0.984268
631,791,3.31163,-0.0107235,0.297626,0.984232
633,789,3.31121,-0.0112984,0.29802,0.983677
635,787,3.31113,-0.0113576,0.298053,0.98371
637,785,3.31028,-0.011998,0.298462,0.983133
639,783,3.31054,-0.0119565,0.29847,0.983185
641,781,3.31051,-0.0120804,0.298467,0.983119
643,779,3.31032,-0.0125456,0.298545,0.982816
645,777,3.30998,-0.0125489,0.29847,0.982832
647,775,3.31025,-0.012562,0.298469,0.982814
649,773,3.30938,-0.0132973,0.298898,0.98222
651,771,3.30922,-0.0132464,0.298883,0.982236
653,769,3.30925,-0.0138729,0.298882,0.981844
655,767,3.30912,-0.0138691,0.298887,0.981846
657,765,3.30892,-0.0138884,0.298823,0.981837
659,763,3.31036,-0.0115396,0.298141,0.98108
661,761,3.31051,-0.0113649,0.29773,0.981607
663,759,3.31013,-0.0119989,0.298145,0.980805
665,757,3.31046,-0.0119601,0.297722,0.980963
667,755,3.3101,-0.0120665,0.298147,0.980776
669,753,3.30978,-0.0127865,0.29815,0.980337
671,751,3.30948,-0.0126769,0.29861,0.980402
673,749,3.30972,-0.0132942,0.298149,0.978495
675,747,3.30958,-0.0132316,0.298153,0.980054
677,745,3.30917,-0.0132373,0.29826,0.980039
679,743,3.30908,-0.0138941,0.298138,0.979612
681,741,3.30905,-0.0138748,0.298123,0.979584
683,739,3.30883,-0.0139597,0.2981,0.979478
685,737,3.30895,-0.0140254,0.298125,0.979461
687,735,3.30998,-0.0115779,0.297355,0.978962
689,733,3.3105,-0.0113981,0.296942,0.978973
691,731,3.31053,-0.0115517,0.296954,0.977627
693,729,3.31044,-0.0120501,0.29696,0.978629
695,727,3.30998,-0.0126922,0.297369,0.978076
697,725,3.3096,-0.0127379,0.297379,0.978048
699,723,3.31002,-0.0126948,0.297031,0.978235
701,721,3.30974,-0.0133866,0.297361,0.977613
703,719,3.30933,-0.0133904,0.297364,0.977623
705,717,3.30923,-0.0133825,0.297364,0.97763
707,715,3.30939,-0.0140542,0.297352,0.977172
709,713,3.31135,-0.0108689,0.296196,0.977087
711,711,3.31095,-0.0115087,0.296202,0.976678
713,709,3.3102,-0.0115813,0.296691,0.976509
715,707,3.3104,-0.0121532,0.296614,0.976133
717,705,3.31097,-0.0120956,0.296218,0.976396
719,703,3.31041,-0.0127548,0.296625,0.975803
721,701,3.31009,-0.0128315,0.29663,0.975776
723,699,3.31025,-0.0133138,0.296631,0.975466
725,697,3.30991,-0.0133538,0.296632,0.975446
727,695,3.30959,-0.0140281,0.297039,0.974866
729,693,3.30959,-0.0140254,0.296624,0.975015
731,691,3.30961,-0.0138918,0.296617,0.975074
733,689,3.31103,-0.0115922,0.295874,0.974261
735,687,3.31103,-0.0115781,0.295874,0.974281
737,685,3.3108,-0.0121545,0.295876,0.974177
739,683,3.31063,-0.0121643,0.295801,0.973908
741,681,3.31079,-0.0127906,0.295867,0.973515
743,679,3.31058,-0.0128151,0.295873,0.973503
745,677,3.31019,-0.0128055,0.295857,0.973483
747,675,3.31016,-0.0133456,0.295851,0.973118
749,673,3.31018,-0.0134078,0.295925,0.97309
751,671,3.30973,-0.014105,0.296266,0.972505
753,669,3.30925,-0.0141249,0.296266,0.972488
755,667,3.31113,-0.0115669,0.29511,0.973482
757,665,3.31111,-0.011846,0.295136,0.971883
759,663,3.31106,-0.0121799,0.295131,0.971678
761,661,3.31055,-0.0128864,0.295761,0.971105
763,659,3.31038,-0.0128259,0.29555,0.971128
765,657,3.3104,-0.01339,0.295547,0.970781
767,655,3.31012,-0.0133961,0.295549,0.970777
769,653,3.31011,-0.0140699,0.29554,0.970342
771,651,3.30985,-0.0140681,0.295539,0.970323
773,649,3.31127,-0.0115285,0.294788,0.969622
775,647,3.31112,-0.0116623,0.294791,0.96955
777,645,3.3111,-0.0122978,0.294785,0.969151
779,643,3.31086,-0.0122761,0.29435,0.969176
781,641,3.31096,-0.0128309,0.294794,0.968859
783,639,3.31065,-0.0135243,0.295228,0.96832
785,637,3.3107,-0.0134824,0.294806,0.968498
787,635,3.31004,-0.0140711,0.295223,0.967971
789,633,3.31194,-0.0110905,0.294136,0.967728
791,631,3.31196,-0.0115975,0.294069,0.967424
793,629,3.31132,-0.0122635,0.294479,0.966841
795,627,3.31092,-0.0122746,0.294488,0.966841
797,625,3.31105,-0.0128722,0.294475,0.96645
799,623,3.31084,-0.012871,0.294675,0.966452
801,621,3.31055,-0.013482,0.294475,0.966068
803,619,3.31004,-0.0134984,0.294897,0.965917
805,617,3.31007,-0.0142007,0.2949,0.965485
807,615,3.31147,-0.01168,0.294158,0.964785
809,613,3.31141,-0.0116407,0.293745,0.964974
811,611,3.31099,-0.0122629,0.294154,0.964409
813,609,3.3109,-0.0123699,0.294162,0.964373
815,607,3.31093,-0.0129412,0.294153,0.964007
817,605,3.31053,-0.0129175,0.294149,0.964018
819,603,3.30993,-0.0135914,0.294468,0.963453
821,601,3.30987,-0.0142803,0.294568,0.963003
823,599,3.31205,-0.0108879,0.292969,0.963112
825,597,3.31122,-0.0117429,0.293402,0.96245
827,595,3.31059,-0.011727,0.293809,0.962271
829,593,3.31062,-0.0124171,0.293804,0.96184
831,591,3.31039,-0.0124622,0.293802,0.961809
833,589,3.31001,-0.0130541,0.293797,0.96142
835,587,3.30957,-0.0136478,0.294222,0.960911
837,585,3.30997,-0.013568,0.293801,0.961116
839,583,3.30917,-0.0142915,0.294218,0.960515
841,581,3.31042,-0.0118666,0.293487,0.959731
843,579,3.31084,-0.0117412,0.293056,0.959962
845,577,3.31024,-0.0125576,0.293475,0.959289
847,575,3.31028,-0.012407,0.293038,0.959505
849,573,3.30974,-0.0130479,0.293932,0.95896
851,571,3.30983,-0.0136773,0.293464,0.958566
853,569,3.30961,-0.0136546,0.293445,0.958541
855,567,3.30865,-0.0138831,0.29388,0.958267
857,565,3.31073,-0.0112519,0.292906,0.957736
859,563,3.31021,-0.012001,0.293138,0.957163
861,561,3.31005,-0.0124841,0.293139,0.95687
863,559,3.30984,-0.0125712,0.293142,0.956604
865,557,3.31004,-0.0131029,0.293143,0.956511
867,555,3.30989,-0.0137315,0.293137,0.956104
869,553,3.30904,-0.0144669,0.293564,0.955503
871,551,3.31063,-0.0112628,0.292499,0.955307
873,549,3.31078,-0.0118728,0.292385,0.954934
875,547,3.31076,-0.0125141,0.292387,0.954546
877,545,3.31033,-0.0125532,0.292387,0.954528
879,543,3.30976,-0.0131433,0.29287,0.952506
881,541,3.31001,-0.0138696,0.292815,0.953604
883,539,3.30983,-0.0144324,0.292823,0.953298
885,537,3.31097,-0.0118202,0.292104,0.952639
887,535,3.31139,-0.0118913,0.291666,0.95274
889,533,3.31092,-0.0125038,0.292137,0.952151
891,531,3.30999,-0.0132175,0.292509,0.951602
893,529,3.3097,-0.0133181,0.292506,0.951529
895,527,3.31036,-0.0138866,0.292073,0.951311
897,525,3.30988,-0.0144602,0.292067,0.950953
899,523,3.31103,-0.0120054,0.291323,0.950156
901,521,3.31157,-0.011844,0.290874,0.950352
903,519,3.31092,-0.0125851,0.291304,0.949775
905,517,3.30999,-0.0133506,0.291726,0.94912
907,515,3.31028,-0.013948,0.291747,0.948811
909,513,3.30984,-0.0146696,0.292187,0.948262
911,511,3.31148,-0.0119675,0.291475,0.947737
913,509,3.31103,-0.01194,0.291001,0.947754
915,507,3.31105,-0.0125937,0.291003,0.947363
917,505,3.31094,-0.0132425,0.290996,0.946954
919,503,3.31036,-0.0132966,0.291107,0.946915
921,501,3.30978,-0.0139537,0.291433,0.946383
923,499,3.30958,-0.0145914,0.291434,0.946009
925,497,3.31095,-0.0103819,0.290245,0.945099
927,495,3.31011,-0.0119833,0.290865,0.94524
929,493,3.31004,-0.0126553,0.290601,0.944807
931,491,3.30966,-0.0117632,0.290673,0.944088
933,489,3.30844,-0.0141602,0.291535,0.943627
935,487,3.30833,-0.0147573,0.291546,0.943298
937,485,3.31009,-0.0164549,0.289924,0.942917
939,483,3.30929,-0.0106838,0.290366,0.942309
941,481,3.30906,-0.0176291,0.290361,0.942075
943,479,3.30936,-0.0166386,0.289935,0.94156
945,477,3.30882,-0.0156727,0.289926,0.940871
947,475,3.30995,-0.0131606,0.289183,0.940089
949,473,3.31028,-0.0105236,0.288322,0.939426
951,471,3.31016,-0.0111036,0.288516,0.939057
953,469,3.30919,-0.0134677,0.289177,0.938607
955,467,3.30936,-0.0189915,0.28874,0.938113
957,465,3.30951,-0.0179547,0.288316,0.937639
959,463,3.31104,-0.0153373,0.287141,0.937056
961,461,3.31072,-0.0143695,0.287207,0.936388
963,459,3.31064,-0.0150572,0.287151,0.935973
965,457,3.31051,-0.0139798,0.286719,0.93408
967,455,3.30953,-0.0162865,0.287568,0.935066
969,453,3.31189,-0.0112865,0.285527,0.934904
971,451,3.31114,-0.0104381,0.285534,0.934174
973,449,3.31113,-0.0111265,0.285534,0.933757
975,447,3.31035,-0.0117382,0.285943,0.9332
977,445,3.31061,-0.0189419,0.285996,0.932975
979,443,3.30987,-0.0197242,0.285949,0.932358
981,441,3.31101,-0.0105566,0.285207,0.931638
983,439,3.31187,-0.0143814,0.283942,0.931217
985,437,3.3112,-0.0150731,0.284371,0.930684
987,435,3.3101,-0.0173953,0.285221,0.930275
989,433,3.3106,-0.0146145,0.284367,0.929666
991,431,3.31229,-0.0120487,0.283196,0.92905
993,429,3.31117,-0.0143574,0.284036,0.928619
995,427,3.31115,-0.0126871,0.283605,0.928731
997,425,3.31099,-0.0134569,0.283604,0.927778
999,423,3.31042,-0.0125053,0.2836,0.927296
1001,421,3.31223,-0.00982784,0.282424,0.926746
1003,419,3.31169,-0.0170851,0.282423,0.926352
1005,417,3.31155,-0.0160155,0.281987,0.925813
1007,415,3.31063,-0.0167478,0.28241,0.925238
1009,413,3.30996,-0.0174325,0.282834,0.924697
1011,411,3.3101,-0.0164559,0.282415,0.924164
1013,409,3.3117,-0.0137334,0.281245,0.923642
1015,407,3.31057,-0.0161909,0.282091,0.923144
1017,405,3.31072,-0.0151386,0.281668,0.922649
1019,403,3.31071,-0.0141172,0.281242,0.922122
1021,401,3.30949,-0.0164983,0.282087,0.921688
1023,399,3.31196,-0.0105004,0.28007,0.922185
1025,397,3.31116,-0.0112725,0.28048,0.920222
1027,395,3.31056,-0.012854,0.280485,0.920552
1029,393,3.30976,-0.0119096,0.280898,0.919675
1031,391,3.30968,-0.0191543,0.28047,0.919448
1033,389,3.31053,-0.0173738,0.280162,0.918118
1035,387,3.31033,-0.0179365,0.280165,0.917802
1037,385,3.31022,-0.0185851,0.280169,0.917439
1039,383,3.30969,-0.0175799,0.280229,0.916777
1041,381,3.31119,-0.0149365,0.278998,0.916174
1043,379,3.31062,-0.0155645,0.279423,0.915668
1045,377,3.31056,-0.0145552,0.278995,0.915107
1047,375,3.3095,-0.0153447,0.279417,0.914502
1049,373,3.30899,-0.0143413,0.279417,0.913808
1051,371,3.31117,-0.0100068,0.277816,0.913083
1053,369,3.31065,-0.0106391,0.277811,0.912687
1055,367,3.30972,-0.0179738,0.278235,0.912173
1057,365,3.30953,-0.0177745,0.278244,0.911029
1059,363,3.30899,-0.0183092,0.278239,0.910696
1061,361,3.31018,-0.0157124,0.277495,0.909954
1063,359,3.31047,-0.0146798,0.277072,0.909433
1065,357,3.30954,-0.0153601,0.277497,0.908903
1067,355,3.30932,-0.0142975,0.277071,0.908385
1069,353,3.31078,-0.0116615,0.276323,0.907624
1071,351,3.31042,-0.0113347,0.276319,0.906527
1073,349,3.3098,-0.0120765,0.276319,0.906096
1075,347,3.30895,-0.0194545,0.27674,0.905531
1077,345,3.30903,-0.0183478,0.276303,0.905045
1079,343,3.31058,-0.015667,0.27514,0.904498
1081,341,3.31045,-0.0146306,0.274717,0.903944
1083,339,3.31038,-0.013671,0.274298,0.903373
1085,337,3.30975,-0.0143674,0.274716,0.902833
1087,335,3.31118,-0.0123587,0.273967,0.901704
1089,333,3.31092,-0.0181129,0.273552,0.901157
1091,331,3.31051,-0.018699,0.27355,0.900818
1093,329,3.30952,-0.0194652,0.27397,0.900242
1095,327,3.31171,-0.015091,0.272385,0.899496
1097,325,3.31118,-0.0146933,0.272374,0.898432
1099,323,3.31,-0.0155098,0.272794,0.897828
1101,321,3.3102,-0.0143643,0.272384,0.897358
1103,319,3.30953,-0.0151067,0.272797,0.896779
1105,317,3.31118,-0.0123901,0.271619,0.896191
1107,315,3.31099,-0.0130052,0.271625,0.895848
1109,313,3.31033,-0.0194457,0.271625,0.894757
1111,311,3.30983,-0.0201479,0.271993,0.894348
1113,309,3.3109,-0.0175561,0.270881,0.893602
1115,307,3.31095,-0.0164703,0.270466,0.893092
1117,305,3.31057,-0.0160579,0.270464,0.892055
1119,303,3.30933,-0.018551,0.271296,0.891609
1121,301,3.31162,-0.0124347,0.269649,0.890708
1123,299,3.31145,-0.0112689,0.268987,0.890239
1125,297,3.31031,-0.0138106,0.269708,0.889773
1127,295,3.3098,-0.0202865,0.269714,0.888699
1129,293,3.31144,-0.0175233,0.268538,0.888138
1131,291,3.3111,-0.0113355,0.268533,0.887757
1133,289,3.31043,-0.0171726,0.268537,0.887043
1135,287,3.30976,-0.0186109,0.268948,0.886062
1137,285,3.31131,-0.015917,0.268254,0.885485
1139,283,3.31123,-0.0131041,0.267373,0.884682
1141,281,3.31064,-0.0155715,0.267794,0.884689
1143,279,3.31,-0.015241,0.267795,0.883349
1145,277,3.31145,-0.0108035,0.266636,0.88247
1147,275,3.31171,-0.0114015,0.266222,0.88228
1149,273,3.31076,-0.0195631,0.266632,0.881376
1151,271,3.30975,-0.0202985,0.267043,0.880807
1153,269,3.31198,-0.0159347,0.265471,0.880046
1155,267,3.3114,-0.0183565,0.26588,0.879781
1157,265,3.31071,-0.0173114,0.265878,0.879104
1159,263,3.31043,-0.0170342,0.265877,0.877979
1161,261,3.31197,-0.0142362,0.264714,0.877427
1163,259,3.31088,-0.0149983,0.265124,0.87685
1165,257,3.31129,-0.0127657,0.264294,0.877246
1167,255,3.31019,-0.0204056,0.264718,0.875284
1169,253,3.31149,-0.010887,0.263959,0.874484
1171,251,3.31137,-0.0173646,0.264014,0.873608
1173,249,3.31053,-0.0180758,0.263965,0.873044
1175,247,3.31203,-0.0153459,0.262803,0.872209
1177,245,3.31138,-0.0160171,0.263212,0.87194
1179,243,3.31107,-0.0156299,0.26321,0.870862
1181,241,3.3101,-0.0163432,0.263203,0.870452
1183,239,3.31159,-0.0118799,0.262048,0.869568
1185,237,3.31157,-0.0108415,0.261634,0.869019
1187,235,3.31055,-0.0132472,0.262043,0.86877
1189,233,3.30963,-0.0130111,0.262605,0.867479
1191,231,3.31132,-0.0102338,0.261287,0.866892
1193,229,3.31015,-0.0108912,0.261699,0.866381
1195,227,3.30932,-0.0192764,0.262217,0.865398
1197,225,3.30925,-0.0182849,0.261691,0.864814
1199,223,3.31019,-0.0155511,0.260952,0.864101
1201,221,3.30966,-0.0151255,0.260947,0.863044
1203,219,3.3088,-0.0158938,0.261351,0.862458
1205,217,3.30858,-0.0148431,0.260933,0.861874
1207,215,3.31082,-0.0101352,0.259355,0.86122
1209,213,3.30951,-0.0187506,0.260182,0.860041
1211,211,3.30943,-0.0193512,0.259769,0.859847
1213,209,3.30877,-0.0182749,0.259802,0.859166
1215,207,3.31055,-0.0145405,0.258607,0.857837
1217,205,3.30992,-0.0152441,0.258613,0.857451
1219,203,3.3102,-0.0147645,0.258206,0.856568
1221,201,3.31162,-0.012071,0.257462,0.85585
1223,199,3.31056,-0.0134883,0.257872,0.854922
1225,197,3.3108,-0.0123393,0.257464,0.85443
1227,195,3.3097,-0.0207695,0.257872,0.853519
1229,193,3.31058,-0.0180556,0.257124,0.852755
1231,191,3.31072,-0.016995,0.256713,0.852187
1233,189,3.30965,-0.017769,0.257118,0.851613
1235,187,3.30861,-0.0191853,0.257519,0.850661
1237,185,3.31056,-0.0146008,0.255944,0.849922
1239,183,3.30991,-0.0152598,0.255945,0.849538
1241,181,3.30852,-0.0178447,0.256768,0.849107
1243,179,3.3101,-0.0139497,0.255704,0.847801
1245,177,3.30935,-0.0128996,0.255593,0.847093
1247,175,3.3087,-0.0124719,0.255601,0.844549
1249,173,3.30779,-0.0204874,0.256016,0.845428
1251,171,3.30932,-0.016566,0.254867,0.844453
1253,169,3.30932,-0.0153166,0.254445,0.843723
1255,167,3.3091,-0.0151167,0.254454,0.842583
1257,165,3.31044,-0.0122439,0.253295,0.842045
1259,163,3.31058,-0.0111035,0.252889,0.841504
1261,161,3.30988,-0.0126085,0.253297,0.840532
1263,159,3.309,-0.0132315,0.253281,0.840164
1265,157,3.3106,-0.0164749,0.252125,0.839125
1267,155,3.30976,-0.0171949,0.25253,0.838321
1269,153,3.30886,-0.0197385,0.252937,0.83807
1271,151,3.31048,-0.0158473,0.251784,0.836803
1273,149,3.30926,-0.0166234,0.252186,0.836219
1275,147,3.30884,-0.0155374,0.251778,0.835669
1277,145,3.30827,-0.0170169,0.252192,0.834737
1279,143,3.30963,-0.0130121,0.251031,0.833494
1281,141,3.30859,-0.0137647,0.251453,0.832971
1283,139,3.30789,-0.0205759,0.251453,0.831903
1285,137,3.30921,-0.0178387,0.250703,0.831115
1287,135,3.3093,-0.0166329,0.250291,0.830614
1289,133,3.3093,-0.0162374,0.249877,0.829667
1291,131,3.30768,-0.0189301,0.250694,0.829489
1293,129,3.30989,-0.0131468,0.249132,0.827789
1295,127,3.30996,-0.012621,0.248714,0.826682
1297,125,3.30874,-0.0134362,0.249125,0.826322
1299,123,3.31061,-0.0105827,0.247975,0.825746
1301,121,3.30891,-0.0121151,0.248792,0.824649
1303,119,3.30835,-0.01998,0.248788,0.824324
1305,117,3.30966,-0.0179672,0.24805,0.823176
1307,115,3.30858,-0.011439,0.248456,0.822619
1309,113,3.30794,-0.0183106,0.24847,0.821578
1311,111,3.30726,-0.0172284,0.248484,0.820909
1313,109,3.3089,-0.0131991,0.247306,0.819577
1315,107,3.30896,-0.0121823,0.246903,0.818995
1317,105,3.30858,-0.0135389,0.246891,0.818253
1319,103,3.30983,-0.0107315,0.246147,0.817479
1321,101,3.30953,-0.0193795,0.246146,0.816796
1323,99,3.30858,-0.0183854,0.246589,0.816005
1325,97,3.30815,-0.0179358,0.246139,0.814975
1327,95,3.3091,-0.0169843,0.245801,0.814368
1329,93,3.30773,-0.0184721,0.246215,0.813457
1331,91,3.30728,-0.019298,0.246118,0.813021
1333,89,3.30839,-0.0171015,0.245475,0.811916
1335,87,3.30797,-0.0139977,0.245068,0.811129
1337,85,3.30762,-0.013698,0.245059,0.809971
1339,83,3.30856,-0.0182259,0.244325,0.809258
1341,81,3.3091,-0.0176974,0.24391,0.808389
1343,79,3.3081,-0.0173496,0.243902,0.807261
1345,77,3.30961,-0.0163583,0.243155,0.80682
1347,75,3.30948,-0.0142312,0.242753,0.805491
1349,73,3.30854,-0.0167519,0.243612,0.805321
1351,71,3.30788,-0.0156554,0.243154,0.804613
1353,69,3.30847,-0.0153209,0.242813,0.803661
1355,67,3.30747,-0.0161161,0.243224,0.803094
1357,65,3.30717,-0.0139147,0.242807,0.801799
1359,63,3.30856,-0.0182608,0.241654,0.8013
1361,61,3.30823,-0.0179196,0.24165,0.800186
1363,59,3.30762,-0.0194886,0.24252,0.799262
1365,57,3.30949,-0.0146495,0.240507,0.798524
1367,55,3.30956,-0.0141242,0.240101,0.79767
1369,53,3.30778,-0.0157266,0.240913,0.796539
1371,51,3.30991,-0.0107754,0.239342,0.795819
1373,49,3.3087,-0.0198705,0.239755,0.794863
1375,47,3.30729,-0.0150753,0.240569,0.794468
1377,45,3.30706,-0.0138674,0.240153,0.79393
1379,43,3.30816,-0.0191808,0.239412,0.791342
1381,41,3.30835,-0.0149425,0.238583,0.791372
1383,39,3.30773,-0.0177619,0.238999,0.791103
1385,37,3.30909,-0.0154007,0.238245,0.790044
1387,35,3.30964,-0.0131679,0.237428,0.788897
1389,33,3.30756,-0.0159145,0.23866,0.788374
1391,31,3.30973,-0.0116999,0.237103,0.787275
1393,29,3.30847,-0.0125037,0.237508,0.786757
1395,27,3.30726,-0.0140643,0.237938,0.785862
1397,25,3.30866,-0.018869,0.236767,0.785151
1399,23,3.30791,-0.0181371,0.236747,0.784157
1401,21,3.30796,-0.0170581,0.236334,0.783268
1403,19,3.3093,-0.0148769,0.236038,0.782358
1405,17,3.30874,-0.0144097,0.23557,0.781288
1407,15,3.3086,-0.0133137,0.235162,0.780701
1409,13,3.30974,-0.0109614,0.234414,0.779634
1411,11,3.30833,-0.0137915,0.235225,0.779184
1413,9,3.30708,-0.0154066,0.235634,0.778236
1415,7,3.30691,-0.014108,0.235225,0.777743
1417,5,3.30765,-0.0195886,0.23489,0.776457
1419,3,3.30746,-0.0183903,0.234439,0.775871