File: hust_correlation_analysis/matrices/HUST_5-1_cycle_feature_matrix.csv
cycle_number,rul,voltage,current,capacity,charge_capacity
1,2509,3.3251,-0.00576148,0.291142,1.03657
4,2506,3.31297,-0.0076042,0.296573,1.03001
7,2503,3.31251,-0.00935993,0.296571,1.02907
10,2500,3.31307,-0.00696332,0.296108,1.02801
13,2497,3.31345,-0.00751508,0.295686,1.02793
16,2494,3.31334,-0.00877181,0.295685,1.02726
19,2491,3.31299,-0.00951002,0.296105,1.02667
22,2488,3.31284,-0.0100525,0.2961,1.02662
25,2485,3.31469,-0.0076623,0.294799,1.02573
28,2482,3.31385,-0.00822528,0.295221,1.02523
31,2479,3.3139,-0.0083067,0.295223,1.02519
34,2476,3.31379,-0.00883726,0.295224,1.02491
37,2473,3.31339,-0.00949165,0.29564,1.02435
40,2470,3.31285,-0.00952231,0.295644,1.02434
43,2467,3.31313,-0.0101925,0.295647,1.02399
46,2464,3.31293,-0.0101956,0.295655,1.02402
49,2461,3.31439,-0.00778661,0.294775,1.02318
52,2458,3.31454,-0.00828713,0.294354,1.02312
55,2455,3.31404,-0.00845039,0.294775,1.02284
58,2452,3.3141,-0.00898042,0.294784,1.02257
61,2449,3.31346,-0.00902173,0.294785,1.02257
64,2446,3.31378,-0.00960291,0.294781,1.02224
67,2443,3.31381,-0.00962079,0.294787,1.02225
70,2440,3.31295,-0.0102845,0.295198,1.02168
73,2437,3.31482,-0.00777692,0.294107,1.02111
76,2434,3.31478,-0.00788921,0.2939,1.02104
79,2431,3.31467,-0.00843962,0.293899,1.02074
82,2428,3.31423,-0.00847308,0.293894,1.02071
85,2425,3.31458,-0.00889653,0.293901,1.02051
88,2422,3.31463,-0.00906039,0.293907,1.02045
91,2419,3.31418,-0.00969911,0.294328,1.0199
94,2416,3.31421,-0.00959659,0.29411,1.02015
97,2413,3.31406,-0.0103494,0.294321,1.01954
100,2410,3.31518,-0.00728929,0.293016,1.01923
103,2407,3.31582,-0.00775712,0.292597,1.01919
106,2404,3.31577,-0.00772884,0.292599,1.01922
109,2401,3.31569,-0.00779046,0.292806,1.01918
112,2398,3.31521,-0.00845114,0.293019,1.01842
115,2395,3.31503,-0.00843142,0.293016,1.01863
118,2392,3.31466,-0.00914967,0.293439,1.01805
121,2389,3.31481,-0.00908621,0.293227,1.0183
124,2386,3.31451,-0.00975708,0.293438,1.01773
127,2383,3.31423,-0.00977849,0.293436,1.01771
130,2380,3.3148,-0.00971414,0.292824,1.01796
133,2377,3.31433,-0.0103857,0.293435,1.01739
136,2374,3.31405,-0.0103954,0.293436,1.01738
139,2371,3.31371,-0.0103624,0.29344,1.01741
142,2368,3.31602,-0.00775942,0.292138,1.01688
145,2365,3.3154,-0.00781081,0.292136,1.01684
148,2362,3.3158,-0.00848786,0.292127,1.01645
151,2359,3.31518,-0.00845166,0.292126,1.01648
154,2356,3.31531,-0.00846784,0.292648,1.01647
157,2353,3.31516,-0.00901576,0.292119,1.01616
160,2350,3.31522,-0.00904949,0.29212,1.01613
163,2347,3.31492,-0.00907596,0.292122,1.01612
166,2344,3.31537,-0.00968156,0.292119,1.0158
169,2341,3.3142,-0.009702,0.292535,1.01558
172,2338,3.31452,-0.00972573,0.292532,1.01555
175,2335,3.3141,-0.0102801,0.292527,1.01525
178,2332,3.31416,-0.0103552,0.292526,1.01519
181,2329,3.31575,-0.00717694,0.291224,1.01496
184,2326,3.31626,-0.00776566,0.291221,1.01464
187,2323,3.31583,-0.00783575,0.291221,1.01459
190,2320,3.3162,-0.00786677,0.291221,1.01459
193,2317,3.31525,-0.00847742,0.29164,1.01405
196,2314,3.31539,-0.00851685,0.29164,1.01403
199,2311,3.31507,-0.00852853,0.291642,1.01403
202,2308,3.31535,-0.00860196,0.291645,1.014
205,2305,3.31528,-0.00849041,0.291638,1.01429
208,2302,3.31525,-0.0091446,0.29164,1.01369
211,2299,3.31517,-0.00916809,0.291643,1.0137
214,2296,3.31488,-0.00913656,0.29164,1.0137
217,2293,3.31502,-0.00972016,0.291641,1.0134
220,2290,3.31512,-0.00970827,0.29164,1.01344
223,2287,3.31466,-0.0097789,0.291638,1.01335
226,2284,3.31458,-0.0103372,0.291634,1.01304
229,2281,3.31474,-0.0103519,0.291331,1.01306
232,2278,3.31434,-0.0104149,0.291642,1.01304
235,2275,3.31453,-0.0103652,0.291643,1.01306
238,2272,3.31436,-0.0103931,0.291657,1.01309
241,2269,3.31387,-0.0104848,0.292073,1.01281
244,2266,3.31589,-0.00732633,0.290772,1.01258
247,2263,3.31578,-0.00803254,0.290775,1.01222
250,2260,3.31591,-0.00803186,0.290783,1.01224
253,2257,3.31538,-0.00793958,0.290781,1.01228
256,2254,3.31553,-0.00798545,0.290776,1.01225
259,2251,3.31543,-0.00860743,0.290779,1.01192
262,2248,3.31543,-0.00867479,0.29078,1.01189
265,2245,3.31494,-0.00856813,0.29078,1.01195
268,2242,3.3153,-0.00863525,0.291307,1.01192
271,2239,3.31462,-0.00929593,0.291197,1.01134
274,2236,3.31494,-0.00920793,0.290774,1.01159
277,2233,3.31489,-0.00980364,0.290773,1.01127
280,2230,3.31474,-0.00982326,0.290775,1.01127
283,2227,3.3139,-0.0099158,0.291197,1.01102
286,2224,3.31467,-0.0104123,0.290777,1.01097
289,2221,3.31438,-0.0104479,0.290778,1.01094
292,2218,3.31459,-0.0104947,0.290779,1.01093
295,2215,3.31554,-0.00805506,0.289891,1.01008
298,2212,3.3163,-0.00797157,0.28948,1.01037
301,2209,3.31616,-0.0079756,0.289475,1.01035
304,2206,3.31623,-0.00858926,0.289475,1.01003
307,2203,3.31605,-0.0083771,0.289675,1.01014
310,2200,3.31629,-0.00857081,0.289473,1.01004
313,2197,3.31622,-0.00855282,0.289475,1.01004
316,2194,3.31564,-0.00923602,0.289891,1.00946
319,2191,3.31593,-0.00917959,0.288971,1.0097
322,2188,3.31533,-0.0098174,0.289896,1.00917
325,2185,3.31583,-0.00981315,0.289472,1.00937
328,2182,3.3156,-0.00978595,0.289424,1.00937
331,2179,3.31581,-0.00983272,0.29,1.00937
334,2176,3.31524,-0.0104326,0.289893,1.00884
337,2173,3.31517,-0.0105455,0.28989,1.00877
340,2170,3.31518,-0.0103923,0.28947,1.00905
343,2167,3.31641,-0.00733753,0.288585,1.00852
346,2164,3.31638,-0.00793155,0.288583,1.0082
349,2161,3.31629,-0.00799267,0.28858,1.00817
352,2158,3.31645,-0.00864194,0.288578,1.00809
355,2155,3.31625,-0.00864818,0.288583,1.00782
358,2152,3.31669,-0.00853405,0.288163,1.00809
361,2149,3.31597,-0.00923595,0.288579,1.00751
364,2146,3.31611,-0.00922372,0.288586,1.00753
367,2143,3.31601,-0.00916202,0.288586,1.00758
370,2140,3.31606,-0.00991604,0.288579,1.00715
373,2137,3.31624,-0.00976551,0.288159,1.00743
376,2134,3.31648,-0.00985027,0.288158,1.00739
379,2131,3.31592,-0.0105164,0.288579,1.00682
382,2128,3.31598,-0.010469,0.288161,1.00705
385,2125,3.31578,-0.0105233,0.288574,1.00681
388,2122,3.31752,-0.00794965,0.287271,1.00624
391,2119,3.31745,-0.00790641,0.287269,1.00626
394,2116,3.31771,-0.00790558,0.286854,1.00626
397,2113,3.3172,-0.00860434,0.287272,1.00589
400,2110,3.31721,-0.00853521,0.286853,1.00614
403,2107,3.31702,-0.00923393,0.287271,1.00556
406,2104,3.31676,-0.00920847,0.287267,1.00556
409,2101,3.31719,-0.00914626,0.286813,1.00582
412,2098,3.31651,-0.00921674,0.287271,1.00558
415,2095,3.31666,-0.00985576,0.28727,1.00521
418,2092,3.31644,-0.00985984,0.287267,1.00521
421,2089,3.31639,-0.00993129,0.287259,1.00516
424,2086,3.31648,-0.0105077,0.287263,1.00486
427,2083,3.31681,-0.0104075,0.286844,1.00511
430,2080,3.31834,-0.00792058,0.285949,1.00427
433,2077,3.31808,-0.0078449,0.285947,1.0043
436,2074,3.31803,-0.00793891,0.285949,1.00425
439,2071,3.31788,-0.00850837,0.285948,1.00394
442,2068,3.31811,-0.00856064,0.285953,1.00392
445,2065,3.31756,-0.00866066,0.285946,1.00385
448,2062,3.31757,-0.00920237,0.285944,1.00356
451,2059,3.31737,-0.0091761,0.285939,1.00357
454,2056,3.31763,-0.00919251,0.286144,1.00357
457,2053,3.31732,-0.00921093,0.285949,1.00357
460,2050,3.31745,-0.00921716,0.28595,1.00358
463,2047,3.31756,-0.00920933,0.285952,1.00357
466,2044,3.3171,-0.0098818,0.286368,1.00302
469,2041,3.31683,-0.00991878,0.286366,1.00278
472,2038,3.31714,-0.00986686,0.286465,1.00321
475,2035,3.31657,-0.0105264,0.286364,1.00266
478,2032,3.31664,-0.0105015,0.286359,1.00266
481,2029,3.31641,-0.010544,0.286361,1.00264
484,2026,3.31668,-0.0105563,0.286365,1.00265
487,2023,3.31819,-0.00793784,0.28506,1.00208
490,2020,3.31856,-0.0079759,0.285066,1.00209
493,2017,3.31825,-0.00798529,0.285065,1.00209
496,2014,3.31824,-0.00863581,0.285067,1.00173
499,2011,3.31783,-0.00868142,0.285059,1.0017
502,2008,3.31806,-0.00926713,0.285063,1.00139
505,2005,3.31805,-0.00924427,0.285062,1.0014
508,2002,3.31782,-0.00926492,0.285063,1.0014
511,1999,3.31803,-0.00986761,0.285066,1.00108
514,1996,3.31707,-0.00996706,0.28548,1.00082
517,1993,3.31712,-0.00995194,0.285482,1.00083
520,1990,3.31723,-0.0105324,0.285063,1.00071
523,1987,3.3171,-0.0105607,0.285061,1.0007
526,1984,3.31892,-0.00789868,0.283756,1.00016
529,1981,3.31934,-0.00798405,0.283754,1.00012
532,1978,3.31895,-0.00793478,0.283761,1.00015
535,1975,3.31918,-0.00794006,0.283761,1.00016
538,1972,3.31898,-0.00794764,0.28376,1.0004
541,1969,3.31836,-0.00865773,0.284179,0.99957
544,1966,3.31825,-0.00873562,0.284178,0.999518
547,1963,3.31816,-0.00935926,0.284691,0.99916
550,1960,3.31854,-0.00924846,0.283753,0.999419
553,1957,3.31798,-0.00992896,0.284184,0.998855
556,1954,3.31821,-0.00991984,0.284166,0.99886
559,1951,3.31802,-0.0099506,0.284164,0.998841
562,1948,3.31771,-0.00995878,0.284166,0.998839
565,1945,3.31833,-0.00982919,0.28375,0.999114
568,1942,3.31775,-0.0106143,0.284164,0.998478
571,1939,3.3196,-0.00736068,0.282852,0.998237
574,1936,3.31973,-0.00794272,0.283046,0.99791
577,1933,3.3191,-0.00799298,0.283257,0.997651
580,1930,3.31876,-0.00853888,0.283257,0.997356
583,1927,3.31895,-0.00862803,0.283257,0.997316
586,1924,3.31881,-0.0085505,0.282841,0.997562
589,1921,3.3186,-0.00923663,0.28325,0.996975
592,1918,3.31924,-0.00926875,0.283251,0.996952
595,1915,3.31878,-0.00925727,0.28325,0.996959
598,1912,3.31888,-0.0091685,0.282831,0.997195
601,1909,3.31922,-0.00980072,0.282828,0.996851
604,1906,3.31805,-0.00989703,0.283241,0.996587
607,1903,3.31816,-0.010508,0.28324,0.996254
610,1900,3.31912,-0.0121875,0.282697,0.996203
613,1897,3.3177,-0.0105114,0.283236,0.996244
616,1894,3.31865,-0.0104726,0.282823,0.996468
619,1891,3.3201,-0.00795724,0.28193,0.995641
622,1888,3.319,-0.0130124,0.282928,0.995755
625,1885,3.3194,-0.00835059,0.281929,0.995435
628,1882,3.31902,-0.00865734,0.282542,0.995056
631,1879,3.31919,-0.00861572,0.28193,0.995279
634,1876,3.31821,-0.0134405,0.282927,0.995538
637,1873,3.31982,-0.00856289,0.281517,0.995518
640,1870,3.31878,-0.00932343,0.282347,0.994702
643,1867,3.31943,-0.00924564,0.282129,0.994948
646,1864,3.31911,-0.00925217,0.28193,0.994939
649,1861,3.31851,-0.0099431,0.282345,0.994368
652,1858,3.3181,-0.00987477,0.282435,0.994402
655,1855,3.31845,-0.010584,0.282344,0.994024
658,1852,3.31791,-0.0106443,0.282344,0.993995
661,1849,3.31845,-0.0105571,0.28145,0.994497
664,1846,3.31879,-0.0106189,0.281934,0.99422
667,1843,3.32043,-0.00731035,0.28063,0.994034
670,1840,3.32002,-0.00793909,0.280823,0.993489
673,1837,3.32028,-0.0078957,0.28063,0.99372
676,1834,3.31948,-0.00867361,0.281456,0.992882
679,1831,3.31898,-0.00868855,0.28104,0.993077
682,1828,3.31971,-0.00927381,0.281039,0.992766
685,1825,3.31976,-0.00921375,0.28104,0.992796
688,1822,3.31948,-0.00931572,0.281041,0.99274
691,1819,3.31893,-0.0099443,0.281454,0.992194
694,1816,3.31937,-0.00986737,0.281039,0.992433
697,1813,3.31879,-0.0100179,0.281454,0.992158
700,1810,3.31839,-0.0106128,0.281449,0.99183
703,1807,3.31895,-0.0105388,0.281036,0.992079
706,1804,3.32056,-0.00734592,0.27973,0.992069
709,1801,3.32031,-0.00799349,0.280143,0.991256
712,1798,3.32041,-0.0083311,0.280141,0.991075
715,1795,3.32072,-0.00825138,0.279727,0.991316
718,1792,3.32009,-0.00862418,0.280142,0.990901
721,1789,3.32033,-0.0084935,0.279732,0.991202
724,1786,3.31946,-0.00859735,0.280229,0.99094
727,1783,3.31976,-0.00862977,0.280146,0.990918
730,1780,3.32002,-0.00872644,0.280089,0.990875
733,1777,3.31848,-0.0141319,0.281139,0.990789
736,1774,3.31837,-0.014827,0.281555,0.990213
739,1771,3.31935,-0.00996745,0.280138,0.990173
742,1768,3.31921,-0.0100321,0.280137,0.99015
745,1765,3.31872,-0.0106186,0.280555,0.989633
748,1762,3.31925,-0.0100829,0.280142,0.990125
751,1759,3.31859,-0.010683,0.280558,0.989609
754,1756,3.32082,-0.00801418,0.27925,0.989066
757,1753,3.32071,-0.00810604,0.279247,0.988988
760,1750,3.32017,-0.00868542,0.279248,0.988693
763,1747,3.32044,-0.00863393,0.279248,0.988725
766,1744,3.32056,-0.00860925,0.278837,0.988945
769,1741,3.32026,-0.00931736,0.279449,0.988367
772,1738,3.32027,-0.00927126,0.279253,0.98817
775,1735,3.3198,-0.00939584,0.279255,0.988334
778,1732,3.31934,-0.010033,0.279668,0.987781
781,1729,3.31956,-0.0099705,0.279102,0.988023
784,1726,3.31959,-0.0107106,0.279669,0.987429
787,1723,3.31987,-0.0104977,0.279254,0.987742
790,1720,3.31909,-0.0106698,0.279672,0.987461
793,1717,3.31876,-0.0106084,0.279673,0.987488
796,1714,3.32092,-0.00804256,0.278369,0.986904
799,1711,3.32073,-0.00807835,0.278368,0.986874
802,1708,3.3207,-0.00868856,0.278365,0.986535
805,1705,3.32078,-0.00927479,0.27836,0.986219
808,1702,3.32039,-0.00931134,0.278363,0.986192
811,1699,3.3198,-0.00946525,0.278782,0.985939
814,1696,3.31965,-0.0100698,0.278787,0.985623
817,1693,3.31996,-0.0101393,0.279309,0.985603
820,1690,3.32017,-0.0100254,0.278374,0.985855
823,1687,3.31968,-0.0107817,0.278788,0.985056
826,1684,3.32123,-0.0080677,0.277476,0.984705
829,1681,3.32127,-0.00810953,0.277473,0.984667
832,1678,3.321,-0.00868263,0.277466,0.984363
835,1675,3.32158,-0.00865085,0.277056,0.984562
838,1672,3.32129,-0.00939857,0.27747,0.983956
841,1669,3.32023,-0.00940256,0.277885,0.983763
844,1666,3.31967,-0.0101299,0.278299,0.983429
847,1663,3.31968,-0.01006,0.278298,0.983204
850,1660,3.32005,-0.0100837,0.277883,0.983388
853,1657,3.31991,-0.0106415,0.27788,0.98308
856,1654,3.32002,-0.0106542,0.27788,0.983338
859,1651,3.32166,-0.00805755,0.27657,0.982475
862,1648,3.3211,-0.00808843,0.276985,0.98225
865,1645,3.32101,-0.00878868,0.276985,0.981871
868,1642,3.321,-0.00876349,0.276981,0.981875
871,1639,3.32075,-0.00873146,0.277176,0.981893
874,1636,3.32028,-0.0095338,0.277247,0.981279
877,1633,3.32036,-0.00942645,0.277395,0.981311
880,1630,3.31995,-0.00940999,0.277394,0.981319
883,1627,3.32037,-0.0100516,0.277474,0.980981
886,1624,3.32058,-0.0100759,0.276973,0.981404
889,1621,3.31994,-0.0107012,0.277387,0.980615
892,1618,3.31935,-0.0107081,0.277389,0.980605
895,1615,3.31939,-0.0107796,0.277389,0.980584
898,1612,3.32159,-0.00817349,0.27608,0.97998
901,1609,3.32108,-0.00814231,0.2765,0.979816
904,1606,3.32104,-0.00886711,0.276496,0.979412
907,1603,3.32073,-0.00877368,0.276496,0.979453
910,1600,3.32114,-0.00877396,0.276079,0.979419
913,1597,3.32059,-0.00944668,0.276494,0.979088
916,1594,3.32109,-0.0094339,0.276422,0.979297
919,1591,3.31955,-0.0101709,0.276908,0.978506
922,1588,3.31975,-0.010199,0.276911,0.978495
925,1585,3.32007,-0.0101534,0.276495,0.97873
928,1582,3.31984,-0.0108866,0.276908,0.978108
931,1579,3.32114,-0.00821085,0.275592,0.977533
934,1576,3.32121,-0.00884369,0.27559,0.97718
937,1573,3.3212,-0.00881285,0.275593,0.977212
940,1570,3.32142,-0.00882282,0.275175,0.977401
943,1567,3.32127,-0.00949145,0.275593,0.976848
946,1564,3.32076,-0.00946383,0.275592,0.976862
949,1561,3.32019,-0.010191,0.276006,0.976282
952,1558,3.32031,-0.0100473,0.276012,0.976377
955,1555,3.3208,-0.0101476,0.275593,0.976503
958,1552,3.32224,-0.00744687,0.274797,0.975927
961,1549,3.32166,-0.00810545,0.274694,0.975368
964,1546,3.32135,-0.00815841,0.274695,0.97536
967,1543,3.32164,-0.0082574,0.274695,0.975304
970,1540,3.32143,-0.00884787,0.274698,0.974994
973,1537,3.32131,-0.00887041,0.274698,0.974981
976,1534,3.32034,-0.00968496,0.27553,0.974148
979,1531,3.32054,-0.00961735,0.275115,0.974394
982,1528,3.32084,-0.00960615,0.275113,0.974396
985,1525,3.32035,-0.0101266,0.275631,0.974101
988,1522,3.31978,-0.0109725,0.275524,0.97345
991,1519,3.31969,-0.0109321,0.275521,0.973461
994,1516,3.32186,-0.00823514,0.274008,0.972872
997,1513,3.32188,-0.00821096,0.273787,0.973081
1000,1510,3.3212,-0.00891978,0.274202,0.972508
1003,1507,3.3214,-0.00893936,0.274202,0.972493
1006,1504,3.32144,-0.007792,0.273781,0.972023
1009,1501,3.32071,-0.0136089,0.273974,0.971228
1012,1498,3.32076,-0.00850353,0.273776,0.971634
1015,1495,3.3211,-0.0141727,0.273555,0.971112
1018,1492,3.32057,-0.0157891,0.273777,0.971324
1021,1489,3.32195,-0.0109559,0.272466,0.97063
1024,1486,3.32193,-0.0115685,0.272467,0.970299
1027,1483,3.32214,-0.0115783,0.272464,0.970294
1030,1480,3.32177,-0.0138372,0.272878,0.97015
1033,1477,3.32102,-0.0126587,0.272875,0.969758
1036,1474,3.32064,-0.016531,0.273074,0.969452
1039,1471,3.32114,-0.0118359,0.272459,0.968879
1042,1468,3.32108,-0.0121317,0.272979,0.968726
1045,1465,3.32035,-0.0153105,0.273297,0.969181
1048,1462,3.32087,-0.0126279,0.272466,0.968475
1051,1459,3.32279,-0.00752928,0.270932,0.968105
1054,1456,3.32192,-0.00989305,0.271567,0.967723
1057,1453,3.32175,-0.00996108,0.272087,0.967701
1060,1450,3.32175,-0.0106331,0.271568,0.967333
1063,1447,3.32206,-0.00722523,0.270743,0.967014
1066,1444,3.32171,-0.00954752,0.271154,0.96683
1069,1441,3.3218,-0.00953957,0.271157,0.966857
1072,1438,3.32124,-0.00855775,0.271156,0.966118
1075,1435,3.3209,-0.0103174,0.271574,0.96626
1078,1432,3.32102,-0.0103302,0.271571,0.96624
1081,1429,3.32071,-0.0109381,0.271571,0.965921
1084,1426,3.32225,-0.00666661,0.270257,0.964913
1087,1423,3.32315,-0.00658311,0.269619,0.965343
1090,1420,3.32256,-0.0122097,0.269433,0.964661
1093,1417,3.32156,-0.0146674,0.270256,0.964229
1096,1414,3.32187,-0.014736,0.270255,0.964196
1099,1411,3.32207,-0.0128631,0.269434,0.964311
1102,1408,3.32096,-0.0154187,0.270668,0.963634
1105,1405,3.32152,-0.00864639,0.270254,0.963845
1108,1402,3.32122,-0.00929683,0.270746,0.963309
1111,1399,3.3203,-0.0161219,0.270859,0.963265
1114,1396,3.32297,-0.0116112,0.268527,0.962751
1117,1393,3.32255,-0.010562,0.268527,0.962049
1120,1390,3.32189,-0.0139883,0.269866,0.962377
1123,1387,3.32242,-0.0105961,0.268525,0.962026
1126,1384,3.32186,-0.0128843,0.26912,0.961866
1129,1381,3.32198,-0.012986,0.268934,0.961813
1132,1378,3.32165,-0.0119196,0.268935,0.961128
1135,1375,3.32133,-0.0119501,0.268934,0.961049
1138,1372,3.32105,-0.0143169,0.269861,0.960921
1141,1369,3.32124,-0.012702,0.268927,0.960683
1144,1366,3.32276,-0.0100092,0.268026,0.95991
1147,1363,3.32315,-0.00990149,0.267617,0.960155
1150,1360,3.32286,-0.00726462,0.267204,0.959214
1153,1357,3.32222,-0.0106089,0.268019,0.959565
1156,1354,3.32267,-0.00723573,0.267202,0.959215
1159,1351,3.3216,-0.00971065,0.268024,0.958793
1162,1348,3.32235,-0.00790609,0.267201,0.958861
1165,1345,3.32138,-0.00865416,0.267604,0.958259
1168,1342,3.32193,-0.00856622,0.267193,0.958483
1171,1339,3.32144,-0.00898285,0.267604,0.95808
1174,1336,3.32292,-0.0127117,0.266289,0.957666
1177,1333,3.32307,-0.0133436,0.266294,0.957332
1180,1330,3.32187,-0.0166154,0.266924,0.957418
1183,1327,3.32228,-0.014421,0.266891,0.956579
1186,1324,3.32221,-0.0123341,0.266289,0.956596
1189,1321,3.32216,-0.0130598,0.266289,0.956213
1192,1318,3.32122,-0.0169521,0.266921,0.955964
1195,1315,3.32336,-0.0119122,0.265207,0.955545
1198,1312,3.32177,-0.0123121,0.265881,0.955525
1201,1309,3.32125,-0.0109742,0.265881,0.95497
1204,1306,3.3236,-0.00927158,0.264573,0.955118
1207,1303,3.32227,-0.0150169,0.266021,0.954797
1210,1300,3.32333,-0.0116163,0.264976,0.954942
1213,1297,3.322,-0.0153931,0.266019,0.954594
1216,1294,3.32159,-0.0143382,0.266017,0.953878
1219,1291,3.32214,-0.0126319,0.265201,0.953889
1222,1288,3.32137,-0.013366,0.265606,0.953306
1225,1285,3.32342,-0.0105517,0.264297,0.952771
1228,1282,3.3227,-0.017478,0.264707,0.952515
1231,1279,3.32305,-0.017369,0.2643,0.95275
1234,1276,3.32225,-0.0180407,0.264706,0.952216
1237,1273,3.32219,-0.0180788,0.264707,0.952197
1240,1270,3.32222,-0.0170378,0.26418,0.95166
1243,1267,3.32331,-0.0119137,0.263254,0.951461
1246,1264,3.32167,-0.0170945,0.264297,0.951618
1249,1261,3.32179,-0.0176698,0.264296,0.951306
1252,1258,3.32171,-0.016031,0.263894,0.951099
1255,1255,3.32227,-0.0113129,0.263253,0.950514
1258,1252,3.32277,-0.013031,0.263258,0.950895
1261,1249,3.32201,-0.0137211,0.26374,0.950343
1264,1246,3.32191,-0.013783,0.263667,0.950315
1267,1243,3.32184,-0.0126893,0.263256,0.949584
1270,1240,3.32371,-0.00935475,0.261951,0.94955
1273,1237,3.32328,-0.00826506,0.261947,0.948844
1276,1234,3.32345,-0.00728984,0.261545,0.948286
1279,1231,3.32286,-0.00897758,0.261949,0.948486
1282,1228,3.32371,-0.00722055,0.261152,0.948549
1285,1225,3.32282,-0.0079795,0.261954,0.947754
1288,1222,3.32309,-0.0146247,0.261552,0.948018
1291,1219,3.32275,-0.00961577,0.262138,0.948176
1294,1216,3.32235,-0.00859784,0.261956,0.947442
1297,1213,3.32214,-0.00870136,0.261956,0.947368
1300,1210,3.32178,-0.0161002,0.261956,0.947052
1303,1207,3.32376,-0.0133525,0.261094,0.946492
1306,1204,3.32365,-0.0134335,0.260652,0.946465
1309,1201,3.32346,-0.0123495,0.260653,0.945775
1312,1198,3.32308,-0.0141108,0.261054,0.945925
1315,1195,3.32288,-0.0123606,0.260655,0.94577
1318,1192,3.32272,-0.0131109,0.261062,0.945212
1321,1189,3.32241,-0.014806,0.261057,0.945573
1324,1186,3.32264,-0.0103735,0.260254,0.944466
1327,1183,3.32231,-0.0127651,0.260649,0.944284
1330,1180,3.32241,-0.00924098,0.25985,0.942636
1333,1177,3.32425,-0.0083037,0.258946,0.943536
1336,1174,3.32336,-0.00835652,0.259494,0.943329
1339,1171,3.32376,-0.00828429,0.25902,0.943347
1342,1168,3.32326,-0.0107629,0.259745,0.943123
1345,1165,3.32293,-0.00797486,0.259348,0.942262
1348,1162,3.32314,-0.00795455,0.258896,0.942447
1351,1159,3.32222,-0.0154306,0.259338,0.941884
1354,1156,3.32212,-0.0142945,0.258937,0.941395
1357,1153,3.32224,-0.0161286,0.259339,0.941521
1360,1150,3.32327,-0.0128204,0.258433,0.941067
1363,1147,3.32387,-0.0134035,0.258034,0.940988
1366,1144,3.32394,-0.00668366,0.258034,0.940906
1369,1141,3.32278,-0.0140798,0.258432,0.9404
1372,1138,3.32338,-0.0140506,0.258031,0.940602
1375,1135,3.32245,-0.0148021,0.258429,0.940013
1378,1132,3.32274,-0.0120299,0.258027,0.939108
1381,1129,3.32309,-0.0120199,0.257624,0.939524
1384,1126,3.3225,-0.0109852,0.257628,0.938555
1387,1123,3.32217,-0.0126425,0.258024,0.938759
1390,1120,3.32398,-0.0082861,0.256894,0.937772
1393,1117,3.32362,-0.00837741,0.256718,0.937717
1396,1114,3.32366,-0.00896055,0.256719,0.937423
1399,1111,3.32325,-0.0125491,0.257384,0.937708
1402,1108,3.32265,-0.011521,0.257515,0.936975
1405,1105,3.32264,-0.0154898,0.256712,0.936283
1408,1102,3.32207,-0.0144262,0.256714,0.935565
1411,1099,3.32187,-0.0144289,0.256714,0.935567
1414,1096,3.3238,-0.0116487,0.255408,0.935004
1417,1093,3.3237,-0.0134322,0.255806,0.935168
1420,1090,3.3234,-0.0135034,0.255805,0.93513
1423,1087,3.32269,-0.0141164,0.256203,0.93463
1426,1084,3.32331,-0.0140726,0.255804,0.935058
1429,1081,3.32271,-0.0131475,0.2558,0.934026
1432,1078,3.32241,-0.0127918,0.255799,0.93294
1435,1075,3.32256,-0.0119589,0.25591,0.933567
1438,1072,3.32169,-0.0144103,0.2562,0.933187
1441,1069,3.32144,-0.0127911,0.256198,0.932752
1444,1066,3.32182,-0.0127699,0.255803,0.932958
1447,1063,3.32367,-0.010117,0.254892,0.93214
1450,1060,3.32298,-0.0101333,0.254893,0.932127
1453,1057,3.32232,-0.012442,0.255687,0.931586
1456,1054,3.32271,-0.0108171,0.254889,0.93177
1459,1051,3.3227,-0.00971688,0.254492,0.931262
1462,1048,3.32246,-0.0102882,0.254888,0.93076
1465,1045,3.32244,-0.00855485,0.254493,0.930574
1468,1042,3.32182,-0.0128823,0.255687,0.930323
1471,1039,3.32117,-0.0146666,0.256086,0.930485
1474,1036,3.32295,-0.00942043,0.254376,0.930094
1477,1033,3.32286,-0.0083818,0.254377,0.929356
1480,1030,3.32235,-0.00915774,0.254772,0.927348
1483,1027,3.32254,-0.00989361,0.254372,0.928571
1486,1024,3.32156,-0.0149794,0.25437,0.928227
1489,1021,3.32185,-0.0137709,0.25397,0.92801
1492,1018,3.32217,-0.015502,0.25397,0.928138
1495,1015,3.32153,-0.00931937,0.254368,0.92758
1498,1012,3.32107,-0.00947795,0.254763,0.927301
1501,1009,3.32248,-0.013565,0.253453,0.927003
1504,1006,3.32325,-0.00655138,0.253052,0.926979
1507,1003,3.322,-0.0143027,0.25385,0.924648
1510,1000,3.32168,-0.0149471,0.253847,0.925842
1513,997,3.32166,-0.0132676,0.253446,0.9256
1516,994,3.3209,-0.0138382,0.253841,0.925123
1519,991,3.32103,-0.0128178,0.253442,0.924546
1522,988,3.32106,-0.0146022,0.253838,0.924703
1525,985,3.32219,-0.0119457,0.252925,0.923879
1528,982,3.32188,-0.0101897,0.252926,0.923503
1531,979,3.3216,-0.0126646,0.253323,0.923311
1534,976,3.32191,-0.0124747,0.252928,0.922178
1537,973,3.32102,-0.0133559,0.253728,0.922783
1540,970,3.32053,-0.0151482,0.25413,0.922949
1543,967,3.3204,-0.0140773,0.253725,0.922402
1546,964,3.32009,-0.0113066,0.253319,0.921441
1549,961,3.32094,-0.0133105,0.253086,0.921313
1552,958,3.32184,-0.00883075,0.252004,0.92071
1555,955,3.32079,-0.0122031,0.252683,0.920791
1558,952,3.3219,-0.00735068,0.251606,0.920368
1561,949,3.32019,-0.0134273,0.253081,0.919737
1564,946,3.32066,-0.0102822,0.252401,0.919761
1567,943,3.32104,-0.017984,0.252172,0.919022
1570,940,3.3205,-0.0168458,0.252169,0.918572
1573,937,3.32086,-0.0174259,0.252274,0.918215
1576,934,3.3203,-0.015745,0.251768,0.917786
1579,931,3.3202,-0.0181155,0.252166,0.917666
1582,928,3.31954,-0.0190441,0.252565,0.916999
1585,925,3.32156,-0.017225,0.251253,0.917455
1588,922,3.32114,-0.016205,0.251317,0.91642
1591,919,3.32026,-0.0134635,0.251252,0.915277
1594,916,3.31988,-0.0159001,0.251648,0.915124
1597,913,3.32037,-0.0139998,0.250848,0.915185
1600,910,3.3197,-0.0147195,0.251246,0.914629
1603,907,3.31932,-0.0136526,0.251243,0.91414
1606,904,3.32153,-0.0119572,0.250117,0.914025
1609,901,3.32122,-0.0109546,0.249933,0.913255
1612,898,3.32033,-0.0134975,0.250729,0.912856
1615,895,3.32047,-0.0116438,0.250281,0.912709
1618,892,3.31951,-0.0194264,0.250899,0.912151
1621,889,3.31987,-0.0130525,0.25073,0.911816
1624,886,3.31935,-0.0148948,0.251133,0.911975
1627,883,3.3192,-0.0138082,0.250728,0.911426
1630,880,3.3207,-0.017326,0.249414,0.911209
1633,877,3.32035,-0.0162812,0.249415,0.91047
1636,874,3.31962,-0.0188526,0.250217,0.910086
1639,871,3.31951,-0.0177009,0.249815,0.909571
1642,868,3.319,-0.0160167,0.249817,0.909148
1645,865,3.31968,-0.014629,0.249526,0.909141
1648,862,3.31919,-0.0136862,0.249525,0.908332
1651,859,3.31884,-0.011503,0.249124,0.907072
1654,856,3.32075,-0.00870962,0.248307,0.90646
1657,853,3.32101,-0.00861837,0.247407,0.906709
1660,850,3.32031,-0.00929019,0.247808,0.906189
1663,847,3.32008,-0.00826578,0.247872,0.905428
1666,844,3.31943,-0.0100792,0.24821,0.905612
1669,841,3.3192,-0.00898878,0.24821,0.904876
1672,838,3.31837,-0.0167287,0.248211,0.904583
1675,835,3.32012,-0.013973,0.247292,0.903762
1678,832,3.32005,-0.0129687,0.24689,0.903164
1681,829,3.31958,-0.014742,0.247286,0.903372
1684,826,3.31954,-0.00832702,0.247286,0.903008
1687,823,3.31911,-0.00905144,0.247686,0.902457
1690,820,3.31871,-0.0168557,0.247852,0.902127
1693,817,3.32084,-0.0114429,0.245963,0.901721
1696,814,3.31997,-0.0121891,0.24636,0.901159
1699,811,3.31959,-0.0128942,0.246362,0.900821
1702,808,3.31928,-0.0118743,0.246361,0.900051
1705,805,3.31916,-0.0107206,0.245956,0.899514
1708,802,3.31882,-0.0166442,0.245558,0.899037
1711,799,3.32061,-0.00669956,0.24482,0.89823
1714,796,3.31977,-0.00863321,0.245433,0.898158
1717,793,3.31902,-0.00759442,0.245434,0.897399
1720,790,3.31889,-0.0100684,0.245834,0.897266
1723,787,3.31823,-0.0108388,0.246235,0.89669
1726,784,3.31803,-0.00976679,0.246235,0.895936
1729,781,3.32018,-0.00613711,0.244509,0.895908
1732,778,3.31968,-0.014012,0.244505,0.895588
1735,775,3.31912,-0.0147329,0.244902,0.895024
1738,772,3.31824,-0.0155577,0.245805,0.894427
1741,769,3.31759,-0.0163769,0.245701,0.89384
1744,766,3.31927,-0.0165809,0.245194,0.893726
1747,763,3.31941,-0.014189,0.244372,0.892899
1750,760,3.31948,-0.012324,0.243971,0.892728
1753,757,3.31749,-0.0184717,0.245491,0.892413
1756,754,3.31812,-0.013936,0.244774,0.891556
1759,751,3.31765,-0.0127483,0.244374,0.891063
1762,748,3.31691,-0.0154395,0.245179,0.890649
1765,745,3.31898,-0.0117875,0.243849,0.890412
1768,742,3.31878,-0.0105772,0.243446,0.889928
1771,739,3.31818,-0.0113463,0.243847,0.889354
1774,736,3.31773,-0.00845248,0.243445,0.8884
1777,733,3.31731,-0.0128771,0.244253,0.888432
1780,730,3.31699,-0.0117921,0.244252,0.887674
1783,727,3.31926,-0.00804168,0.242519,0.887642
1786,724,3.31844,-0.00772561,0.24292,0.886365
1789,721,3.31817,-0.00845759,0.242923,0.886024
1792,718,3.31781,-0.00924382,0.242919,0.885633
1795,715,3.31669,-0.0172045,0.243318,0.885137
1798,712,3.31879,-0.0116996,0.241584,0.884695
1801,709,3.31794,-0.0144566,0.242391,0.88405
1804,706,3.31779,-0.0151122,0.242389,0.88395
1807,703,3.31747,-0.0140995,0.242392,0.883166
1810,700,3.31685,-0.0147001,0.24239,0.882876
1813,697,3.31645,-0.0155378,0.242789,0.882269
1816,694,3.31668,-0.0181877,0.242996,0.88169
1819,691,3.3181,-0.00955919,0.24105,0.880771
1822,688,3.31713,-0.00996529,0.241453,0.880384
1825,685,3.3164,-0.0110633,0.241853,0.879649
1828,682,3.31667,-0.0130147,0.241855,0.880012
1831,679,3.31617,-0.0121602,0.241853,0.879142
1834,676,3.31687,-0.0143719,0.241656,0.878957
1837,673,3.31727,-0.00785717,0.240518,0.877905
1840,670,3.31723,-0.0103919,0.240924,0.877799
1843,667,3.31661,-0.00928606,0.240921,0.877048
1846,664,3.31758,-0.00635093,0.239994,0.876258
1849,661,3.31752,-0.014586,0.240048,0.875887
1852,658,3.31729,-0.0133099,0.239584,0.87539
1855,655,3.31653,-0.0141771,0.239986,0.874782
1858,652,3.31588,-0.0130979,0.239988,0.87402
1861,649,3.3158,-0.0137864,0.239984,0.873694
1864,646,3.31777,-0.0108329,0.239153,0.873093
1867,643,3.31665,-0.00979193,0.239052,0.872111
1870,640,3.3169,-0.0123526,0.239207,0.872191
1873,637,3.31583,-0.0111895,0.239048,0.871452
1876,634,3.31739,-0.0145243,0.237707,0.87013
1879,631,3.31718,-0.0149975,0.237711,0.869927
1882,628,3.31695,-0.0153468,0.23771,0.869772
1885,625,3.31609,-0.0160402,0.238114,0.869247
1888,622,3.31565,-0.016878,0.238519,0.86866
1891,619,3.31526,-0.0176327,0.238517,0.868307
1894,616,3.31677,-0.0147062,0.237584,0.867498
1897,613,3.31718,-0.0127842,0.236932,0.867525
1900,610,3.3157,-0.0162378,0.237993,0.866604
1903,607,3.31549,-0.0162425,0.238168,0.866591
1906,604,3.31493,-0.0158969,0.237987,0.865474
1909,601,3.31642,-0.0109383,0.236667,0.864503
1912,598,3.31634,-0.0116953,0.236642,0.864157
1915,595,3.31607,-0.012505,0.236692,0.863789
1918,592,3.31589,-0.0131538,0.236638,0.863485
1921,589,3.31392,-0.0141122,0.237447,0.862625
1924,586,3.31621,-0.0110849,0.236103,0.86205
1927,583,3.31631,-0.00798027,0.235696,0.861129
1930,580,3.31505,-0.016399,0.236104,0.860547
1933,577,3.3152,-0.00955648,0.236097,0.860188
1936,574,3.31484,-0.0102457,0.236099,0.859884
1939,571,3.3167,-0.00697297,0.234753,0.859331
1942,568,3.31599,-0.0140684,0.234746,0.858355
1945,565,3.31547,-0.016379,0.235158,0.858385
1948,562,3.31502,-0.0156905,0.235154,0.857423
1951,559,3.31418,-0.0160415,0.23556,0.857059
1954,556,3.31607,-0.0130102,0.234365,0.856469
1957,553,3.31552,-0.0138314,0.234617,0.85589
1960,550,3.31445,-0.0163311,0.234979,0.855437
1963,547,3.31442,-0.0119724,0.234207,0.854398
1966,544,3.31573,-0.0145323,0.234041,0.854094
1969,541,3.31614,-0.00733665,0.23286,0.853242
1972,538,3.31584,-0.00999789,0.233269,0.853115
1975,535,3.31552,-0.00871009,0.232859,0.852643
1978,532,3.315,-0.00958458,0.233265,0.852025
1981,529,3.31416,-0.0123361,0.234233,0.851658
1984,526,3.31561,-0.00737788,0.23273,0.850646
1987,523,3.31549,-0.00814884,0.23265,0.850285
1990,520,3.31485,-0.0145666,0.232314,0.84979
1993,517,3.31413,-0.0154233,0.232717,0.849202
1996,514,3.31615,-0.0123225,0.231369,0.848626
1999,511,3.31419,-0.0176518,0.232555,0.847788
2002,508,3.3152,-0.0139452,0.231924,0.847707
2005,505,3.31477,-0.0128618,0.231776,0.846915
2008,502,3.31361,-0.0156052,0.232591,0.846551
2011,499,3.31585,-0.0123746,0.231237,0.846028
2014,496,3.31489,-0.0112969,0.231234,0.845225
2017,493,3.31342,-0.0177992,0.232932,0.845166
2020,490,3.31297,-0.0150665,0.232018,0.844037
2023,487,3.3145,-0.0148414,0.231481,0.843038
2026,484,3.31539,-0.00898298,0.230279,0.842792
2029,481,3.3151,-0.0097191,0.230279,0.842466
2032,478,3.31286,-0.022141,0.231478,0.841981
2035,475,3.31331,-0.0171935,0.230683,0.841143
2038,472,3.31423,-0.0198781,0.230676,0.840815
2041,469,3.31372,-0.0129292,0.230938,0.840212
2044,466,3.3135,-0.0137153,0.230935,0.839868
2047,463,3.31315,-0.0202477,0.230528,0.839387
2050,460,3.31343,-0.0172414,0.23014,0.838758
2053,457,3.31391,-0.0179815,0.229991,0.838021
2056,454,3.31349,-0.0183945,0.229988,0.837832
2059,451,3.31271,-0.0196471,0.230396,0.837079
2062,448,3.31259,-0.0184604,0.229985,0.836535
2065,445,3.31244,-0.0192205,0.229987,0.836193
2068,442,3.31288,-0.0137719,0.22923,0.835573
2071,439,3.31375,-0.0165175,0.229038,0.835226
2074,436,3.31457,-0.00940434,0.227823,0.834241
2077,433,3.31268,-0.0181705,0.22945,0.834307
2080,430,3.31337,-0.0110603,0.228234,0.833333
2083,427,3.3126,-0.00993234,0.228234,0.832546
2086,424,3.31432,-0.0153773,0.226869,0.831659
2089,421,3.31355,-0.0162592,0.22742,0.831071
2092,418,3.31379,-0.011072,0.227684,0.83092
2095,415,3.31268,-0.0174512,0.227685,0.830347
2098,412,3.31275,-0.0166008,0.227277,0.829661
2101,409,3.31439,-0.00747456,0.227233,0.829035
2104,406,3.31375,-0.0163174,0.226729,0.828678
2107,403,3.31298,-0.0150904,0.226726,0.827929
2110,400,3.3123,-0.0159219,0.227138,0.827118
2113,397,3.31201,-0.0167918,0.227139,0.827003
2116,394,3.31422,-0.0100393,0.225363,0.825611
2119,391,3.31349,-0.0124568,0.225768,0.825622
2122,388,3.31274,-0.0112245,0.225767,0.824887
2125,385,3.31329,-0.0160415,0.226044,0.824739
2128,382,3.31484,-0.00666167,0.223989,0.823825
2131,379,3.31384,-0.00964773,0.224943,0.823377
2134,376,3.31361,-0.00828246,0.224397,0.822917
2137,373,3.31292,-0.00918822,0.224805,0.822327
2140,370,3.3132,-0.0198857,0.224672,0.822039
2143,367,3.31203,-0.0108029,0.225215,0.821417
2146,364,3.31359,-0.00772265,0.224253,0.82054
2149,361,3.3126,-0.0166397,0.224423,0.820195
2152,358,3.31267,-0.0173087,0.224248,0.819913
2155,355,3.31264,-0.0201267,0.22453,0.819348
2158,352,3.31339,-0.0150549,0.22387,0.818473
2161,349,3.31202,-0.0181021,0.224116,0.817873
2164,346,3.31095,-0.0210704,0.224941,0.817486
2167,343,3.31354,-0.013641,0.222748,0.81654
2170,340,3.31244,-0.0166486,0.223565,0.816105
2173,337,3.3122,-0.0173662,0.223568,0.815816
2176,334,3.3116,-0.0161859,0.223566,0.815046
2179,331,3.31082,-0.0175172,0.223972,0.814264
2182,328,3.31306,-0.0117281,0.222195,0.813701
2185,325,3.31271,-0.0125827,0.222189,0.813331
2188,322,3.31159,-0.0223009,0.222604,0.812482
2191,319,3.31085,-0.0229132,0.223013,0.812016
2194,316,3.31217,-0.0179022,0.221758,0.811312
2197,313,3.31277,-0.0203037,0.221644,0.811178
2200,310,3.31195,-0.0207983,0.222055,0.810766
2203,307,3.31245,-0.0160363,0.221235,0.809714
2206,304,3.31086,-0.0208504,0.222054,0.80948
2209,301,3.31216,-0.0135278,0.220384,0.808677
2212,298,3.31214,-0.012168,0.219969,0.808181
2215,295,3.31375,-0.00934139,0.219005,0.807195
2218,292,3.31294,-0.0105952,0.219413,0.806459
2221,289,3.31266,-0.0105782,0.219415,0.806475
2224,286,3.31174,-0.0115108,0.219823,0.805877
2227,283,3.31165,-0.0102175,0.21942,0.805374
2230,280,3.31306,-0.0112124,0.21927,0.804881
2233,277,3.31314,-0.00772093,0.218449,0.80424
2236,274,3.31202,-0.0168434,0.218856,0.80367
2239,271,3.31152,-0.0176856,0.218857,0.803343
2242,268,3.31108,-0.0172907,0.218986,0.802224
2245,265,3.31289,-0.0119759,0.217471,0.801184
2248,262,3.31263,-0.0127903,0.217474,0.800863
2251,259,3.31223,-0.0156626,0.217884,0.800744
2254,256,3.31137,-0.0144445,0.217912,0.799976
2257,253,3.31071,-0.0153595,0.218294,0.799182
2260,250,3.31281,-0.0119608,0.216911,0.798832
2263,247,3.31234,-0.010792,0.216911,0.798044
2266,244,3.31184,-0.011495,0.216913,0.797776
2269,241,3.31119,-0.0103586,0.216908,0.796898
2272,238,3.31341,-0.00917436,0.215936,0.796533
2275,235,3.31246,-0.0163225,0.215933,0.795774
2278,232,3.31219,-0.0178584,0.215927,0.795138
2281,229,3.31165,-0.017874,0.215932,0.795143
2284,226,3.31116,-0.016706,0.21596,0.79437
2287,223,3.31312,-0.0132527,0.214544,0.793805
2290,220,3.31228,-0.0163053,0.215533,0.793412
2293,217,3.31195,-0.0170696,0.215364,0.793115
2296,214,3.31137,-0.0159303,0.215365,0.792307
2299,211,3.31097,-0.0188254,0.215773,0.792184
2302,208,3.31265,-0.0134744,0.214386,0.791121
2305,205,3.31237,-0.0142726,0.214383,0.790801
2308,202,3.31149,-0.0117302,0.214378,0.789279
2311,199,3.31127,-0.0127043,0.214382,0.788898
2314,196,3.31109,-0.0112391,0.213966,0.788433
2317,193,3.31308,-0.00920908,0.212988,0.788336
2320,190,3.31223,-0.0101306,0.213397,0.787751
2323,187,3.31214,-0.0109118,0.213393,0.787437
2326,184,3.31058,-0.0139584,0.21422,0.787059
2329,181,3.31071,-0.0125661,0.213808,0.786568
2332,178,3.30997,-0.0135789,0.214217,0.78593
2335,175,3.31216,-0.0164947,0.212408,0.784953
2338,172,3.3112,-0.0182516,0.21282,0.784264
2341,169,3.31136,-0.0147639,0.211993,0.783536
2344,166,3.31047,-0.0156984,0.212402,0.782958
2347,163,3.31284,-0.0122873,0.211011,0.78236
2350,160,3.31203,-0.0109838,0.211009,0.781613
2353,157,3.31157,-0.0140345,0.21142,0.78146
2356,154,3.31105,-0.0127361,0.211417,0.779293
2359,151,3.31021,-0.013639,0.211831,0.780136
2362,148,3.31263,-0.010231,0.210435,0.779535
2365,145,3.31212,-0.0110024,0.210434,0.779232
2368,142,3.31134,-0.0121104,0.210843,0.778574
2371,139,3.31081,-0.0191981,0.210428,0.778122
2374,136,3.31274,-0.0137088,0.209034,0.777075
2377,133,3.31264,-0.00811177,0.209441,0.776933
2380,130,3.31151,-0.0176099,0.209849,0.776377
2383,127,3.3115,-0.00974894,0.20987,0.776066
2386,124,3.31089,-0.0106814,0.210259,0.775473
2389,121,3.30963,-0.0138375,0.211088,0.775063
2392,118,3.31241,-0.00812755,0.209268,0.774288
2395,115,3.30957,-0.0236193,0.210599,0.774428
2398,112,3.30908,-0.0159633,0.211008,0.7738
2401,109,3.30966,-0.0196294,0.210091,0.773016
2404,106,3.31017,-0.0221373,0.21002,0.772629
2407,103,3.30981,-0.0229792,0.21002,0.772303
2410,100,3.30992,-0.0216256,0.20977,0.771765
2413,97,3.31072,-0.0160717,0.208675,0.770923
2416,94,3.31063,-0.0195739,0.209029,0.770194
2419,91,3.31064,-0.0182077,0.208615,0.769673
2422,88,3.31022,-0.0186385,0.208613,0.769502
2425,85,3.30943,-0.0200108,0.209026,0.768751
2428,82,3.30905,-0.0204434,0.209026,0.768595
2431,79,3.31035,-0.012622,0.207681,0.767567
2434,76,3.31067,-0.0156638,0.207622,0.767225
2437,73,3.31018,-0.0151858,0.207617,0.766161
2440,70,3.30904,-0.0162225,0.208032,0.765788
2443,67,3.31047,-0.0192869,0.206676,0.764969
2446,64,3.31094,-0.0201249,0.206212,0.764445
2449,61,3.31108,-0.0165538,0.205396,0.763722
2452,58,3.31003,-0.0196093,0.206209,0.763369
2455,55,3.30987,-0.020497,0.20623,0.763046
2458,52,3.30883,-0.0215435,0.206628,0.762433
2461,49,3.311,-0.020161,0.205632,0.762074
2464,46,3.31046,-0.0188531,0.205634,0.761305
2467,43,3.30987,-0.0210936,0.206042,0.761498
2470,40,3.30923,-0.0206908,0.206044,0.760405
2473,37,3.30912,-0.019364,0.205627,0.75985
2476,34,3.31106,-0.0136728,0.20422,0.7588
2479,31,3.3108,-0.0144631,0.204222,0.758519
2482,28,3.31016,-0.0242368,0.204224,0.758191
2485,25,3.30906,-0.0252295,0.204631,0.757596
2488,22,3.30894,-0.0258656,0.204629,0.757358
2491,19,3.31119,-0.0132247,0.204136,0.756607
2494,16,3.31024,-0.0145924,0.204047,0.755863
2497,13,3.30973,-0.0168653,0.204459,0.756046
2500,10,3.30874,-0.0249327,0.204458,0.755131
2503,7,3.30849,-0.0253832,0.204461,0.754967
2506,4,3.31113,-0.0129167,0.203047,0.754336
2507,3,3.31006,-0.0227638,0.203461,0.753793