File: hust_correlation_analysis/matrices/HUST_5-4_cycle_feature_matrix.csv
cycle_number,rul,voltage,current,capacity,charge_capacity
1,1964,3.31402,-0.00507444,0.344667,1.03022
3,1962,3.30461,-0.00589812,0.350456,1.02492
5,1960,3.30408,-0.00703112,0.350918,1.02432
7,1958,3.30381,-0.00802294,0.350922,1.02347
9,1956,3.3058,-0.00565931,0.349792,1.02291
11,1954,3.30608,-0.00569619,0.349424,1.02307
13,1952,3.30602,-0.00624222,0.349321,1.02275
15,1950,3.30591,-0.00679763,0.34932,1.02242
17,1948,3.30607,-0.00739065,0.349316,1.02206
19,1946,3.30615,-0.00732917,0.349219,1.02228
21,1944,3.30561,-0.00801665,0.349319,1.02169
23,1942,3.30775,-0.00506701,0.347725,1.02167
25,1940,3.3078,-0.00559344,0.347724,1.02134
27,1938,3.308,-0.00559266,0.347263,1.02155
29,1936,3.30784,-0.00616051,0.348335,1.02104
31,1934,3.30754,-0.00621031,0.347736,1.0208
33,1932,3.30746,-0.00625422,0.347737,1.021
35,1930,3.30741,-0.006282,0.347743,1.02101
37,1928,3.3076,-0.00676808,0.347742,1.01928
39,1926,3.3073,-0.00676394,0.347746,1.02072
41,1924,3.30768,-0.00738214,0.34775,1.02035
43,1922,3.30764,-0.0074352,0.347756,1.02034
45,1920,3.30735,-0.00743061,0.347842,1.02035
47,1918,3.30752,-0.00797026,0.347762,1.02002
49,1916,3.3073,-0.00807453,0.347755,1.01995
51,1914,3.30724,-0.00813211,0.347845,1.01995
53,1912,3.30855,-0.00571492,0.3471,1.01921
55,1910,3.30847,-0.00571868,0.347106,1.01923
57,1908,3.30877,-0.00563318,0.346653,1.01948
59,1906,3.30877,-0.00565728,0.346644,1.01946
61,1904,3.30834,-0.00634013,0.347106,1.01886
63,1902,3.30819,-0.00635309,0.347109,1.01886
65,1900,3.30819,-0.00636077,0.34711,1.01886
67,1898,3.30869,-0.0062933,0.346641,1.01907
69,1896,3.30848,-0.0068293,0.346639,1.01874
71,1894,3.30787,-0.00677094,0.347214,1.01862
73,1892,3.30828,-0.00696481,0.34663,1.01865
75,1890,3.30832,-0.00745419,0.346631,1.01834
77,1888,3.3081,-0.00747376,0.346061,1.01833
79,1886,3.30846,-0.0079676,0.34663,1.01804
81,1884,3.30827,-0.00798813,0.346632,1.01802
83,1882,3.30807,-0.00800169,0.346633,1.01803
85,1880,3.30786,-0.00806744,0.347013,1.01801
87,1878,3.30797,-0.00804762,0.346651,1.01804
89,1876,3.30985,-0.00565064,0.345518,1.01748
91,1874,3.30979,-0.00568538,0.345621,1.01746
93,1872,3.30907,-0.0057965,0.345971,1.01718
95,1870,3.30955,-0.00624245,0.345502,1.01707
97,1868,3.30951,-0.00628875,0.345501,1.01705
99,1866,3.30936,-0.0062623,0.3455,1.01706
101,1864,3.3093,-0.00632505,0.345502,1.01703
103,1862,3.30925,-0.00630535,0.345503,1.01704
105,1860,3.30944,-0.00681588,0.345504,1.01699
107,1858,3.30944,-0.00680017,0.345504,1.01675
109,1856,3.3094,-0.00681173,0.345588,1.01674
111,1854,3.30903,-0.00683824,0.345508,1.01673
113,1852,3.30927,-0.00686555,0.345509,1.01672
115,1850,3.30885,-0.00748969,0.34597,1.01617
117,1848,3.30905,-0.00746278,0.345502,1.01635
119,1846,3.30889,-0.00743102,0.345503,1.01637
121,1844,3.30897,-0.00745905,0.345501,1.01635
123,1842,3.30905,-0.00801374,0.3455,1.01601
125,1840,3.30897,-0.00805361,0.345502,1.01599
127,1838,3.30889,-0.00790717,0.345604,1.01607
129,1836,3.30867,-0.00799203,0.34519,1.01602
131,1834,3.30878,-0.00801916,0.345502,1.01602
133,1832,3.3101,-0.00572043,0.344845,1.01523
135,1830,3.31043,-0.00564429,0.344382,1.01545
137,1828,3.30994,-0.00567325,0.344945,1.01526
139,1826,3.31027,-0.00569728,0.344374,1.0154
141,1824,3.31039,-0.00570322,0.34437,1.0154
143,1822,3.30978,-0.00630923,0.344835,1.01485
145,1820,3.31017,-0.00625983,0.344368,1.01504
147,1818,3.31022,-0.006221,0.344366,1.01506
149,1816,3.31016,-0.00629526,0.344363,1.01502
151,1814,3.31009,-0.00633367,0.344365,1.01499
153,1812,3.30978,-0.00685482,0.34483,1.0145
155,1810,3.31018,-0.00686467,0.344369,1.01468
157,1808,3.3103,-0.00681923,0.344365,1.01471
159,1806,3.30984,-0.0068458,0.34436,1.01467
161,1804,3.3098,-0.00681331,0.344358,1.01468
163,1802,3.30947,-0.00685919,0.344819,1.01448
165,1800,3.30964,-0.00749837,0.344818,1.01409
167,1798,3.30957,-0.00738337,0.345413,1.01415
169,1796,3.30911,-0.007483,0.344812,1.01409
171,1794,3.30886,-0.00751579,0.344897,1.01406
173,1792,3.30964,-0.00738365,0.344349,1.01432
175,1790,3.30988,-0.00735776,0.344347,1.01433
177,1788,3.30924,-0.00806303,0.344812,1.01373
179,1786,3.30888,-0.00800819,0.344813,1.01377
181,1784,3.30904,-0.00804504,0.344813,1.01376
183,1782,3.30965,-0.0079606,0.344356,1.01399
185,1780,3.30893,-0.00806409,0.344822,1.01376
187,1778,3.3093,-0.00796249,0.344351,1.01398
189,1776,3.31064,-0.00565036,0.343693,1.01319
191,1774,3.31143,-0.00572525,0.343246,1.01336
193,1772,3.31054,-0.00574174,0.3437,1.01314
195,1770,3.311,-0.00560332,0.343229,1.0134
197,1768,3.31054,-0.00574237,0.3437,1.01316
199,1766,3.31088,-0.00566372,0.343235,1.01338
201,1764,3.31078,-0.00566301,0.343235,1.01337
203,1762,3.31047,-0.00595875,0.343701,1.01304
205,1760,3.31051,-0.00627342,0.343702,1.01284
207,1758,3.3105,-0.00630205,0.3437,1.01283
209,1756,3.31017,-0.00633186,0.344304,1.0128
211,1754,3.31073,-0.00625852,0.34323,1.01301
213,1752,3.31082,-0.00623496,0.34323,1.01301
215,1750,3.31052,-0.00685903,0.343694,1.01246
217,1748,3.31032,-0.00690396,0.344296,1.01245
219,1746,3.31071,-0.0068224,0.343234,1.01267
221,1744,3.31083,-0.00679501,0.343238,1.01269
223,1742,3.31032,-0.00689768,0.343708,1.01247
225,1740,3.31026,-0.00693935,0.343715,1.01247
227,1738,3.31027,-0.00692274,0.343711,1.01248
229,1736,3.31039,-0.00693067,0.34372,1.01249
231,1734,3.31074,-0.00694177,0.343824,1.01227
233,1732,3.3102,-0.00701124,0.343726,1.01244
235,1730,3.31042,-0.00678591,0.34375,1.01264
237,1728,3.30949,-0.0070425,0.344197,1.01228
239,1726,3.30965,-0.00694168,0.344197,1.01236
241,1724,3.31024,-0.0075084,0.343816,1.01217
243,1722,3.31005,-0.00754701,0.343729,1.01214
245,1720,3.30945,-0.00760424,0.344136,1.01194
247,1718,3.3098,-0.00757282,0.343735,1.01213
249,1716,3.30996,-0.00756456,0.343738,1.01215
251,1714,3.30969,-0.00748108,0.34373,1.01218
253,1712,3.30989,-0.00749934,0.343738,1.01218
255,1710,3.3098,-0.00805761,0.34409,1.01182
257,1708,3.309835,-0.00817469,0.343725,1.01175
259,1706,3.30983,-0.0080274,0.343254,1.012
261,1704,3.31145,-0.00577167,0.342595,1.01118
263,1702,3.31185,-0.00566809,0.342132,1.01118
265,1700,3.31175,-0.0057022,0.342136,1.0114
267,1698,3.31167,-0.0056907,0.342139,1.01142
269,1696,3.3114,-0.00568952,0.34214,1.01141
271,1694,3.31154,-0.00571504,0.342141,1.01141
273,1692,3.31154,-0.00569555,0.34214,1.01142
275,1690,3.31148,-0.00574064,0.342509,1.0114
277,1688,3.31165,-0.00631487,0.342073,1.01104
279,1686,3.311435,-0.00635355,0.342147,1.01103
281,1684,3.31154,-0.00630064,0.342145,1.01107
283,1682,3.31131,-0.00634246,0.342131,1.01101
285,1680,3.31178,-0.00620291,0.342035,1.01127
287,1678,3.31113,-0.00697826,0.342604,1.01047
289,1676,3.31148,-0.00691917,0.342147,1.01094
291,1674,3.31129,-0.00697009,0.342131,1.01064
293,1672,3.31146,-0.00685511,0.34213,1.01069
295,1670,3.31135,-0.00688279,0.34214,1.0107
297,1668,3.3112,-0.00689779,0.342737,1.01069
299,1666,3.31091,-0.00689114,0.342136,1.0107
301,1664,3.310895,-0.00698322,0.342508,1.00916
303,1662,3.31105,-0.00750407,0.342147,1.01033
305,1660,3.31091,-0.0075188,0.342126,1.01029
307,1658,3.31125,-0.00748267,0.341671,1.01048
309,1656,3.31125,-0.00739853,0.341589,1.01054
311,1654,3.3113,-0.00749821,0.341677,1.0105
313,1652,3.31102,-0.00808767,0.342731,1.00996
315,1650,3.31077,-0.00819229,0.3416,1.00992
317,1648,3.31047,-0.00810852,0.342141,1.00996
319,1646,3.31092,-0.00809169,0.341677,1.01012
321,1644,3.31052,-0.00813469,0.342141,1.00993
323,1642,3.31084,-0.00811885,0.341675,1.01011
325,1640,3.31251,-0.00509423,0.340547,1.00993
327,1638,3.31265,-0.00569666,0.340901,1.00953
329,1636,3.31246,-0.00571041,0.340537,1.00951
331,1634,3.31299,-0.0058426,0.340078,1.0096
333,1632,3.31236,-0.00570818,0.340539,1.00953
335,1630,3.31285,-0.00568385,0.340082,1.00971
337,1628,3.31282,-0.00624965,0.340538,1.00919
339,1626,3.31271,-0.00626536,0.340538,1.0092
341,1624,3.31261,-0.00624999,0.340542,1.0092
343,1622,3.3125,-0.00631372,0.340552,1.0092
345,1620,3.31246,-0.00633698,0.340636,1.00917
347,1618,3.31219,-0.00634866,0.339953,1.00914
349,1616,3.3123,-0.00688574,0.340537,1.0088
351,1614,3.31203,-0.00689188,0.340536,1.00879
353,1612,3.31215,-0.00690998,0.340533,1.00878
355,1610,3.31192,-0.00688799,0.340533,1.00878
357,1608,3.31191,-0.00692436,0.340535,1.00877
359,1606,3.31175,-0.00695917,0.340635,1.00875
361,1604,3.31266,-0.00746288,0.340075,1.0086
363,1602,3.31216,-0.00752235,0.340533,1.00839
365,1600,3.31235,-0.00745077,0.340434,1.00861
367,1598,3.31163,-0.00751498,0.340534,1.00841
369,1596,3.31215,-0.00751462,0.340076,1.00858
371,1594,3.31209,-0.00751553,0.340073,1.00856
373,1592,3.31225,-0.0080057,0.340072,1.00826
375,1590,3.3119,-0.00802236,0.340151,1.00825
377,1588,3.31192,-0.00803246,0.34007,1.00824
379,1586,3.31192,-0.00803696,0.340072,1.00824
381,1584,3.31361,-0.00518452,0.33895,1.00797
383,1582,3.31325,-0.00574294,0.339408,1.00745
385,1580,3.31318,-0.0057414,0.339413,1.00746
387,1578,3.31362,-0.00563919,0.338954,1.00769
389,1576,3.31347,-0.00565465,0.338955,1.00768
391,1574,3.31292,-0.00575079,0.339414,1.00746
393,1572,3.31316,-0.00576761,0.338953,1.0076
395,1570,3.31356,-0.00568811,0.338944,1.00765
397,1568,3.31361,-0.00625247,0.339021,1.00729
399,1566,3.31315,-0.00620689,0.338939,1.00731
401,1564,3.31315,-0.00628839,0.33894,1.00726
403,1562,3.31306,-0.00625621,0.338937,1.00726
405,1560,3.31365,-0.006219,0.338474,1.00745
407,1558,3.31307,-0.0067963,0.33893,1.00693
409,1556,3.3132,-0.00689246,0.338935,1.00688
411,1554,3.31318,-0.00687549,0.338933,1.00689
413,1552,3.31337,-0.00684899,0.338941,1.00692
415,1550,3.31303,-0.0069134,0.33894,1.00689
417,1548,3.31344,-0.00685613,0.338482,1.00708
419,1546,3.31317,-0.00748216,0.338929,1.00651
421,1544,3.31308,-0.00741431,0.338929,1.00655
423,1542,3.312725,-0.00743948,0.338922,1.00651
425,1540,3.31258,-0.0074219,0.338926,1.00652
427,1538,3.31294,-0.00742041,0.338478,1.00672
429,1536,3.31306,-0.00735112,0.338581,1.00678
431,1534,3.31278,-0.00810276,0.33888,1.00615
433,1532,3.31258,-0.00806744,0.338942,1.00643
435,1530,3.31259,-0.00804286,0.338945,1.00618
437,1528,3.31256,-0.00810443,0.338949,1.00616
439,1526,3.31303,-0.00804304,0.338592,1.00638
441,1524,3.31247,-0.00812794,0.338946,1.00614
443,1522,3.31453,-0.00514032,0.337369,1.00612
445,1520,3.31433,-0.0056878,0.337827,1.0056
447,1518,3.31421,-0.00576323,0.338421,1.00556
449,1516,3.31411,-0.00573381,0.337826,1.00559
451,1514,3.31407,-0.00571104,0.337832,1.00561
453,1512,3.31403,-0.00574088,0.337828,1.00558
455,1510,3.3146,-0.00566823,0.337373,1.00579
457,1508,3.31405,-0.00636343,0.337829,1.0052
459,1506,3.31413,-0.00636873,0.337834,1.0052
461,1504,3.31446,-0.00624241,0.337376,1.00544
463,1502,3.31451,-0.00626662,0.337377,1.00544
465,1500,3.3141,-0.00630093,0.337376,1.0054
467,1498,3.31366,-0.00688835,0.337829,1.00486
469,1496,3.31409,-0.00692992,0.337443,1.00499
471,1494,3.31413,-0.00687577,0.33737,1.00503
473,1492,3.31414,-0.00689275,0.337365,1.00503
475,1490,3.31384,-0.00687018,0.337372,1.00504
477,1488,3.3139,-0.0074414,0.337373,1.00469
479,1486,3.31399,-0.00748109,0.337373,1.00466
481,1484,3.31387,-0.00745933,0.337374,1.00468
483,1482,3.31368,-0.00744987,0.337374,1.0047
485,1480,3.31356,-0.00748766,0.337377,1.00467
487,1478,3.31384,-0.00808526,0.337372,1.00429
489,1476,3.31373,-0.00809886,0.337368,1.00428
491,1474,3.31345,-0.00805195,0.337363,1.00428
493,1472,3.31524,-0.00508889,0.336243,1.00409
495,1470,3.31536,-0.00565888,0.336248,1.00373
497,1468,3.31527,-0.00571383,0.336252,1.0037
499,1466,3.31518,-0.00568782,0.336253,1.00373
501,1464,3.31508,-0.00575218,0.336752,1.0037
503,1462,3.31518,-0.00570904,0.336258,1.00373
505,1460,3.31498,-0.00571525,0.336258,1.00372
507,1458,3.31461,-0.00638057,0.336716,1.00315
509,1456,3.31455,-0.00634012,0.336716,1.00317
511,1454,3.31467,-0.00632206,0.336255,1.00334
513,1452,3.3148,-0.00629283,0.336248,1.00335
515,1450,3.3146,-0.00694349,0.336242,1.00291
517,1448,3.31483,-0.00679976,0.33624,1.00327
519,1446,3.31486,-0.00690066,0.336249,1.00296
521,1444,3.3147,-0.00683486,0.336243,1.00298
523,1442,3.31466,-0.00693973,0.336247,1.00294
525,1440,3.31441,-0.00748146,0.336246,1.00259
527,1438,3.31456,-0.0074626,0.336252,1.00262
529,1436,3.31437,-0.00745276,0.336248,1.00261
531,1434,3.31418,-0.00747956,0.33625,1.00261
533,1432,3.31403,-0.00816268,0.336695,1.00199
535,1430,3.31377,-0.00808585,0.337044,1.00201
537,1428,3.31591,-0.00498943,0.335112,1.00204
539,1426,3.31543,-0.00569011,0.335568,1.00143
541,1424,3.31587,-0.0056459,0.33511,1.00161
543,1422,3.31567,-0.00564001,0.335111,1.00187
545,1420,3.31551,-0.00629616,0.335564,1.00105
547,1418,3.31532,-0.00630089,0.335563,1.00104
549,1416,3.31557,-0.00631751,0.335109,1.00119
551,1414,3.31593,-0.0062174,0.334655,1.00142
553,1412,3.31545,-0.00623259,0.335205,1.00124
555,1410,3.31511,-0.00682748,0.33556,1.00071
557,1408,3.31486,-0.00689735,0.335561,1.00065
559,1406,3.31521,-0.0067747,0.335103,1.00089
561,1404,3.3151,-0.0068586,0.335103,1.00085
563,1402,3.31473,-0.00745507,0.335555,1.0003
565,1400,3.315,-0.0074356,0.335008,1.00047
567,1398,3.31428,-0.00752441,0.335557,1.00026
569,1396,3.31457,-0.00796746,0.335549,0.999968
571,1394,3.31451,-0.00810623,0.334978,0.999881
573,1392,3.3151,-0.00799378,0.335094,1.0001
575,1390,3.31471,-0.00799844,0.335086,1.00009
577,1388,3.31434,-0.00803022,0.335094,1.00008
579,1386,3.31593,-0.00571494,0.334437,0.99931
581,1384,3.31655,-0.00558697,0.333983,0.999558
583,1382,3.31622,-0.00559286,0.333981,0.999545
585,1380,3.31624,-0.00571712,0.333986,0.999487
587,1378,3.31617,-0.00573332,0.333989,0.999486
589,1376,3.31579,-0.00630096,0.334441,0.998963
591,1374,3.31592,-0.0062561,0.334336,0.999135
593,1372,3.31546,-0.00631091,0.334439,0.998951
595,1370,3.31598,-0.00629935,0.334085,0.999124
597,1368,3.31614,-0.00622101,0.333986,0.999159
599,1366,3.31587,-0.00689237,0.33444,0.998601
601,1364,3.31586,-0.00684983,0.33399,0.998775
603,1362,3.31546,-0.00688354,0.334115,0.9986
605,1360,3.3158,-0.00684386,0.333988,0.99878
607,1358,3.31532,-0.00754999,0.33444,0.998182
609,1356,3.31532,-0.00751972,0.334442,0.9982
611,1354,3.31537,-0.0075475,0.333986,0.998587
613,1352,3.31514,-0.00803796,0.33444,0.997869
615,1350,3.31518,-0.00808387,0.334441,0.997854
617,1348,3.31513,-0.00812217,0.334443,0.997824
619,1346,3.31479,-0.00808135,0.334542,0.997858
621,1344,3.31704,-0.00507733,0.332879,0.997828
623,1342,3.31675,-0.00574219,0.333333,0.997254
625,1340,3.31668,-0.00574424,0.333331,0.997257
627,1338,3.31694,-0.00566158,0.332878,0.99598
629,1336,3.31627,-0.00578934,0.333331,0.997474
631,1334,3.3166,-0.00636857,0.333327,0.996853
633,1332,3.31659,-0.00634463,0.333327,0.996867
635,1330,3.31619,-0.00641364,0.333367,0.996824
637,1328,3.31629,-0.00691087,0.333325,0.996505
639,1326,3.31634,-0.00691401,0.333323,0.996499
641,1324,3.31613,-0.0069137,0.333322,0.996502
643,1322,3.31589,-0.006965,0.333326,0.996472
645,1320,3.31607,-0.00741408,0.333322,0.996445
647,1318,3.31604,-0.00757213,0.333325,0.996091
649,1316,3.31601,-0.00751923,0.333325,0.996119
651,1314,3.31573,-0.00747257,0.333319,0.996145
653,1312,3.31572,-0.00807502,0.333907,0.99574
655,1310,3.31552,-0.00811222,0.333314,0.995724
657,1308,3.31558,-0.00810913,0.33332,0.995743
659,1306,3.3162,-0.00804593,0.332866,0.996173
661,1304,3.31738,-0.00573087,0.332198,0.995138
663,1302,3.31724,-0.00572423,0.332205,0.995152
665,1300,3.31762,-0.00570405,0.33175,0.994182
667,1298,3.31728,-0.00568872,0.332205,0.995179
669,1296,3.31723,-0.00629965,0.332202,0.994792
671,1294,3.31648,-0.00637565,0.33266,0.994595
673,1292,3.31691,-0.00629829,0.332211,0.994812
675,1290,3.31751,-0.00624776,0.331763,0.995015
677,1288,3.31659,-0.00644164,0.332766,0.99457
679,1286,3.31696,-0.00635442,0.332215,0.994797
681,1284,3.31642,-0.00695993,0.33267,0.994245
683,1282,3.31629,-0.00702696,0.332663,0.994178
685,1280,3.3169,-0.00752828,0.332563,0.994027
687,1278,3.31631,-0.00750397,0.33266,0.993886
689,1276,3.31613,-0.00753357,0.332661,0.993866
691,1274,3.31644,-0.00756864,0.332211,0.994019
693,1272,3.31698,-0.00750315,0.331762,0.994214
695,1270,3.31649,-0.00817048,0.332213,0.993633
697,1268,3.31669,-0.0080717,0.33222,0.993718
699,1266,3.31652,-0.00813069,0.332213,0.993669
701,1264,3.31791,-0.00512024,0.331103,0.993484
703,1262,3.3175,-0.0058324,0.331556,0.992878
705,1260,3.31799,-0.00563034,0.331104,0.993153
707,1258,3.31786,-0.00566205,0.331094,0.993119
709,1256,3.31745,-0.0063672,0.331903,0.992517
711,1254,3.3178,-0.0063667,0.331097,0.992673
713,1252,3.31708,-0.00636028,0.331549,0.992532
715,1250,3.31746,-0.00632034,0.331196,0.992718
717,1248,3.3176,-0.00691032,0.331099,0.992337
719,1246,3.31766,-0.00688188,0.331101,0.992356
721,1244,3.31716,-0.00685823,0.331554,0.992233
723,1242,3.31728,-0.00692569,0.331104,0.992339
725,1240,3.31689,-0.0077963,0.331651,0.991623
727,1238,3.31707,-0.00755889,0.331554,0.991795
729,1236,3.31722,-0.00749341,0.331101,0.991971
731,1234,3.31674,-0.00814332,0.331554,0.991423
733,1232,3.31663,-0.00817213,0.331554,0.991405
735,1230,3.31679,-0.00819177,0.331558,0.991408
737,1228,3.31658,-0.00813479,0.331562,0.991447
739,1226,3.31646,-0.00816463,0.331562,0.991439
741,1224,3.31684,-0.00819905,0.331119,0.991576
743,1222,3.31841,-0.00577422,0.330458,0.990864
745,1220,3.31842,-0.00571587,0.330452,0.9909
747,1218,3.31852,-0.00577275,0.329994,0.990994
749,1216,3.31848,-0.0063327,0.329991,0.990629
751,1214,3.31825,-0.00623084,0.32999,0.990694
753,1212,3.31795,-0.00640082,0.330446,0.989122
755,1210,3.31806,-0.00695911,0.33045,0.990111
757,1208,3.31788,-0.00687472,0.330453,0.990163
759,1206,3.3177,-0.00695548,0.330451,0.990121
761,1204,3.31765,-0.00703324,0.330459,0.99008
763,1202,3.31752,-0.0076027,0.330912,0.989564
765,1200,3.31817,-0.00748979,0.330005,0.989944
767,1198,3.31788,-0.00750746,0.329955,0.989927
769,1196,3.31739,-0.00816882,0.330446,0.98959
771,1194,3.31758,-0.00812503,0.330443,0.989359
773,1192,3.31934,-0.00568075,0.32933,0.988787
775,1190,3.31862,-0.00576084,0.329787,0.988593
777,1188,3.31887,-0.00572752,0.329331,0.988754
779,1186,3.31888,-0.00573273,0.329428,0.988759
781,1184,3.3184,-0.00637602,0.329782,0.988185
783,1182,3.31867,-0.00629978,0.329333,0.988411
785,1180,3.31866,-0.00631228,0.329331,0.988398
787,1178,3.31839,-0.0063272,0.329332,0.988378
789,1176,3.3187,-0.00627791,0.329432,0.988413
791,1174,3.31874,-0.00685269,0.329332,0.988008
793,1172,3.31801,-0.00694983,0.329781,0.987822
795,1170,3.3181,-0.00697808,0.329778,0.987809
797,1168,3.31808,-0.00754112,0.329778,0.987437
799,1166,3.31807,-0.00760338,0.329777,0.987401
801,1164,3.31829,-0.00750474,0.329324,0.987613
803,1162,3.31752,-0.00811276,0.330226,0.986922
805,1160,3.31725,-0.00820763,0.330229,0.986858
807,1158,3.31788,-0.00820174,0.329777,0.987025
809,1156,3.31755,-0.00824663,0.329849,0.986995
811,1154,3.31947,-0.00578258,0.328667,0.986446
813,1152,3.31936,-0.00572544,0.328666,0.986486
815,1150,3.31936,-0.00572649,0.328666,0.986483
817,1148,3.31924,-0.00575875,0.328668,0.986465
819,1146,3.31929,-0.00631818,0.328667,0.986111
821,1144,3.31901,-0.00639812,0.328667,0.986066
823,1142,3.31883,-0.00637659,0.328667,0.986065
825,1140,3.31844,-0.00700562,0.329114,0.985495
827,1138,3.31824,-0.0070339,0.329111,0.985479
829,1136,3.31817,-0.00703155,0.329118,0.985502
831,1134,3.3182,-0.00756199,0.329118,0.985165
833,1132,3.31809,-0.00767353,0.329121,0.985105
835,1130,3.31868,-0.00755623,0.328667,0.985335
837,1128,3.31846,-0.00757309,0.328669,0.985335
839,1126,3.31789,-0.00762696,0.329131,0.985176
841,1124,3.31761,-0.00817153,0.329121,0.984794
843,1122,3.31813,-0.00814063,0.328668,0.984966
845,1120,3.31988,-0.0036373,0.32756,0.984432
847,1118,3.31975,-0.00419623,0.327562,0.98407
849,1116,3.31944,-0.00573155,0.32801,0.984213
851,1114,3.31976,-0.0102428,0.327108,0.984222
853,1112,3.31885,-0.0110043,0.328012,0.98346
855,1110,3.31935,-0.0109566,0.327561,0.983637
857,1108,3.31921,-0.0109309,0.327562,0.98366
859,1106,3.31883,-0.00548572,0.328011,0.983106
861,1104,3.31883,-0.00553325,0.328011,0.983075
863,1102,3.31896,-0.00554683,0.328108,0.983057
865,1100,3.31893,-0.0106741,0.327555,0.982514
867,1098,3.31906,-0.0105429,0.327091,0.982707
869,1096,3.31826,-0.0106759,0.32755,0.982503
871,1094,3.31856,-0.00964796,0.327105,0.981787
873,1092,3.31848,-0.0111788,0.327553,0.982189
875,1090,3.32012,-0.00670798,0.325998,0.981773
877,1088,3.32001,-0.00881616,0.326445,0.981577
879,1086,3.31971,-0.00885077,0.326449,0.981564
881,1084,3.32032,-0.00726445,0.325553,0.98158
883,1082,3.32012,-0.00633888,0.325624,0.980895
885,1080,3.32005,-0.00790242,0.326001,0.981032
887,1078,3.32001,-0.00634611,0.325553,0.980911
889,1076,3.31916,-0.00799405,0.32645,0.981085
891,1074,3.31938,-0.00705454,0.325998,0.980271
893,1072,3.31936,-0.0070185,0.325998,0.980296
895,1070,3.31969,-0.00698508,0.325548,0.980471
897,1068,3.31929,-0.00609253,0.325549,0.980011
899,1066,3.31887,-0.00761277,0.325999,0.979933
901,1064,3.31935,-0.00602263,0.325105,0.979961
903,1062,3.31912,-0.0066668,0.325553,0.979392
905,1060,3.31965,-0.00818066,0.326138,0.979731
907,1058,3.3211,-0.00964629,0.324001,0.979399
909,1056,3.32016,-0.00431059,0.3249,0.97863
911,1054,3.32063,-0.00425035,0.32445,0.978831
913,1052,3.32036,-0.0102587,0.324447,0.978863
915,1050,3.31989,-0.0109653,0.324893,0.978265
917,1048,3.3203,-0.0109045,0.324446,0.978455
919,1046,3.3201,-0.0109861,0.324442,0.978383
921,1044,3.31962,-0.0115486,0.324888,0.977876
923,1042,3.31955,-0.00999591,0.32444,0.977708
925,1040,3.31923,-0.010643,0.324886,0.977146
927,1038,3.3191,-0.0105667,0.324437,0.977325
929,1036,3.31967,-0.00956861,0.32399,0.976822
931,1034,3.31885,-0.0112907,0.324883,0.976734
933,1032,3.31929,-0.0112526,0.324436,0.976907
935,1030,3.32081,-0.00729594,0.323325,0.975998
937,1028,3.31991,-0.00741505,0.32377,0.975762
939,1026,3.3209,-0.00710215,0.322876,0.976254
941,1024,3.3206,-0.00632414,0.322877,0.975472
943,1022,3.32108,-0.00630536,0.322441,0.975637
945,1020,3.32098,-0.00628129,0.322437,0.975655
947,1018,3.32017,-0.00848407,0.323327,0.975244
949,1016,3.32025,-0.00540203,0.322441,0.975183
951,1014,3.32034,-0.00549509,0.322445,0.97489
953,1012,3.32032,-0.00596926,0.322445,0.974575
955,1010,3.31972,-0.00618089,0.322891,0.9743
957,1008,3.31991,-0.00609138,0.322437,0.972984
959,1006,3.3198,-0.00653459,0.322433,0.974191
961,1004,3.32157,-0.0102231,0.321325,0.97357
963,1002,3.32114,-0.0102625,0.321772,0.973412
965,1000,3.32096,-0.010337,0.322327,0.973386
967,998,3.32123,-0.00932163,0.321329,0.973123
969,996,3.32053,-0.0110004,0.322226,0.972828
971,994,3.32094,-0.010941,0.321788,0.973031
973,992,3.32139,-0.00782888,0.320462,0.972853
975,990,3.32089,-0.00999754,0.321346,0.972473
977,988,3.32063,-0.0100381,0.32193,0.972456
979,986,3.32029,-0.0090691,0.321348,0.971782
981,984,3.31988,-0.0106936,0.32179,0.97189
983,982,3.32056,-0.00905936,0.320905,0.971928
985,980,3.32019,-0.00967155,0.321346,0.971396
987,978,3.32038,-0.00962674,0.320906,0.971574
989,976,3.32021,-0.00960859,0.32035,0.971585
991,974,3.32234,-0.00569094,0.319371,0.970834
993,972,3.32172,-0.00577016,0.319811,0.970649
995,970,3.32195,-0.00728409,0.319812,0.971001
997,968,3.32158,-0.00632931,0.319815,0.970303
999,966,3.32144,-0.00631839,0.319815,0.9703
1001,964,3.32107,-0.00699293,0.320835,0.969744
1003,962,3.32107,-0.00707447,0.320257,0.969684
1005,960,3.32081,-0.00546638,0.319808,0.969555
1007,958,3.32059,-0.00765643,0.320247,0.969286
1009,956,3.32101,-0.0119195,0.319365,0.96942
1011,954,3.32037,-0.0126501,0.319805,0.968818
1013,952,3.32021,-0.0126557,0.319804,0.96858
1015,950,3.32214,-0.00974938,0.318711,0.968572
1017,948,3.32251,-0.0101809,0.318273,0.968447
1019,946,3.32191,-0.0102475,0.31929,0.968247
1021,944,3.32144,-0.0108889,0.319149,0.967703
1023,942,3.32128,-0.010946,0.319149,0.967659
1025,940,3.32137,-0.00939408,0.318805,0.967492
1027,938,3.32145,-0.0115348,0.319148,0.967282
1029,936,3.32128,-0.00992444,0.318707,0.96714
1031,934,3.32069,-0.0122249,0.319586,0.966684
1033,932,3.32094,-0.0105673,0.318706,0.966731
1035,930,3.32086,-0.0097289,0.31905,0.965972
1037,928,3.32062,-0.0112318,0.319144,0.966172
1039,926,3.32037,-0.0113251,0.319145,0.966114
1041,924,3.32217,-0.00726258,0.317609,0.965421
1043,922,3.32169,-0.00581221,0.317609,0.965307
1045,920,3.32157,-0.00732272,0.318048,0.965228
1047,918,3.3223,-0.00635398,0.317171,0.964855
1049,916,3.3218,-0.00633317,0.317171,0.964864
1051,914,3.32175,-0.00535104,0.31709,0.964188
1053,912,3.32091,-0.00704211,0.318047,0.964121
1055,910,3.32174,-0.00689107,0.317169,0.964508
1057,908,3.32151,-0.00594765,0.317168,0.963815
1059,906,3.32132,-0.00605055,0.317165,0.963739
1061,904,3.32057,-0.00673574,0.317604,0.963144
1063,902,3.32058,-0.0127036,0.317166,0.96338
1065,900,3.3227,-0.010281,0.316073,0.962802
1067,898,3.32221,-0.0102926,0.316854,0.962649
1069,896,3.32224,-0.00432859,0.316507,0.962568
1071,894,3.32149,-0.0109558,0.316945,0.962073
1073,892,3.32166,-0.0109052,0.31651,0.962255
1075,890,3.32118,-0.0116033,0.316941,0.961639
1077,888,3.32182,-0.00991948,0.316641,0.961719
1079,886,3.32131,-0.00918291,0.316063,0.96088
1081,884,3.32146,-0.0105743,0.316061,0.961307
1083,882,3.32098,-0.0106604,0.3165,0.961105
1085,880,3.32103,-0.00971862,0.316058,0.960543
1087,878,3.32298,-0.00816206,0.314969,0.960724
1089,876,3.32225,-0.00725658,0.315409,0.959847
1091,874,3.32247,-0.00730257,0.31497,0.959959
1093,872,3.32217,-0.0063973,0.314971,0.959245
1095,870,3.32203,-0.00635848,0.314969,0.959268
1097,868,3.32202,-0.00698522,0.314969,0.958869
1099,866,3.32224,-0.0066511,0.314534,0.958988
1101,864,3.32227,-0.00692674,0.314535,0.959052
1103,862,3.32151,-0.00758078,0.314966,0.958482
1105,860,3.32132,-0.00660726,0.314962,0.957793
1107,858,3.32095,-0.00662977,0.314958,0.957772
1109,856,3.32261,-0.010248,0.313869,0.957243
1111,854,3.3225,-0.0103579,0.313873,0.957172
1113,852,3.32318,-0.00413007,0.313436,0.957405
1115,850,3.32216,-0.0109683,0.314305,0.956641
1117,848,3.32185,-0.00486285,0.314306,0.956638
1119,846,3.32222,-0.0108617,0.313868,0.956846
1121,844,3.32209,-0.0114582,0.31387,0.956736
1123,842,3.32214,-0.00994927,0.31343,0.956258
1125,840,3.32169,-0.0105734,0.313865,0.955724
1127,838,3.3209,-0.0112924,0.314292,0.955108
1129,836,3.32133,-0.00963812,0.313427,0.95514
1131,834,3.3227,-0.00727267,0.312719,0.954384
1133,832,3.32323,-0.0071462,0.312337,0.954622
1135,830,3.32299,-0.00877071,0.312773,0.954747
1137,828,3.32255,-0.00782982,0.312839,0.95405
1139,826,3.32236,-0.0078827,0.312771,0.954019
1141,824,3.32239,-0.00693888,0.312341,0.95347
1143,822,3.32246,-0.00534295,0.311911,0.953319
1145,820,3.32192,-0.00602748,0.312342,0.952745
1147,818,3.32185,-0.00595825,0.312345,0.952773
1149,816,3.32175,-0.00604684,0.312919,0.952742
1151,814,3.32154,-0.00669014,0.312346,0.952332
1153,812,3.32279,-0.004278,0.311692,0.951606
1155,810,3.32295,-0.0101859,0.311258,0.951864
1157,808,3.32301,-0.00423462,0.311258,0.95178
1159,806,3.32315,-0.00930515,0.310835,0.951297
1161,804,3.32266,-0.0109008,0.311267,0.951446
1163,802,3.32204,-0.0115942,0.311698,0.950877
1165,800,3.32197,-0.0115922,0.311699,0.950873
1167,798,3.32212,-0.0121294,0.311701,0.950543
1169,796,3.32145,-0.0106406,0.311699,0.950164
1171,794,3.32148,-0.0113128,0.311696,0.949738
1173,792,3.32321,-0.00826406,0.310606,0.949547
1175,790,3.3233,-0.0072514,0.310172,0.94902
1177,788,3.32303,-0.00632184,0.31017,0.948294
1179,786,3.32268,-0.00640902,0.31017,0.948247
1181,784,3.32218,-0.00696822,0.310604,0.947755
1183,782,3.32217,-0.00855835,0.310951,0.948064
1185,780,3.32258,-0.00602222,0.30975,0.947361
1187,778,3.32187,-0.00603863,0.31018,0.947201
1189,776,3.32159,-0.00824008,0.310615,0.946985
1191,774,3.32155,-0.00819063,0.310616,0.947017
1193,772,3.32371,-0.0035135,0.308669,0.946862
1195,770,3.32279,-0.0042489,0.309532,0.946098
1197,768,3.32311,-0.0109158,0.309101,0.945917
1199,766,3.32292,-0.0108895,0.309094,0.945915
1201,764,3.32234,-0.0114966,0.309525,0.945377
1203,762,3.32223,-0.0116263,0.309525,0.945321
1205,760,3.32228,-0.0105102,0.309095,0.944848
1207,758,3.32157,-0.0106844,0.309532,0.944626
1209,756,3.32134,-0.0128545,0.309961,0.944414
1211,754,3.3232,-0.00723528,0.308447,0.943377
1213,752,3.32334,-0.00722039,0.308024,0.943534
1215,750,3.32309,-0.00943896,0.308449,0.943298
1217,748,3.32226,-0.0079019,0.308883,0.942826
1219,746,3.32234,-0.00851599,0.30851,0.94258
1221,744,3.32243,-0.00860083,0.308444,0.94251
1223,742,3.32192,-0.00752444,0.308447,0.941892
1225,740,3.32182,-0.00819595,0.308439,0.941467
1227,738,3.32215,-0.00817478,0.308015,0.941832
1229,736,3.32333,-0.0042274,0.307364,0.940549
1231,734,3.32312,-0.00576639,0.307364,0.940893
1233,732,3.32262,-0.00642248,0.307795,0.940337
1235,730,3.32281,-0.00485904,0.307288,0.940148
1237,728,3.32207,-0.0054826,0.30779,0.939611
1239,726,3.32188,-0.0122429,0.307791,0.939247
1241,724,3.32177,-0.0121979,0.307792,0.93928
1243,722,3.32147,-0.0127949,0.307782,0.93887
1245,720,3.32331,-0.00882172,0.306269,0.938088
1247,718,3.32281,-0.00884675,0.306696,0.937928
1249,716,3.32262,-0.00786524,0.306264,0.937359
1251,714,3.32227,-0.0085166,0.306695,0.936813
1253,712,3.32231,-0.0100672,0.306696,0.937131
1255,710,3.32214,-0.00911528,0.306695,0.936448
1257,708,3.32134,-0.00923351,0.307123,0.936233
1259,706,3.32213,-0.00969688,0.306267,0.936236
1261,704,3.32316,-0.0057744,0.30561,0.935118
1263,702,3.3229,-0.0073568,0.306375,0.935297
1265,700,3.32264,-0.00480241,0.305612,0.934415
1267,698,3.32214,-0.00699245,0.306035,0.934216
1269,696,3.32203,-0.00708834,0.306034,0.934141
1271,694,3.32184,-0.00616932,0.306033,0.933393
1273,692,3.32094,-0.0127878,0.306453,0.932964
1275,690,3.32298,-0.00365974,0.304949,0.932843
1277,688,3.32293,-0.00424113,0.304952,0.932496
1279,686,3.32235,-0.0110286,0.305378,0.931981
1281,684,3.32243,-0.00950113,0.304949,0.931753
1283,682,3.32179,-0.0116884,0.305377,0.93157
1285,680,3.32155,-0.012291,0.305808,0.931071
1287,678,3.32132,-0.010774,0.305379,0.930833
1289,676,3.32167,-0.00977551,0.305041,0.930285
1291,674,3.32326,-0.00672526,0.303866,0.930085
1293,672,3.32234,-0.00741849,0.304292,0.929496
1295,670,3.32174,-0.00649825,0.304277,0.928718
1297,668,3.32228,-0.00693408,0.30386,0.928616
1299,666,3.32176,-0.00607177,0.303858,0.927857
1301,664,3.32119,-0.00772834,0.304289,0.927995
1303,662,3.32108,-0.00679282,0.304379,0.927265
1305,660,3.32261,-0.010393,0.303142,0.926771
1307,658,3.32245,-0.0104475,0.303208,0.926756
1309,656,3.32263,-0.0049028,0.303211,0.926335
1311,654,3.32204,-0.00550649,0.303635,0.925811
1313,652,3.32119,-0.0117346,0.304063,0.925672
1315,650,3.32085,-0.0123572,0.304063,0.925285
1317,648,3.32062,-0.0128676,0.304054,0.924947
1319,646,3.32156,-0.0135417,0.303375,0.924271
1321,644,3.3219,-0.00790228,0.30255,0.923444
1323,642,3.32216,-0.00794343,0.302559,0.923448
1325,640,3.32177,-0.00704174,0.302556,0.92269
1327,638,3.32165,-0.00862202,0.302558,0.923026
1329,636,3.32101,-0.00931642,0.302985,0.92246
1331,634,3.32065,-0.00828891,0.302985,0.921772
1333,632,3.3218,-0.00585133,0.302335,0.921033
1335,630,3.32212,-0.00581167,0.301905,0.921461
1337,628,3.32165,-0.0064793,0.302335,0.920653
1339,626,3.32131,-0.00639203,0.302334,0.920472
1341,624,3.32123,-0.00702008,0.302333,0.920318
1343,622,3.32058,-0.0124165,0.30233,0.919533
1345,620,3.32251,-0.00368597,0.301252,0.918953
1347,618,3.32201,-0.00431448,0.301681,0.9184
1349,616,3.32147,-0.0105831,0.301681,0.918426
1351,614,3.32123,-0.00961863,0.301683,0.917705
1353,612,3.32092,-0.0102044,0.301682,0.917361
1355,610,3.32057,-0.0123975,0.302446,0.917191
1357,608,3.3206,-0.00618615,0.302112,0.917128
1359,606,3.31979,-0.0114812,0.30211,0.916437
1361,604,3.32128,-0.00904139,0.301463,0.91569
1363,602,3.32152,-0.00797905,0.300955,0.915162
1365,600,3.32099,-0.00807465,0.301026,0.915358
1367,598,3.32032,-0.010369,0.301889,0.914717
1369,596,3.32049,-0.00934802,0.30102,0.91431
1371,594,3.32185,-0.00680435,0.300371,0.9136
1373,592,3.32088,-0.00593343,0.300805,0.912672
1375,590,3.32083,-0.0065083,0.300804,0.91234
1377,588,3.32148,-0.00480912,0.299995,0.91235
1379,586,3.32052,-0.0118945,0.300371,0.911735
1381,584,3.32024,-0.00627984,0.300367,0.911309
1383,582,3.3197,-0.00689917,0.300799,0.910792
1385,580,3.32078,-0.0106473,0.300149,0.910107
1387,578,3.32057,-0.00962063,0.299715,0.909556
1389,576,3.31994,-0.0103674,0.300151,0.908972
1391,574,3.32003,-0.0103029,0.299715,0.909133
1393,572,3.31942,-0.0109612,0.300146,0.908617
1395,570,3.31889,-0.0100458,0.300147,0.90785
1397,568,3.32127,-0.00737959,0.298639,0.907508
1399,566,3.32069,-0.00807335,0.299155,0.906946
1401,564,3.32065,-0.00650392,0.298636,0.906722
1403,562,3.31997,-0.00881572,0.299498,0.906358
1405,560,3.31941,-0.00943481,0.299932,0.905843
1407,558,3.31857,-0.0101673,0.300362,0.905251
1409,556,3.32081,-0.00527401,0.298417,0.905088
1411,554,3.32019,-0.00591504,0.298849,0.904552
1413,552,3.3204,-0.0048929,0.298754,0.903767
1415,550,3.31966,-0.00563311,0.298853,0.90342
1417,548,3.31956,-0.00629302,0.298855,0.903033
1419,546,3.31927,-0.00628376,0.298856,0.903046
1421,544,3.3205,-0.00372465,0.298206,0.902326
1423,542,3.31953,-0.0113873,0.298633,0.901411
1425,540,3.31975,-0.0113281,0.298196,0.901586
1427,538,3.31917,-0.010383,0.298193,0.90109
1429,536,3.31877,-0.00952377,0.298195,0.900043
1431,534,3.31875,-0.0100828,0.298191,0.899709
1433,532,3.32059,-0.00751151,0.297118,0.899144
1435,530,3.31981,-0.0082494,0.297548,0.898563
1437,528,3.31897,-0.00889445,0.297986,0.898045
1439,526,3.31877,-0.00888216,0.298308,0.898023
1441,524,3.31882,-0.00617109,0.297104,0.897306
1443,522,3.32033,-0.00520964,0.296462,0.896954
1445,520,3.31957,-0.00606914,0.296892,0.896286
1447,518,3.31975,-0.00496565,0.295919,0.895775
1449,516,3.31904,-0.00565764,0.296891,0.895229
1451,514,3.31811,-0.0127999,0.297326,0.894672
1453,512,3.31785,-0.0133307,0.297326,0.894349
1455,510,3.31948,-0.00921129,0.296249,0.893391
1457,508,3.31923,-0.00973062,0.296245,0.893079
1459,506,3.31838,-0.0105161,0.296678,0.892476
1461,504,3.31865,-0.0104894,0.296247,0.892648
1463,502,3.31835,-0.00955716,0.296243,0.891652
1465,500,3.32009,-0.00527573,0.294781,0.891145
1467,498,3.31945,-0.00597794,0.295162,0.890584
1469,496,3.3191,-0.00665563,0.29516,0.890174
1471,494,3.31845,-0.00729266,0.295593,0.889659
1473,492,3.31788,-0.00626193,0.29559,0.888936
1475,490,3.31883,-0.00852391,0.295296,0.888556
1477,488,3.31989,-0.00394781,0.294081,0.88835
1479,486,3.31817,-0.0159183,0.295291,0.889452
1481,484,3.31736,-0.0166398,0.295726,0.887435
1483,482,3.31909,-0.0140328,0.294653,0.887174
1485,480,3.31844,-0.0147536,0.295087,0.88633
1487,478,3.31795,-0.0138057,0.295088,0.885588
1489,476,3.31772,-0.0141508,0.295088,0.885385
1491,474,3.31738,-0.0134655,0.295087,0.884479
1493,472,3.31785,-0.0076786,0.294306,0.883536
1495,470,3.31735,-0.00963501,0.295318,0.883592
1497,468,3.3171,-0.00957875,0.294748,0.883619
1499,466,3.31959,-0.00363111,0.292373,0.882828
1501,464,3.31883,-0.00599316,0.293233,0.882458
1503,462,3.31816,-0.00671876,0.29367,0.881897
1505,460,3.31818,-0.00561435,0.293236,0.881375
1507,458,3.31727,-0.00803131,0.294197,0.881
1509,456,3.31933,-0.00374973,0.292602,0.88025
1511,454,3.31869,-0.00920898,0.292599,0.879567
1513,452,3.31836,-0.0116441,0.293039,0.879333
1515,450,3.31777,-0.00521005,0.293524,0.879119
1517,448,3.31732,-0.0123177,0.293477,0.878801
1519,446,3.31719,-0.0119137,0.293039,0.877869
1521,444,3.31798,-0.00947525,0.292836,0.876908
1523,442,3.31817,-0.00938705,0.291949,0.877096
1525,440,3.31783,-0.00902829,0.292396,0.875997
1527,438,3.31727,-0.00807477,0.292394,0.875227
1529,436,3.31695,-0.00811165,0.292397,0.875226
1531,434,3.31867,-0.00544593,0.291325,0.874683
1533,432,3.31819,-0.00612732,0.292328,0.874149
1535,430,3.31779,-0.00678909,0.29176,0.873767
1537,428,3.3172,-0.00578214,0.29176,0.873046
1539,426,3.31694,-0.00810091,0.292197,0.872872
1541,424,3.31626,-0.0136477,0.292195,0.872167
1543,422,3.3181,-0.00451445,0.291121,0.871547
1545,420,3.31787,-0.0100171,0.290684,0.871009
1547,418,3.31704,-0.012404,0.291554,0.870668
1549,416,3.31624,-0.0131015,0.29199,0.87011
1551,414,3.31641,-0.0120826,0.291547,0.869522
1553,412,3.3178,-0.00777711,0.290476,0.868588
1555,410,3.3178,-0.0094621,0.290476,0.868945
1557,408,3.31723,-0.00842806,0.290475,0.868232
1559,406,3.31719,-0.00747496,0.290033,0.867605
1561,404,3.31632,-0.00813044,0.290471,0.867089
1563,402,3.31803,-0.0054936,0.289401,0.866522
1565,400,3.31816,-0.00441422,0.288966,0.86595
1567,398,3.31717,-0.0117068,0.289396,0.865456
1569,396,3.31671,-0.00581835,0.28983,0.864865
1571,394,3.31647,-0.00647971,0.289823,0.864476
1573,392,3.31804,-0.00379274,0.288784,0.863901
1575,390,3.31748,-0.00935295,0.28875,0.863234
1577,388,3.31707,-0.0117921,0.289185,0.863015
1579,386,3.31693,-0.00900929,0.288747,0.86212
1581,384,3.31645,-0.0107638,0.289477,0.86231
1583,382,3.31597,-0.0104623,0.289191,0.861173
1585,380,3.31757,-0.00711887,0.288124,0.861006
1587,378,3.31643,-0.00851013,0.288999,0.859914
1589,376,3.31632,-0.0101839,0.289039,0.860285
1591,374,3.31654,-0.00907547,0.28856,0.859512
1593,372,3.3158,-0.00810655,0.288554,0.859233
1595,370,3.31508,-0.00896978,0.288993,0.858347
1597,368,3.31718,-0.00450881,0.287483,0.857628
1599,366,3.3166,-0.00518218,0.287916,0.857079
1601,364,3.31668,-0.00584204,0.287472,0.856627
1603,362,3.31533,-0.0131639,0.288346,0.856214
1605,360,3.315,-0.0138531,0.288346,0.855829
1607,358,3.31691,-0.00940214,0.28689,0.855092
1609,356,3.31623,-0.0102019,0.287274,0.854495
1611,354,3.31561,-0.00921776,0.287276,0.85375
1613,352,3.31603,-0.00920112,0.286835,0.853894
1615,350,3.31548,-0.0115957,0.287276,0.853721
1617,348,3.31713,-0.00726233,0.286203,0.852788
1619,346,3.31629,-0.00793577,0.286641,0.852254
1621,344,3.31594,-0.00856061,0.286651,0.852187
1623,342,3.31614,-0.00750337,0.286207,0.851355
1625,340,3.31551,-0.00649338,0.286213,0.850619
1627,338,3.31493,-0.00727759,0.286648,0.850022
1629,336,3.31669,-0.00461001,0.285581,0.849448
1631,334,3.31645,-0.0101867,0.285467,0.84894
1633,332,3.31575,-0.00596634,0.286013,0.848537
1635,330,3.31521,-0.0133061,0.286014,0.848228
1637,328,3.31478,-0.0132776,0.286013,0.8485
1639,326,3.31624,-0.0106164,0.285386,0.847502
1641,324,3.31634,-0.00960196,0.284946,0.846907
1643,322,3.31598,-0.0102434,0.284944,0.846551
1645,320,3.31538,-0.00921579,0.284944,0.845812
1647,318,3.31498,-0.00996362,0.284942,0.84539
1649,316,3.31468,-0.00891215,0.284943,0.844678
1651,314,3.31593,-0.00623587,0.284311,0.84393
1653,312,3.31568,-0.00698157,0.28431,0.843519
1655,310,3.31491,-0.00773135,0.284746,0.842955
1657,308,3.31481,-0.00831238,0.284745,0.842631
1659,306,3.31414,-0.0139593,0.284746,0.841975
1661,304,3.31588,-0.00464072,0.283679,0.841547
1663,302,3.31527,-0.00528005,0.284117,0.840774
1665,300,3.31529,-0.0120534,0.283676,0.840966
1667,298,3.31476,-0.0110307,0.283674,0.840223
1669,296,3.31455,-0.0116765,0.283675,0.839861
1671,294,3.31563,-0.00912848,0.283045,0.839054
1673,292,3.31527,-0.00976005,0.283362,0.838688
1675,290,3.31542,-0.00864164,0.282599,0.838097
1677,288,3.31526,-0.00924346,0.282599,0.837817
1679,286,3.31468,-0.0100066,0.283039,0.837247
1681,284,3.31412,-0.00900131,0.283037,0.836474
1683,282,3.31596,-0.00625373,0.281968,0.835934
1685,280,3.31537,-0.00523069,0.281969,0.835186
1687,278,3.31463,-0.00595372,0.282411,0.834645
1689,276,3.31449,-0.00768593,0.282409,0.834995
1691,274,3.31445,-0.00655626,0.281966,0.834458
1693,272,3.31553,-0.0107153,0.281344,0.833747
1695,270,3.31505,-0.00972711,0.281338,0.832957
1697,268,3.31477,-0.0104139,0.281344,0.832807
1699,266,3.31406,-0.0111131,0.281783,0.832064
1701,264,3.31407,-0.0100475,0.281339,0.831473
1703,262,3.31585,-0.00558556,0.280394,0.83067
1705,260,3.31532,-0.00627313,0.280274,0.830156
1707,258,3.31463,-0.00873085,0.280705,0.829869
1709,256,3.31471,-0.00762203,0.280265,0.829399
1711,254,3.3142,-0.00663571,0.280262,0.828626
1713,252,3.31337,-0.00743525,0.280702,0.828043
1715,250,3.31545,-0.00387041,0.279201,0.828066
1717,248,3.31481,-0.011463,0.279721,0.827562
1719,246,3.3145,-0.0121378,0.279635,0.827185
1721,244,3.31378,-0.0128834,0.280073,0.826641
1723,242,3.31292,-0.0136971,0.280515,0.826056
1725,240,3.31317,-0.0142771,0.280072,0.825882
1727,238,3.31489,-0.00795459,0.278566,0.824766
1729,236,3.31413,-0.008888,0.279006,0.824113
1731,234,3.31405,-0.00952403,0.279,0.824014
1733,232,3.31369,-0.00667278,0.278564,0.82282
1735,230,3.31328,-0.0091278,0.279,0.822661
1737,228,3.3157,-0.00373295,0.277096,0.822523
1739,226,3.31448,-0.00463201,0.277944,0.82173
1741,224,3.3146,-0.00697979,0.277943,0.820446
1743,222,3.31392,-0.0128138,0.278022,0.821065
1745,220,3.31392,-0.00665725,0.277939,0.820634
1747,218,3.31293,-0.014325,0.278386,0.820124
1749,216,3.31374,-0.0116062,0.277758,0.819382
1751,214,3.31398,-0.0104979,0.27732,0.818811
1753,212,3.31398,-0.00939525,0.276883,0.818244
1755,210,3.31341,-0.0111917,0.277317,0.81844
1757,208,3.31346,-0.0101269,0.276873,0.817827
1759,206,3.31466,-0.0074421,0.276255,0.817089
1761,204,3.31476,-0.00631422,0.276375,0.81652
1763,202,3.31395,-0.00705864,0.276252,0.815963
1765,200,3.31304,-0.0078437,0.276683,0.815379
1767,198,3.31298,-0.00839358,0.276681,0.815083
1769,196,3.3128,-0.009145,0.276685,0.814687
1771,194,3.31434,-0.00464234,0.275629,0.813744
1773,192,3.3146,-0.0052722,0.275192,0.813564
1775,190,3.31359,-0.0122935,0.276185,0.813404
1777,188,3.31362,-0.005995,0.275622,0.813012
1779,186,3.31268,-0.0118915,0.275625,0.812288
1781,184,3.31214,-0.0144473,0.276058,0.812088
1783,182,3.3138,-0.00990204,0.275001,0.811155
1785,180,3.31365,-0.00894495,0.274561,0.810495
1787,178,3.31301,-0.00961981,0.274993,0.809987
1789,176,3.31326,-0.00769331,0.274123,0.809987
1791,174,3.3124,-0.01033,0.274991,0.809599
1793,172,3.31244,-0.00905644,0.274556,0.809112
1795,170,3.31375,-0.00644077,0.273939,0.808321
1797,168,3.3136,-0.00527198,0.2735,0.807762
1799,166,3.31319,-0.00708644,0.27394,0.807988
1801,164,3.31299,-0.00776771,0.273938,0.807614
1803,162,3.31245,-0.00670755,0.273939,0.80687
1805,160,3.31186,-0.0144581,0.273932,0.806472
1807,158,3.31385,-0.0115861,0.272875,0.805952
1809,156,3.31328,-0.0105554,0.272872,0.80517
1811,154,3.31301,-0.00955499,0.272431,0.804533
1813,152,3.31211,-0.0120371,0.273304,0.804238
1815,150,3.3131,-0.0144987,0.273095,0.803869
1817,148,3.31396,-0.00749161,0.27182,0.803436
1819,146,3.31339,-0.00644203,0.272134,0.802686
1821,144,3.31311,-0.0070698,0.271818,0.802353
1823,142,3.31261,-0.00610634,0.271815,0.801529
1825,140,3.31239,-0.00851131,0.27225,0.801429
1827,138,3.31196,-0.00854486,0.27225,0.801428
1829,136,3.31388,-0.00391232,0.270765,0.800659
1831,134,3.31303,-0.0117727,0.2712,0.80011
1833,132,3.31258,-0.0123889,0.271194,0.799768
1835,130,3.3118,-0.0131783,0.271624,0.799183
1837,128,3.31165,-0.0121309,0.27119,0.798586
1839,126,3.31157,-0.0126813,0.271179,0.798253
1841,124,3.31319,-0.00786232,0.27013,0.797438
1843,122,3.31253,-0.00713435,0.270133,0.796505
1845,120,3.31258,-0.00888694,0.270128,0.796898
1847,118,3.3119,-0.0100175,0.271118,0.796155
1849,116,3.31189,-0.00850769,0.270133,0.7958
1851,114,3.31095,-0.00930543,0.270569,0.795231
1853,112,3.31341,-0.00567942,0.269083,0.795245
1855,110,3.31253,-0.00646457,0.269517,0.794688
1857,108,3.31254,-0.0052601,0.269075,0.794131
1859,106,3.31119,-0.0131475,0.269513,0.793597
1861,104,3.31194,-0.00670748,0.269156,0.791923
1863,102,3.31245,-0.0159623,0.26887,0.793163
1865,100,3.31133,-0.0149967,0.269299,0.792201
1867,98,3.31217,-0.0088568,0.268016,0.791267
1869,96,3.31068,-0.0145621,0.268864,0.791239
1871,94,3.31159,-0.00817933,0.267583,0.79041
1873,92,3.31182,-0.011077,0.267821,0.789726
1875,90,3.31193,-0.00963222,0.267389,0.789289
1877,88,3.31131,-0.016636,0.267387,0.78935
1879,86,3.3122,-0.0050092,0.266536,0.788745
1881,84,3.311865,-0.00573776,0.266534,0.788371
1883,82,3.31108,-0.013862,0.266964,0.787709
1885,80,3.311,-0.0120386,0.266534,0.78748
1887,78,3.31,-0.0128257,0.266966,0.786931
1889,76,3.31215,-0.0117808,0.266354,0.786631
1891,74,3.31125,-0.0118594,0.267093,0.786441
1893,72,3.31143,-0.0110484,0.266347,0.785667
1895,70,3.30988,-0.0167382,0.267203,0.785681
1897,68,3.31084,-0.0121567,0.266347,0.785094
1899,66,3.31001,-0.0129162,0.26678,0.784597
1901,64,3.31173,-0.00764163,0.265309,0.784103
1903,62,3.31189,-0.00647357,0.265421,0.783522
1905,60,3.31121,-0.00715985,0.2653,0.783029
1907,58,3.31113,-0.00599075,0.264874,0.782468
1909,56,3.31013,-0.00862002,0.265734,0.782135
1911,54,3.31043,-0.00851798,0.265306,0.782336
1913,52,3.31195,-0.00392519,0.264337,0.781351
1915,50,3.31125,-0.0117626,0.264263,0.781018
1917,48,3.31068,-0.0124988,0.264692,0.780507
1919,46,3.31103,-0.00536332,0.264261,0.780612
1921,44,3.30984,-0.0115525,0.264254,0.779799
1923,42,3.30966,-0.0122114,0.264256,0.77946
1925,40,3.31181,-0.00745204,0.262782,0.778701
1927,38,3.31138,-0.00642354,0.262791,0.777649
1929,36,3.31056,-0.00828681,0.263212,0.778123
1931,34,3.31047,-0.00897198,0.263212,0.777781
1933,32,3.31034,-0.00791102,0.262782,0.777166
1935,30,3.30955,-0.00861593,0.26321,0.776646
1937,28,3.30938,-0.00935728,0.263215,0.776272
1939,26,3.31103,-0.00578607,0.262171,0.776069
1941,24,3.31051,-0.00476276,0.26217,0.77528
1943,22,3.3103,-0.005406,0.26217,0.774942
1945,20,3.30969,-0.0133275,0.26217,0.774578
1947,18,3.30877,-0.0140442,0.262589,0.774042
1949,16,3.30867,-0.0129667,0.262159,0.773411
1951,14,3.31063,-0.00930888,0.261123,0.773292
1953,12,3.31003,-0.00650906,0.260695,0.772209
1955,10,3.30948,-0.00898458,0.261122,0.772122
1957,8,3.30949,-0.00792702,0.260699,0.771489
1959,6,3.30906,-0.00862918,0.260697,0.771132
1961,4,3.30948,-0.0104468,0.260519,0.771112
1962,3,3.3085,-0.00718756,0.260266,0.770692