File: hust_correlation_analysis/matrices/HUST_9-6_cycle_feature_matrix.csv
cycle_number,rul,voltage,current,capacity,charge_capacity
1,1744,3.32121,0.00956507,0.262615,1.02995
3,1742,3.30332,-0.0206855,0.275982,1.00713
5,1740,3.30641,-0.0205896,0.274897,1.01056
7,1738,3.30618,-0.0197304,0.274253,1.01409
9,1736,3.30907,-0.01904,0.273014,1.01542
11,1734,3.3095,-0.0194107,0.272783,1.01778
13,1732,3.31148,-0.0188281,0.271988,1.0186
15,1730,3.312608,-0.0168381,0.270772,1.02028
17,1728,3.31139,-0.0200512,0.271379,1.02105
19,1726,3.31247,-0.0193207,0.270985,1.02166
21,1724,3.31404,-0.0186809,0.270187,1.02246
23,1722,3.3144,-0.017885,0.269393,1.02357
25,1720,3.31431,-0.0179196,0.269499,1.02333
27,1718,3.31504,-0.017851,0.268999,1.0236
29,1716,3.31539,-0.0179978,0.268608,1.02375
31,1714,3.31497,-0.0179433,0.268207,1.02398
33,1712,3.31473,-0.0185358,0.268197,1.02392
35,1710,3.31557,-0.0184787,0.267806,1.02394
37,1708,3.31512,-0.0186239,0.268189,1.02362
39,1706,3.3147,-0.0185311,0.267806,1.02392
41,1704,3.31492,-0.0184994,0.268164,1.0239
43,1702,3.3159,-0.0184917,0.267408,1.02414
45,1700,3.31587,-0.0184223,0.267402,1.02416
47,1698,3.31545,-0.0191684,0.267401,1.02378
49,1696,3.31696,-0.0160519,0.266396,1.02325
51,1694,3.31787,-0.0167422,0.266387,1.02289
53,1692,3.3169,-0.0166454,0.266715,1.02296
55,1690,3.31623,-0.016878,0.266395,1.0228
57,1688,3.3167,-0.0172657,0.266395,1.02265
59,1686,3.31693,-0.0174223,0.266392,1.02255
61,1684,3.31627,-0.017888,0.266388,1.02233
63,1682,3.31567,-0.0186345,0.266774,1.02172
65,1680,3.31575,-0.0185705,0.266771,1.02171
67,1678,3.31576,-0.0193855,0.267167,1.02111
69,1676,3.31511,-0.01924,0.266766,1.02137
71,1674,3.31682,-0.0166689,0.26576,1.02056
73,1672,3.31782,-0.0167379,0.265372,1.02076
75,1670,3.31688,-0.0167017,0.265759,1.02055
77,1668,3.31707,-0.0172891,0.26574,1.02023
79,1666,3.31643,-0.018026,0.26616,1.0197
81,1664,3.31673,-0.0188342,0.266161,1.01931
83,1662,3.31603,-0.0187674,0.266522,1.01933
85,1660,3.3157,-0.0193396,0.266158,1.01905
87,1658,3.31591,-0.0193155,0.266155,1.01906
89,1656,3.31752,-0.0168332,0.265143,1.0182
91,1654,3.31664,-0.0168103,0.265147,1.0182
93,1652,3.31673,-0.0167671,0.265137,1.01818
95,1650,3.31709,-0.0174253,0.265136,1.01785
97,1648,3.31645,-0.0174659,0.265521,1.01761
99,1646,3.31636,-0.018183,0.265524,1.01724
101,1644,3.31639,-0.0180632,0.265525,1.01732
103,1642,3.31651,-0.0189047,0.265924,1.01671
105,1640,3.31575,-0.0188818,0.265929,1.01674
107,1638,3.31551,-0.019457,0.265931,1.01646
109,1636,3.31732,-0.0169798,0.264915,1.01557
111,1634,3.31682,-0.0168489,0.264917,1.01563
113,1632,3.31665,-0.016958,0.264913,1.01556
115,1630,3.31627,-0.017594,0.265622,1.01502
117,1628,3.31646,-0.0176826,0.265302,1.01497
119,1626,3.31618,-0.0182711,0.265302,1.01469
121,1624,3.31612,-0.0182583,0.265302,1.01468
123,1622,3.31663,-0.0189295,0.265308,1.01436
125,1620,3.31559,-0.0189293,0.265693,1.0141
127,1618,3.31572,-0.0195409,0.266066,1.01382
129,1616,3.31565,-0.0195211,0.265698,1.01383
131,1614,3.31748,-0.0164233,0.264291,1.01349
133,1612,3.31643,-0.0170362,0.26469,1.01298
135,1610,3.31644,-0.0169672,0.264683,1.01277
137,1608,3.31687,-0.0176276,0.265049,1.01265
139,1606,3.31596,-0.0176777,0.265071,1.01238
141,1604,3.31588,-0.0184163,0.265075,1.01203
143,1602,3.31629,-0.018292,0.265067,1.01206
145,1600,3.31656,-0.0182688,0.265058,1.01206
147,1598,3.31562,-0.0190999,0.265838,1.01145
149,1596,3.31458,-0.0190909,0.26586,1.0112
151,1594,3.31544,-0.0191627,0.265467,1.01122
153,1592,3.31454,-0.0197342,0.265864,1.01092
155,1590,3.3163,-0.0171476,0.264455,1.01032
157,1588,3.31667,-0.017183,0.264459,1.01033
159,1586,3.31675,-0.017074,0.264562,1.01038
161,1584,3.31603,-0.0178477,0.26485,1.00976
163,1582,3.31567,-0.0177444,0.264855,1.00981
165,1580,3.31592,-0.0185867,0.265259,1.00918
167,1578,3.31575,-0.0183758,0.264856,1.0095
169,1576,3.31473,-0.018408,0.265246,1.00924
171,1574,3.31531,-0.019185,0.265242,1.00885
173,1572,3.31496,-0.0190977,0.26525,1.0089
175,1570,3.3143,-0.0198221,0.265649,1.00833
177,1568,3.31414,-0.0197264,0.265641,1.00835
179,1566,3.31438,-0.0198678,0.265648,1.00829
181,1564,3.31603,-0.0166128,0.264554,1.00803
183,1562,3.31597,-0.0171306,0.264638,1.00756
185,1560,3.31615,-0.0173766,0.264639,1.00744
187,1558,3.31538,-0.0178347,0.265045,1.007
189,1556,3.31531,-0.0178297,0.26464,1.00722
191,1554,3.31574,-0.0185244,0.264641,1.00689
193,1552,3.31496,-0.018469,0.265028,1.00665
195,1550,3.31428,-0.0186081,0.265036,1.0066
197,1548,3.31459,-0.0191537,0.26504,1.00635
199,1546,3.31455,-0.0193304,0.265529,1.00601
201,1544,3.31436,-0.019248,0.265026,1.00627
203,1542,3.31376,-0.0200294,0.265835,1.00542
205,1540,3.31447,-0.0200479,0.265428,1.00565
207,1538,3.31557,-0.0166636,0.264014,1.00543
209,1536,3.31508,-0.0173192,0.264402,1.00484
211,1534,3.31564,-0.0173452,0.264389,1.00478
213,1532,3.31512,-0.0173833,0.264404,1.00481
215,1530,3.31432,-0.0180178,0.264806,1.00427
217,1528,3.31547,-0.0179882,0.264406,1.00454
219,1526,3.31503,-0.0180798,0.264804,1.00425
221,1524,3.31463,-0.0187818,0.264816,1.00391
223,1522,3.31472,-0.0186438,0.264812,1.00398
225,1520,3.31465,-0.0187655,0.26481,1.00391
227,1518,3.31371,-0.0194389,0.265219,1.00336
229,1516,3.31349,-0.0193974,0.265205,1.00335
231,1514,3.31403,-0.0194743,0.265209,1.00334
233,1512,3.31344,-0.0199598,0.26521,1.0031
235,1510,3.31342,-0.0199762,0.265205,1.00308
237,1508,3.31538,-0.0175327,0.264506,1.00218
239,1506,3.31504,-0.0174383,0.264191,1.0022
241,1504,3.31489,-0.0175274,0.26419,1.00216
243,1502,3.31525,-0.0173361,0.263784,1.0025
245,1500,3.31431,-0.0181143,0.264586,1.00163
247,1498,3.31378,-0.0181701,0.264586,1.00158
249,1496,3.31401,-0.0180684,0.264576,1.0016
251,1494,3.31404,-0.0181135,0.264887,1.00153
253,1492,3.31387,-0.0182265,0.264569,1.00149
255,1490,3.31302,-0.0189576,0.265375,1.00064
257,1488,3.31307,-0.0192022,0.265366,1.00049
259,1486,3.3135,-0.0186991,0.264941,1.00094
261,1484,3.31203,-0.0207076,0.266155,1.00047
263,1482,3.31308,-0.0213104,0.265756,1.00046
265,1480,3.3113,-0.0215816,0.26617,1.0001
267,1478,3.312,-0.0212252,0.265759,1.00052
269,1476,3.31264,-0.0220853,0.265768,1.00012
271,1474,3.31187,-0.0220902,0.26617,1.00011
273,1472,3.31172,-0.0220398,0.266172,0.99989
275,1470,3.31422,-0.0193411,0.264731,0.999284
277,1468,3.31294,-0.0194309,0.265241,0.998995
279,1466,3.3126,-0.0194475,0.265139,0.998986
281,1464,3.31337,-0.0193121,0.264725,0.999277
283,1462,3.31306,-0.0201488,0.265142,0.99865
285,1460,3.313364,-0.0183735,0.264341,0.998778
287,1458,3.31324,-0.0189183,0.264744,0.998289
289,1456,3.31336,-0.019008,0.264747,0.998245
291,1454,3.31246,-0.01963,0.264745,0.99796
293,1452,3.31244,-0.0194814,0.264744,0.998025
295,1450,3.31263,-0.0196629,0.264746,0.997945
297,1448,3.3117,-0.0203965,0.265148,0.997341
299,1446,3.31146,-0.0201515,0.265144,0.997443
301,1444,3.31214,-0.0222616,0.265558,0.997471
303,1442,3.31344,-0.018798,0.26412,0.997237
305,1440,3.31299,-0.0193786,0.264523,0.996694
307,1438,3.31336,-0.0195904,0.264525,0.996615
309,1436,3.31274,-0.0180772,0.264121,0.996321
311,1434,3.31248,-0.0184129,0.264133,0.996199
313,1432,3.31314,-0.0185152,0.264131,0.996416
315,1430,3.31303,-0.0190239,0.264122,0.995899
317,1428,3.31295,-0.019062,0.264137,0.995927
319,1426,3.31341,-0.019171,0.264131,0.995848
321,1424,3.31234,-0.0196968,0.264535,0.995351
323,1422,3.31231,-0.0198241,0.264532,0.995274
325,1420,3.31219,-0.0216419,0.26532,0.995234
327,1418,3.31155,-0.0204254,0.264935,0.994741
329,1416,3.31141,-0.0222525,0.265347,0.994888
331,1414,3.31218,-0.020493,0.264523,0.994938
333,1412,3.31327,-0.0188049,0.263897,0.994609
335,1410,3.31342,-0.0196462,0.263913,0.994063
337,1408,3.31336,-0.0178356,0.263507,0.994121
339,1406,3.31306,-0.0183291,0.263503,0.993865
341,1404,3.31285,-0.0184754,0.263516,0.993833
343,1402,3.31302,-0.0184223,0.26351,0.993872
345,1400,3.3127,-0.0191658,0.263917,0.993075
347,1398,3.31257,-0.0191672,0.263919,0.993278
349,1396,3.31279,-0.0192209,0.263914,0.993227
351,1394,3.31218,-0.0198579,0.264323,0.992689
353,1392,3.3114,-0.0199501,0.264326,0.99264
355,1390,3.31186,-0.0197666,0.263915,0.99296
357,1388,3.31158,-0.0198704,0.264314,0.992641
359,1386,3.31139,-0.0205445,0.264637,0.992321
361,1384,3.31188,-0.0205235,0.264316,0.992355
363,1382,3.31383,-0.0171977,0.26288,0.992026
365,1380,3.31303,-0.0179868,0.263301,0.991466
367,1378,3.31349,-0.0178106,0.262895,0.991795
369,1376,3.31332,-0.0185972,0.263308,0.991202
371,1374,3.3125,-0.0185852,0.263306,0.991207
373,1372,3.31297,-0.0185175,0.2633,0.99122
375,1370,3.31295,-0.0185485,0.263299,0.991196
377,1368,3.31233,-0.0193451,0.263708,0.99058
379,1366,3.31233,-0.019217,0.263712,0.990655
381,1364,3.31212,-0.0192251,0.263693,0.99059
383,1362,3.31141,-0.0193447,0.263706,0.990575
385,1360,3.3117,-0.0199361,0.263704,0.99027
387,1358,3.31093,-0.0200326,0.264116,0.989978
389,1356,3.31148,-0.0200274,0.263701,0.988981
391,1354,3.31144,-0.0207233,0.264125,0.989705
393,1352,3.3114,-0.0207186,0.264123,0.989698
395,1350,3.31296,-0.0173188,0.262674,0.989425
397,1348,3.31313,-0.0179213,0.263002,0.989147
399,1346,3.31232,-0.0180383,0.26309,0.988845
401,1344,3.31265,-0.0179858,0.262681,0.989131
403,1342,3.31281,-0.0186659,0.263088,0.988561
405,1340,3.31283,-0.0187434,0.263096,0.988527
407,1338,3.31245,-0.0187713,0.263096,0.988526
409,1336,3.31265,-0.019228,0.263088,0.988302
411,1334,3.31159,-0.0193832,0.26382,0.987986
413,1332,3.31122,-0.019448,0.263509,0.987957
415,1330,3.31204,-0.0193329,0.263093,0.988245
417,1328,3.31171,-0.0200398,0.263511,0.987696
419,1326,3.31131,-0.0201573,0.263511,0.98764
421,1324,3.31196,-0.0208254,0.263517,0.987342
423,1322,3.31082,-0.0208887,0.263932,0.987071
425,1320,3.31003,-0.0208296,0.263933,0.987123
427,1318,3.31328,-0.0173948,0.262063,0.987059
429,1316,3.31207,-0.0181002,0.26289,0.986236
431,1314,3.31211,-0.0180359,0.262476,0.986497
433,1312,3.31307,-0.0181116,0.262473,0.986241
435,1310,3.31231,-0.0188501,0.262885,0.985885
437,1308,3.31147,-0.0187973,0.262888,0.985906
439,1306,3.3121,-0.0189405,0.262886,0.98608
441,1304,3.31122,-0.0195345,0.263298,0.985292
443,1302,3.31095,-0.0196341,0.263306,0.985272
445,1300,3.3124,-0.0195566,0.263204,0.985572
447,1298,3.31131,-0.020187,0.263307,0.985027
449,1296,3.31098,-0.0201371,0.263317,0.985078
451,1294,3.3114,-0.0202873,0.263316,0.985026
453,1292,3.31008,-0.0209251,0.263439,0.984487
455,1290,3.31001,-0.0208843,0.263737,0.984498
457,1288,3.31264,-0.0176159,0.26228,0.984139
459,1286,3.312,-0.0181889,0.262274,0.98385
461,1284,3.31188,-0.0182568,0.262698,0.983592
463,1282,3.31217,-0.0181787,0.262278,0.983863
465,1280,3.31184,-0.0182019,0.262271,0.983843
467,1278,3.31158,-0.0187736,0.262684,0.983322
469,1276,3.31143,-0.0188908,0.262682,0.983241
471,1274,3.31143,-0.018981,0.262995,0.983228
473,1272,3.312,-0.019602,0.262695,0.982972
475,1270,3.31104,-0.0196567,0.263113,0.982707
477,1268,3.31078,-0.0203883,0.263219,0.982394
479,1266,3.3109,-0.020383,0.263126,0.982418
481,1264,3.31052,-0.0203012,0.263117,0.982413
483,1262,3.31007,-0.020335,0.263114,0.982391
485,1260,3.31079,-0.0210871,0.263104,0.982017
487,1258,3.31011,-0.0209413,0.263103,0.982079
489,1256,3.30903,-0.0211086,0.263524,0.981764
491,1254,3.31213,-0.0175644,0.26164,0.981736
493,1252,3.31139,-0.0183603,0.262059,0.981104
495,1250,3.3112,-0.018224,0.262047,0.981146
497,1248,3.31216,-0.0184298,0.26206,0.981112
499,1246,3.31087,-0.0191816,0.262478,0.980491
501,1244,3.31073,-0.0190348,0.262479,0.980566
503,1242,3.31138,-0.018995,0.262062,0.980838
505,1240,3.31039,-0.019729,0.262474,0.980235
507,1238,3.31075,-0.0196696,0.262481,0.980282
509,1236,3.31096,-0.0197739,0.262476,0.980221
511,1234,3.30998,-0.0205459,0.262891,0.979607
513,1232,3.31068,-0.0204176,0.262472,0.979921
515,1230,3.30941,-0.0205336,0.262617,0.979612
517,1228,3.30869,-0.0212571,0.26331,0.979028
519,1226,3.30973,-0.0212151,0.26319,0.979264
521,1224,3.30908,-0.0211326,0.262884,0.979318
523,1222,3.30929,-0.0211983,0.26289,0.979275
525,1220,3.31152,-0.018607,0.261842,0.97833
527,1218,3.31058,-0.0185001,0.261842,0.978387
529,1216,3.31081,-0.0184186,0.261851,0.978457
531,1214,3.31122,-0.0191951,0.261858,0.978116
533,1212,3.31057,-0.019245,0.261856,0.978092
535,1210,3.31126,-0.0197691,0.261856,0.977863
537,1208,3.31019,-0.019909,0.262605,0.977549
539,1206,3.30975,-0.0199315,0.262276,0.977531
541,1204,3.31,-0.0198919,0.262267,0.977533
543,1202,3.30977,-0.0204705,0.262263,0.977262
545,1200,3.3094,-0.0205035,0.262265,0.977236
547,1198,3.31005,-0.0207715,0.26227,0.97712
549,1196,3.30869,-0.0213637,0.26269,0.976609
551,1194,3.30867,-0.0213125,0.262689,0.976629
553,1192,3.31126,-0.0179307,0.261226,0.976291
555,1190,3.31106,-0.0185638,0.261229,0.976015
557,1188,3.31124,-0.0184324,0.261235,0.976104
559,1186,3.31097,-0.0192523,0.261658,0.97548
561,1184,3.31025,-0.0193005,0.261658,0.975481
563,1182,3.31037,-0.0193147,0.261655,0.975454
565,1180,3.31011,-0.0198658,0.261652,0.975195
567,1178,3.30928,-0.0200279,0.262072,0.974858
569,1176,3.31051,-0.0200601,0.261648,0.975088
571,1174,3.30957,-0.0199707,0.26164,0.975095
573,1172,3.3092,-0.0206505,0.262158,0.974544
575,1170,3.30911,-0.0207082,0.262063,0.974507
577,1168,3.3087,-0.0206969,0.262057,0.97451
579,1166,3.30938,-0.0207728,0.262058,0.974464
581,1164,3.30866,-0.0216013,0.262334,0.973864
583,1162,3.3107,-0.0178174,0.260593,0.973942
585,1160,3.31104,-0.0187933,0.26103,0.973295
587,1158,3.31001,-0.0186311,0.261026,0.973352
589,1156,3.3106,-0.0192229,0.261031,0.97311
591,1154,3.31038,-0.0194989,0.261457,0.972747
593,1152,3.30915,-0.0193731,0.261456,0.97279
595,1150,3.31014,-0.0192163,0.261019,0.973097
597,1148,3.30935,-0.0201171,0.261439,0.972413
599,1146,3.30903,-0.0201584,0.261457,0.972234
601,1144,3.31031,-0.0201285,0.261017,0.97266
603,1142,3.30937,-0.0207742,0.261441,0.972114
605,1140,3.30855,-0.0208296,0.261864,0.971841
607,1138,3.30884,-0.0216869,0.261866,0.971456
609,1136,3.30821,-0.0216018,0.261966,0.9715
611,1134,3.30847,-0.0215079,0.261875,0.971559
613,1132,3.3104,-0.0187717,0.260836,0.970688
615,1130,3.30998,-0.0187556,0.26083,0.970688
617,1128,3.31006,-0.0188397,0.260831,0.970653
619,1126,3.30959,-0.019375,0.260833,0.970419
621,1124,3.30897,-0.0195605,0.261264,0.970082
623,1122,3.31005,-0.0195376,0.260835,0.970344
625,1120,3.30928,-0.020289,0.261262,0.969759
627,1118,3.30889,-0.0201929,0.261266,0.969813
629,1116,3.30857,-0.021043,0.261694,0.969185
631,1114,3.30793,-0.0210664,0.261693,0.969167
633,1112,3.30928,-0.0210156,0.261569,0.969442
635,1110,3.30818,-0.0216877,0.261693,0.968906
637,1108,3.30796,-0.0216449,0.261689,0.9689
639,1106,3.31021,-0.0181446,0.26021,0.968593
641,1104,3.30888,-0.018858,0.260638,0.968024
643,1102,3.31014,-0.0188168,0.260213,0.968304
645,1100,3.30939,-0.019614,0.260641,0.967696
647,1098,3.30923,-0.0195599,0.260638,0.967709
649,1096,3.30957,-0.019764,0.260649,0.96764
651,1094,3.3088,-0.0202604,0.260645,0.967408
653,1092,3.30873,-0.0203292,0.261079,0.967138
655,1090,3.30857,-0.0204687,0.261084,0.967096
657,1088,3.30834,-0.0210885,0.261078,0.966807
659,1086,3.30816,-0.021167,0.261398,0.966775
661,1084,3.30756,-0.0210255,0.261075,0.966837
663,1082,3.30714,-0.02183,0.261509,0.966233
665,1080,3.30801,-0.0218356,0.261079,0.966489
667,1078,3.30991,-0.0190564,0.260022,0.965574
669,1076,3.30937,-0.0189578,0.260019,0.965603
671,1074,3.30894,-0.0188458,0.260015,0.965645
673,1072,3.30932,-0.019676,0.260015,0.965276
675,1070,3.30952,-0.0197688,0.260017,0.965245
677,1068,3.30906,-0.0197766,0.26002,0.965339
679,1066,3.3082,-0.0204301,0.260448,0.964704
681,1064,3.308,-0.0204235,0.26045,0.964728
683,1062,3.30781,-0.0204329,0.260446,0.964705
685,1060,3.30826,-0.0211959,0.260445,0.964344
687,1058,3.30819,-0.0211248,0.260448,0.964404
689,1056,3.30734,-0.0211501,0.260874,0.96412
691,1054,3.30744,-0.022095,0.260879,0.96371
693,1052,3.30674,-0.0219739,0.260876,0.96376
695,1050,3.31013,-0.0182497,0.258949,0.963751
697,1048,3.30921,-0.0189442,0.25938,0.96319
699,1046,3.30816,-0.0190654,0.260138,0.962882
701,1044,3.30895,-0.0199198,0.259817,0.962513
703,1042,3.30785,-0.0197451,0.259814,0.962585
705,1040,3.30914,-0.0197121,0.259381,0.962856
707,1038,3.30835,-0.0205138,0.259812,0.962257
709,1036,3.30719,-0.0206843,0.260248,0.961912
711,1034,3.30804,-0.021438,0.260247,0.961577
713,1032,3.30698,-0.0213541,0.260169,0.961786
715,1030,3.30825,-0.0211259,0.260115,0.961977
717,1028,3.30714,-0.0220069,0.260245,0.961326
719,1026,3.30624,-0.0221279,0.26068,0.961022
721,1024,3.30913,-0.018487,0.258744,0.960955
723,1022,3.30837,-0.0192129,0.259172,0.960362
725,1020,3.30933,-0.0191109,0.258746,0.960688
727,1018,3.30791,-0.0199969,0.259616,0.959799
729,1016,3.30767,-0.0200487,0.259625,0.959798
731,1014,3.30793,-0.02005,0.25971,0.959786
733,1012,3.30777,-0.0207927,0.259626,0.95949
735,1010,3.30836,-0.020605,0.25919,0.959811
737,1008,3.30693,-0.0215484,0.260061,0.958893
739,1006,3.30695,-0.0213106,0.259623,0.959257
741,1004,3.30677,-0.0215975,0.260051,0.958857
743,1002,3.30647,-0.0223278,0.260055,0.95854
745,1000,3.30904,-0.0184718,0.258551,0.958321
747,998,3.30868,-0.0193139,0.25856,0.957954
749,996,3.3078,-0.019337,0.258991,0.957697
751,994,3.30877,-0.0193474,0.258556,0.957948
753,992,3.30792,-0.0201335,0.258996,0.95713
755,990,3.30782,-0.0200366,0.258995,0.957414
757,988,3.30746,-0.0206737,0.258997,0.957136
759,986,3.30654,-0.0207798,0.259439,0.956844
761,984,3.3079,-0.0209073,0.258993,0.957033
763,982,3.30696,-0.0216826,0.259432,0.956434
765,980,3.30701,-0.0216691,0.259439,0.956465
767,978,3.30652,-0.0222406,0.259436,0.956216
769,976,3.30619,-0.0221784,0.259434,0.956237
771,974,3.30833,-0.0194874,0.258376,0.955095
773,972,3.30778,-0.0194364,0.258371,0.955273
775,970,3.30786,-0.0195236,0.258372,0.955238
777,968,3.30751,-0.0200736,0.258363,0.95498
779,966,3.30788,-0.0201412,0.258364,0.954944
781,964,3.30745,-0.0209585,0.258802,0.954335
783,962,3.30654,-0.0209637,0.258793,0.954303
785,960,3.30675,-0.0210822,0.258788,0.954236
787,958,3.30613,-0.021606,0.259089,0.954004
789,956,3.30679,-0.0216489,0.258784,0.953984
791,954,3.30609,-0.0216405,0.258778,0.95396
793,952,3.30518,-0.0225631,0.259334,0.953185
795,950,3.30796,-0.0189081,0.257735,0.953058
797,948,3.30795,-0.01954,0.25773,0.952778
799,946,3.30813,-0.019469,0.257728,0.952813
801,944,3.30708,-0.0203365,0.258172,0.952179
803,942,3.30653,-0.0202184,0.258168,0.952222
805,940,3.30756,-0.0202726,0.257727,0.952458
807,938,3.3066,-0.0210789,0.258167,0.951851
809,936,3.30666,-0.0211265,0.258162,0.951831
811,934,3.30585,-0.0218391,0.258352,0.951256
813,932,3.30644,-0.0216952,0.258155,0.951544
815,930,3.30624,-0.0227187,0.258614,0.950877
817,928,3.30531,-0.0225426,0.258604,0.950942
819,926,3.30767,-0.0189772,0.257098,0.950593
821,924,3.30703,-0.0196568,0.257538,0.950051
823,922,3.30749,-0.0199593,0.257543,0.949939
825,920,3.30684,-0.0203848,0.257536,0.949748
827,918,3.30687,-0.0203281,0.257538,0.949769
829,916,3.30657,-0.0212537,0.25798,0.949356
831,914,3.30619,-0.0212392,0.25798,0.949132
833,912,3.30644,-0.0213493,0.257987,0.949081
835,910,3.30548,-0.02195,0.258369,0.94881
837,908,3.3059,-0.0218872,0.257981,0.948845
839,906,3.30566,-0.0226255,0.257984,0.94853
841,904,3.30528,-0.0227516,0.258424,0.948206
843,902,3.30725,-0.0190832,0.256895,0.947843
845,900,3.30671,-0.0197433,0.256894,0.947547
847,898,3.30744,-0.0198664,0.256903,0.947524
849,896,3.30626,-0.0206599,0.257347,0.946934
851,894,3.30666,-0.0204194,0.256899,0.947275
853,892,3.3058,-0.0212894,0.257339,0.946645
855,890,3.30598,-0.0213,0.257431,0.946652
857,888,3.30637,-0.0221193,0.257349,0.946306
859,886,3.30509,-0.0221462,0.257778,0.946003
861,884,3.3058,-0.0220995,0.25733,0.946266
863,882,3.30464,-0.0228954,0.257776,0.945659
865,880,3.30503,-0.022916,0.257866,0.945665
867,878,3.30624,-0.0190398,0.256241,0.945375
869,876,3.30611,-0.0199182,0.256692,0.944747
871,874,3.30689,-0.0199238,0.256247,0.945209
873,872,3.30608,-0.0206634,0.256694,0.944423
875,870,3.30658,-0.0207535,0.256706,0.944444
877,868,3.30504,-0.0215898,0.25746,0.943849
879,866,3.30614,-0.0214535,0.256719,0.944201
881,864,3.30524,-0.0222179,0.257159,0.943596
883,862,3.30494,-0.0221986,0.257162,0.943606
885,860,3.30494,-0.0228778,0.257148,0.943274
887,858,3.3048,-0.0228944,0.257158,0.943282
889,856,3.3069,-0.0200584,0.25608,0.942312
891,854,3.30601,-0.0201245,0.256071,0.942259
893,852,3.30612,-0.0200596,0.256071,0.942299
895,850,3.30602,-0.0207554,0.256063,0.941982
897,848,3.30633,-0.0206939,0.256449,0.942005
899,846,3.30509,-0.0215166,0.256513,0.941406
901,844,3.30508,-0.0215063,0.256514,0.941214
903,842,3.30542,-0.0224378,0.256518,0.941025
905,840,3.30462,-0.0223367,0.256526,0.941102
907,838,3.30468,-0.023226,0.256974,0.940476
909,836,3.30366,-0.0231382,0.256967,0.940485
911,834,3.30706,-0.0202059,0.25584,0.939854
913,832,3.3063,-0.0201417,0.255445,0.939856
915,830,3.30576,-0.0208554,0.255887,0.939296
917,828,3.30565,-0.0208777,0.255886,0.939286
919,826,3.30559,-0.0216477,0.255897,0.938971
921,824,3.30527,-0.0216229,0.255883,0.938953
923,822,3.30395,-0.0217945,0.256342,0.938636
925,820,3.30475,-0.0226688,0.256343,0.938271
927,818,3.30455,-0.022598,0.256337,0.938282
929,816,3.30462,-0.0233059,0.25634,0.937999
931,814,3.30548,-0.0194849,0.255247,0.937392
933,812,3.3061,-0.0201586,0.255255,0.937143
935,810,3.305525,-0.0201593,0.25525,0.937132
937,808,3.30494,-0.0209958,0.255706,0.936519
939,806,3.30548,-0.0210082,0.255256,0.936778
941,804,3.30497,-0.0218105,0.255708,0.936194
943,802,3.30506,-0.0219357,0.255708,0.93743
945,800,3.30387,-0.0224924,0.255707,0.935901
947,798,3.30466,-0.0226626,0.256008,0.93584
949,796,3.30363,-0.0234812,0.256163,0.935234
951,794,3.30445,-0.0233801,0.256024,0.935537
953,792,3.30553,-0.0202203,0.254617,0.934657
955,790,3.30615,-0.020311,0.254619,0.934633
957,788,3.30527,-0.021005,0.254617,0.934336
959,786,3.30439,-0.0210939,0.25507,0.934046
961,784,3.30459,-0.0218808,0.255066,0.933702
963,782,3.3044,-0.021888,0.255147,0.933688
965,780,3.30414,-0.0228632,0.255518,0.933026
967,778,3.30324,-0.0227836,0.255521,0.933068
969,776,3.30409,-0.0227505,0.255067,0.933339
971,774,3.30324,-0.0236222,0.25552,0.932715
973,772,3.30531,-0.0196922,0.253973,0.932414
975,770,3.30493,-0.0203831,0.253969,0.932112
977,768,3.3058,-0.0204459,0.253976,0.932117
979,766,3.30446,-0.0211991,0.254431,0.931551
981,764,3.30431,-0.0211355,0.254032,0.931557
983,762,3.30416,-0.0220902,0.254427,0.931163
985,760,3.30399,-0.0220551,0.254429,0.931174
987,758,3.30328,-0.0229155,0.25488,0.930553
989,756,3.30283,-0.0228922,0.25488,0.930797
991,754,3.30364,-0.0238522,0.254882,0.930164
993,752,3.30248,-0.0236162,0.254865,0.930211
995,750,3.30453,-0.0207691,0.253778,0.929191
997,748,3.30428,-0.0207362,0.254095,0.929231
999,746,3.30471,-0.0215003,0.253788,0.928939
1001,744,3.30403,-0.0213509,0.253781,0.928991
1003,742,3.30434,-0.0221269,0.253786,0.928682
1005,740,3.30338,-0.0223333,0.254245,0.928346
1007,738,3.30322,-0.0230256,0.254249,0.928062
1009,736,3.30246,-0.0229503,0.254243,0.928093
1011,734,3.30306,-0.0237282,0.254238,0.927753
1013,732,3.30483,-0.0206646,0.253139,0.926814
1015,730,3.30442,-0.0206733,0.253143,0.926822
1017,728,3.303676,-0.0215664,0.253608,0.926188
1019,726,3.30344,-0.0215345,0.253603,0.926197
1021,724,3.30355,-0.0216326,0.253603,0.926157
1023,722,3.3031,-0.0222985,0.253601,0.92588
1025,720,3.30375,-0.0225639,0.253602,0.925772
1027,718,3.30287,-0.0230629,0.253901,0.92558
1029,716,3.30239,-0.0240462,0.254073,0.924938
1031,714,3.30467,-0.0201816,0.252528,0.92464
1033,712,3.30486,-0.0208554,0.252516,0.924329
1035,710,3.30365,-0.0210063,0.252966,0.923974
1037,708,3.30402,-0.0217156,0.25297,0.92368
1039,706,3.30359,-0.0216864,0.252975,0.92371
1041,704,3.30349,-0.0224772,0.252973,0.923383
1043,702,3.30287,-0.0223777,0.252968,0.923411
1045,700,3.303,-0.0234058,0.253428,0.92273
1047,698,3.30227,-0.0240608,0.253749,0.922448
1049,696,3.30189,-0.0239764,0.253426,0.922482
1051,694,3.30422,-0.0209173,0.251861,0.921785
1053,692,3.30356,-0.0209859,0.25232,0.921477
1055,690,3.3032,-0.0217634,0.252068,0.921146
1057,688,3.3032,-0.0217806,0.252315,0.921137
1059,686,3.30292,-0.0226958,0.25279,0.920546
1061,684,3.30239,-0.023328,0.252793,0.9203
1063,682,3.30227,-0.0233248,0.252793,0.920318
1065,680,3.30178,-0.0242984,0.253262,0.919663
1067,678,3.30152,-0.0243319,0.253254,0.919625
1069,676,3.30361,-0.0210345,0.251689,0.919017
1071,674,3.30369,-0.0210123,0.251688,0.919039
1073,672,3.30243,-0.0219791,0.252143,0.91835
1075,670,3.30229,-0.0220187,0.252141,0.918317
1077,668,3.30263,-0.0228249,0.252146,0.918009
1079,666,3.30275,-0.0236355,0.252139,0.917661
1081,664,3.30092,-0.0235693,0.252608,0.917417
1083,662,3.30224,-0.0236634,0.252435,0.917655
1085,660,3.30084,-0.0243928,0.252606,0.917078
1087,658,3.30352,-0.0210598,0.250968,0.916451
1089,656,3.30335,-0.0211583,0.251025,0.916432
1091,654,3.30286,-0.0221328,0.251489,0.915777
1093,652,3.30186,-0.0220662,0.251497,0.915809
1095,650,3.30234,-0.0227592,0.25148,0.915503
1097,648,3.30145,-0.0238785,0.251961,0.914801
1099,646,3.30119,-0.0239012,0.251964,0.914804
1101,644,3.30137,-0.0246341,0.25197,0.914531
1103,642,3.3036,-0.0205595,0.250391,0.914466
1105,640,3.30219,-0.0213872,0.250859,0.913619
1107,638,3.3028,-0.0222297,0.250551,0.913305
1109,636,3.30252,-0.0222379,0.250856,0.913271
1111,634,3.30141,-0.0231376,0.251327,0.912655
1113,632,3.30184,-0.0229057,0.250852,0.913017
1115,630,3.30147,-0.0239044,0.251325,0.912348
1117,628,3.30025,-0.0248224,0.251796,0.911701
1119,626,3.30124,-0.0247225,0.251324,0.91201
1121,624,3.30271,-0.0214976,0.250217,0.911094
1123,622,3.30174,-0.02245,0.250686,0.910452
1125,620,3.30137,-0.0223354,0.250688,0.910503
1127,618,3.30207,-0.0232597,0.250695,0.91016
1129,616,3.3013,-0.0231463,0.250694,0.910199
1131,614,3.3004,-0.0240339,0.251124,0.909567
1133,612,3.30071,-0.0248961,0.251162,0.90922
1135,610,3.2999,-0.0247966,0.251153,0.909253
1137,608,3.30292,-0.0215545,0.249565,0.908578
1139,606,3.30184,-0.022462,0.250036,0.90795
1141,604,3.30206,-0.0222976,0.249558,0.908271
1143,602,3.30115,-0.0232498,0.250033,0.907625
1145,600,3.30145,-0.0232776,0.250032,0.907624
1147,598,3.30026,-0.0241264,0.250505,0.907011
1149,596,3.30101,-0.0240887,0.250318,0.907284
1151,594,3.30225,-0.0208122,0.248914,0.906366
1153,592,3.30149,-0.021782,0.249393,0.905719
1155,590,3.30173,-0.0226505,0.249396,0.90539
1157,588,3.30172,-0.0226779,0.249394,0.905385
1159,586,3.30038,-0.0235751,0.249887,0.904807
1161,584,3.30134,-0.023505,0.249406,0.905088
1163,582,3.29984,-0.0242989,0.249871,0.90448
1165,580,3.30048,-0.0252504,0.249869,0.904087
1167,578,3.30209,-0.0219399,0.249062,0.903177
1169,576,3.30165,-0.0220032,0.248742,0.903131
1171,574,3.30059,-0.0227639,0.249214,0.902536
1173,572,3.30155,-0.0227689,0.248733,0.902807
1175,570,3.30018,-0.023637,0.249213,0.902191
1177,568,3.30011,-0.0244338,0.24921,0.902103
1179,566,3.29994,-0.0244289,0.249212,0.901875
1181,564,3.29865,-0.0253893,0.249692,0.901232
1183,562,3.30177,-0.0219961,0.248075,0.900574
1185,560,3.30095,-0.0219929,0.248076,0.900586
1187,558,3.30086,-0.0226877,0.248073,0.900291
1189,556,3.30035,-0.023881,0.248563,0.89958
1191,554,3.29999,-0.0238461,0.248557,0.899586
1193,552,3.2997,-0.0245481,0.248564,0.899332
1195,550,3.29948,-0.0256094,0.249042,0.898624
1197,548,3.30085,-0.0212644,0.247469,0.898333
1199,546,3.3014,-0.0222256,0.24743,0.897969
1201,544,3.30055,-0.0230824,0.247909,0.897352
1203,542,3.30022,-0.0230751,0.2479,0.897343
1205,540,3.29984,-0.02384,0.2479,0.897023
1207,538,3.29894,-0.0248564,0.248376,0.896361
1209,536,3.29915,-0.0247124,0.248378,0.896426
1211,534,3.29852,-0.0257204,0.24838,0.896018
1213,532,3.30105,-0.0221901,0.246758,0.895411
1215,530,3.29986,-0.0223609,0.247248,0.895092
1217,528,3.3005,-0.0232039,0.247524,0.894741
1219,526,3.29888,-0.0241818,0.247724,0.894093
1221,524,3.29909,-0.0242954,0.247735,0.894311
1223,522,3.29871,-0.024949,0.247729,0.893815
1225,520,3.29778,-0.0259044,0.248221,0.893185
1227,518,3.30083,-0.0224628,0.246594,0.892536
1229,516,3.29991,-0.0232355,0.246599,0.892249
1231,514,3.30024,-0.0232195,0.246601,0.892081
1233,512,3.29906,-0.0242921,0.247079,0.891542
1235,510,3.29924,-0.0251178,0.247395,0.89122
1237,508,3.29811,-0.0251573,0.247072,0.891184
1239,506,3.30062,-0.0218814,0.24594,0.890211
1241,504,3.2999,-0.0225603,0.246002,0.889906
1243,502,3.29943,-0.0235486,0.246414,0.889267
1245,500,3.29888,-0.0234597,0.246414,0.889277
1247,498,3.29872,-0.0243971,0.246423,0.888948
1249,496,3.29899,-0.0252198,0.246824,0.888623
1251,494,3.29734,-0.0260699,0.246905,0.888008
1253,492,3.30065,-0.0219267,0.245277,0.887636
1255,490,3.29886,-0.0227783,0.245769,0.887042
1257,488,3.2994,-0.0237428,0.245771,0.886678
1259,486,3.29803,-0.0242301,0.246264,0.886211
1261,484,3.29778,-0.0254517,0.24626,0.885745
1263,482,3.298,-0.0254302,0.246256,0.885751
1265,480,3.29666,-0.0264143,0.246751,0.885094
1267,478,3.29958,-0.0229678,0.245428,0.884419
1269,476,3.29815,-0.0239101,0.2456,0.883778
1271,474,3.29827,-0.0239906,0.245597,0.883736
1273,472,3.29812,-0.0247161,0.245603,0.883477
1275,470,3.29711,-0.0255688,0.245599,0.883138
1277,468,3.29776,-0.0256119,0.245593,0.883107
1279,466,3.29869,-0.02219,0.244445,0.882136
1281,464,3.29934,-0.0231473,0.244444,0.88177
1283,462,3.29758,-0.0239831,0.244937,0.881179
1285,460,3.29738,-0.0248663,0.244933,0.880832
1287,458,3.29801,-0.025721,0.244937,0.880508
1289,456,3.29643,-0.0266599,0.245432,0.879879
1291,454,3.2992,-0.0222857,0.243785,0.879551
1293,452,3.29847,-0.0231841,0.243782,0.879189
1295,450,3.29804,-0.0242298,0.244277,0.878514
1297,448,3.29707,-0.0250873,0.244779,0.87792
1299,446,3.29643,-0.025909,0.244766,0.877595
1301,444,3.29678,-0.0260472,0.244772,0.877554
1303,442,3.2984,-0.0223979,0.243112,0.876898
1305,440,3.29815,-0.0234569,0.243882,0.876238
1307,438,3.29742,-0.0242519,0.243614,0.875927
1309,436,3.29687,-0.025284,0.244115,0.875276
1311,434,3.29737,-0.0250419,0.243611,0.875646
1313,432,3.29567,-0.0260937,0.244429,0.874963
1315,430,3.29927,-0.0226848,0.242452,0.874234
1317,428,3.29737,-0.0234522,0.242951,0.87366
1319,426,3.29726,-0.0243522,0.242952,0.873323
1321,424,3.29675,-0.0253469,0.243449,0.872681
1323,422,3.29614,-0.026193,0.243768,0.872361
1325,420,3.29564,-0.027428,0.243958,0.871629
1327,418,3.29726,-0.0227559,0.242291,0.871351
1329,416,3.29752,-0.0236187,0.242287,0.871031
1331,414,3.29673,-0.0246573,0.242789,0.870359
1333,412,3.296,-0.0255211,0.242794,0.870041
1335,410,3.29572,-0.0266653,0.243296,0.869336
1337,408,3.29482,-0.0273522,0.243303,0.869077
1339,406,3.29659,-0.0238094,0.242387,0.868061
1341,404,3.29674,-0.024819,0.242123,0.8677
1343,402,3.29573,-0.0259386,0.242631,0.866994
1345,400,3.29511,-0.0265998,0.242624,0.866745
1347,398,3.29525,-0.0266195,0.24263,0.866749
1349,396,3.29711,-0.0230649,0.240951,0.86603
1351,394,3.29671,-0.0240958,0.24145,0.865361
1353,392,3.29598,-0.0248408,0.241861,0.865072
1355,390,3.2954,-0.0259442,0.241961,0.864395
1357,388,3.29522,-0.0268369,0.241961,0.864059
1359,386,3.29354,-0.0278502,0.24247,0.863402
1361,384,3.29674,-0.0240953,0.240787,0.86276
1363,382,3.29565,-0.0251368,0.241299,0.862102
1365,380,3.29518,-0.0261318,0.241294,0.86172
1367,378,3.29511,-0.0268128,0.241295,0.861478
1369,376,3.29428,-0.0280251,0.241809,0.860751
1371,374,3.2959,-0.0242333,0.240118,0.860091
1373,372,3.29657,-0.0243688,0.240115,0.860047
1375,370,3.29496,-0.0262558,0.240631,0.859069
1377,368,3.29463,-0.0262111,0.24062,0.859084
1379,366,3.29472,-0.0270819,0.240623,0.85877
1381,364,3.29602,-0.0235862,0.23944,0.857485
1383,362,3.29498,-0.0245201,0.239948,0.857056
1385,360,3.29529,-0.0254088,0.239951,0.856744
1387,358,3.29388,-0.0265993,0.240467,0.856017
1389,356,3.29337,-0.0273811,0.24088,0.85572
1391,354,3.29628,-0.0235924,0.238757,0.855046
1393,352,3.29508,-0.0247007,0.239276,0.854362
1395,350,3.29376,-0.0257194,0.240059,0.853708
1397,348,3.29407,-0.0266035,0.239788,0.853376
1399,346,3.29327,-0.027594,0.239794,0.853033
1401,344,3.2923,-0.028599,0.24031,0.852364
1403,342,3.29506,-0.0247974,0.238598,0.851696
1405,340,3.29351,-0.0257548,0.239114,0.851037
1407,338,3.2935,-0.0268995,0.239112,0.85063
1409,336,3.29377,-0.025219,0.238592,0.849214
1411,334,3.29521,-0.0224166,0.237399,0.849041
1413,332,3.29438,-0.0227451,0.237919,0.848622
1415,330,3.29393,-0.03316,0.237912,0.848356
1417,328,3.2931,-0.0243047,0.237912,0.848055
1419,326,3.29234,-0.0337298,0.237912,0.847008
1421,324,3.2955,-0.02732,0.23593,0.846372
1423,322,3.29361,-0.0308028,0.236703,0.845681
1425,320,3.2938,-0.0295959,0.236187,0.845262
1427,318,3.29323,-0.0279236,0.236182,0.84471
1429,316,3.29142,-0.0336236,0.237225,0.844391
1431,314,3.29491,-0.0228253,0.234459,0.843321
1433,312,3.29439,-0.0235469,0.234459,0.843059
1435,310,3.29296,-0.0246859,0.234975,0.842362
1437,308,3.29273,-0.0353868,0.234968,0.842012
1439,306,3.2948,-0.0314722,0.233249,0.841354
1441,304,3.29405,-0.0227919,0.233764,0.840676
1443,302,3.29329,-0.0321886,0.233765,0.839673
1445,300,3.29364,-0.0318517,0.233241,0.840061
1447,298,3.29144,-0.0340977,0.234284,0.838698
1449,296,3.29501,-0.0253914,0.231762,0.837998
1451,294,3.294,-0.0277786,0.232031,0.838017
1453,292,3.29306,-0.0298158,0.232543,0.83699
1455,290,3.29305,-0.0257235,0.231507,0.836713
1457,288,3.29308,-0.0265852,0.231502,0.836395
1459,286,3.2936,-0.0279921,0.231321,0.83527
1461,284,3.29388,-0.0336616,0.230287,0.835026
1463,282,3.29324,-0.034759,0.230796,0.834352
1465,280,3.29259,-0.0258669,0.230799,0.834002
1467,278,3.2941,-0.0294097,0.229066,0.833027
1469,276,3.29462,-0.0303319,0.229065,0.832706
1471,274,3.2925,-0.0349057,0.230098,0.830195
1473,272,3.29221,-0.0310093,0.229578,0.831027
1475,270,3.29216,-0.0319983,0.22958,0.83069
1477,268,3.2945,-0.0257223,0.227844,0.829681
1479,266,3.29301,-0.0289076,0.228352,0.829407
1481,264,3.29411,-0.0251999,0.227332,0.829018
1483,262,3.29219,-0.0285458,0.228355,0.828414
1485,260,3.29491,-0.0221078,0.226106,0.827745
1487,258,3.29371,-0.0332582,0.226613,0.827031
1489,256,3.29369,-0.03241,0.226101,0.826457
1491,254,3.29272,-0.0250586,0.2266,0.826384
1493,252,3.29264,-0.0296114,0.225579,0.825393
1495,250,3.29423,-0.028176,0.224858,0.824407
1497,248,3.29351,-0.02923,0.224855,0.82404
1499,246,3.29337,-0.0275438,0.224339,0.823745
1501,244,3.29234,-0.0287994,0.224845,0.823012
1503,242,3.29471,-0.0247134,0.223102,0.822363
1505,240,3.29385,-0.0242765,0.22351,0.82135
1507,238,3.294,-0.0252795,0.223092,0.821002
1509,236,3.29193,-0.036315,0.223364,0.820376
1511,234,3.2943,-0.0224396,0.222358,0.819325
1513,232,3.29365,-0.0335461,0.222367,0.818997
1515,230,3.2937,-0.0320025,0.221859,0.818683
1517,228,3.29173,-0.0365748,0.222877,0.817696
1519,226,3.29522,-0.0249572,0.220111,0.816745
1521,224,3.29436,-0.0285046,0.220618,0.816399
1523,222,3.29298,-0.0295822,0.221119,0.815725
1525,220,3.2928,-0.027911,0.220615,0.815443
1527,218,3.29237,-0.0275105,0.220606,0.814416
1529,216,3.29469,-0.0233563,0.218851,0.813765
1531,214,3.29319,-0.0245698,0.21964,0.813046
1533,212,3.29261,-0.0356945,0.219346,0.812709
1535,210,3.29306,-0.0315377,0.218343,0.812414
1537,208,3.294,-0.0327932,0.218093,0.811349
1539,206,3.29365,-0.0311685,0.217585,0.811028
1541,204,3.29358,-0.0307648,0.217993,0.810016
1543,202,3.29159,-0.0317832,0.218081,0.809364
1545,200,3.29525,-0.0225862,0.215325,0.8087
1547,198,3.29352,-0.0263423,0.21632,0.808005
1549,196,3.29363,-0.0246577,0.215817,0.805577
1551,194,3.29221,-0.0267942,0.216323,0.806721
1553,192,3.29434,-0.0328836,0.21456,0.806069
1555,190,3.29516,-0.031374,0.214068,0.805744
1557,188,3.29311,-0.0351286,0.215064,0.805036
1559,186,3.29184,-0.036151,0.215567,0.804421
1561,184,3.29238,-0.0329966,0.214571,0.803763
1563,182,3.29454,-0.0290057,0.213345,0.802751
1565,180,3.29304,-0.0326534,0.213797,0.802397
1567,178,3.29335,-0.0259607,0.213077,0.801753
1569,176,3.29236,-0.0294991,0.213294,0.801424
1571,174,3.29479,-0.0239532,0.211527,0.800079
1573,172,3.29388,-0.0249154,0.21153,0.799766
1575,170,3.29274,-0.0363131,0.212013,0.799107
1577,168,3.29291,-0.0346818,0.211524,0.798801
1579,166,3.29379,-0.0239347,0.210737,0.797412
1581,164,3.29435,-0.0302201,0.209752,0.797059
1583,162,3.29279,-0.0339288,0.210738,0.796411
1585,160,3.29259,-0.0322125,0.210233,0.796094
1587,158,3.2942,-0.0282404,0.208958,0.795078
1589,156,3.29352,-0.0279469,0.209369,0.79404
1591,154,3.29413,-0.0260779,0.208464,0.793798
1593,152,3.29138,-0.0326134,0.209954,0.793093
1595,150,3.29499,-0.0231438,0.207387,0.792437
1597,148,3.29384,-0.0358508,0.207677,0.791416
1599,146,3.29326,-0.0366799,0.207678,0.791135
1601,144,3.29177,-0.0273828,0.208173,0.790474
1603,142,3.29522,-0.0284892,0.205407,0.78977
1605,140,3.29498,-0.0293103,0.205407,0.789507
1607,138,3.29402,-0.0288438,0.205405,0.788491
1609,136,3.29178,-0.0353041,0.20687,0.787812
1611,134,3.29207,-0.031163,0.205886,0.787435
1613,132,3.2954,-0.0268937,0.204112,0.786809
1615,130,3.29319,-0.0307547,0.205088,0.786103
1617,128,3.29316,-0.0275434,0.204591,0.785134
1619,126,3.29139,-0.0287413,0.205082,0.784446
1621,124,3.29425,-0.035069,0.203699,0.783801
1623,122,3.29363,-0.0255717,0.203288,0.783429
1625,120,3.29329,-0.0343576,0.202801,0.783159
1627,118,3.29593,-0.0287992,0.201017,0.78178
1629,116,3.29394,-0.0325307,0.201981,0.781119
1631,114,3.29399,-0.030825,0.201495,0.78083
1633,112,3.29254,-0.0329268,0.201979,0.779849
1635,110,3.29282,-0.0314893,0.201497,0.779482
1637,108,3.29548,-0.0245171,0.199705,0.77852
1639,106,3.29268,-0.031192,0.201159,0.777785
1641,104,3.29348,-0.0268652,0.200186,0.777472
1643,102,3.29209,-0.029005,0.200677,0.776522
1645,100,3.29469,-0.0356459,0.198898,0.775764
1647,98,3.29308,-0.0365608,0.199348,0.775394
1649,96,3.29329,-0.0331605,0.198383,0.774525
1651,94,3.29278,-0.0345369,0.198865,0.773814
1653,92,3.29447,-0.0327743,0.197546,0.773186
1655,90,3.29302,-0.0341645,0.198027,0.772437
1657,88,3.29332,-0.0305713,0.197058,0.771869
1659,86,3.29587,-0.0239588,0.195256,0.770776
1661,84,3.29526,-0.0355423,0.195258,0.770533
1663,82,3.29298,-0.0314428,0.19669,0.769792
1665,80,3.29254,-0.0390509,0.196207,0.768812
1667,78,3.29169,-0.0400688,0.196209,0.768502
1669,76,3.29531,-0.0330298,0.193918,0.768059
1671,74,3.29336,-0.0369928,0.194873,0.767141
1673,72,3.29349,-0.0334288,0.193915,0.766563
1675,70,3.2965,-0.0268638,0.192294,0.765473
1677,68,3.29508,-0.0304155,0.192588,0.76519
1679,66,3.29434,-0.0300504,0.192589,0.764169
1681,64,3.2938,-0.0389901,0.192117,0.763947
1683,62,3.29611,-0.0333105,0.190307,0.762539
1685,60,3.29648,-0.0342476,0.190308,0.762258
1687,58,3.29355,-0.0382555,0.191248,0.761549
1689,56,3.29384,-0.0365151,0.190774,0.761241
1691,54,3.296,-0.0307034,0.188963,0.759864
1693,52,3.29662,-0.0288822,0.188486,0.759584
1695,50,3.29466,-0.0329308,0.189426,0.758885
1697,48,3.2931,-0.0341808,0.189916,0.758189
1699,46,3.29693,-0.0253343,0.187139,0.758555
1701,44,3.29567,-0.0263828,0.1876,0.75655
1703,42,3.29475,-0.038388,0.187594,0.75624
1705,40,3.293412,-0.0316868,0.188545,0.75549
1707,38,3.29648,-0.025402,0.186242,0.754519
1709,36,3.29551,-0.0349503,0.186238,0.753837
1711,34,3.295156,-0.0358179,0.186479,0.753569
1713,32,3.29306,-0.0409797,0.18717,0.75254
1715,30,3.29567,-0.0340689,0.185343,0.751477
1717,28,3.29537,-0.0333476,0.184873,0.750861
1719,26,3.29465,-0.0318347,0.184879,0.75019
1721,24,3.29778,-0.0244901,0.182591,0.749573
1723,22,3.29631,-0.0268708,0.183053,0.748567
1725,20,3.29583,-0.036173,0.182589,0.748269
1727,18,3.29451,-0.0385487,0.183045,0.74723
1729,16,3.2973,-0.0339647,0.181199,0.746558
1731,14,3.29581,-0.0353453,0.181654,0.745819
1733,12,3.29491,-0.0373315,0.181646,0.745213
1735,10,3.29809,-0.0276549,0.179357,0.744116
1737,8,3.29755,-0.0314397,0.179812,0.744054
1739,6,3.29638,-0.0308175,0.179807,0.742851
1741,4,3.29592,-0.0319645,0.179805,0.742517
1742,3,3.29616,-0.0301066,0.179353,0.742237