File: hust_correlation_analysis/matrices/HUST_1-5_cycle_feature_matrix.csv
cycle_number,rul,voltage,current,capacity,charge_capacity
1,1973,3.31761,0.0419836,0.289579,1.04296
3,1971,3.29869,-0.0131454,0.313122,0.999613
5,1969,3.3009,-0.0142872,0.312121,1.002
7,1967,3.30268,-0.0135649,0.310786,1.00559
9,1965,3.30364,-0.0140779,0.310183,1.00808
11,1963,3.30668,-0.010833,0.308005,1.01089
13,1961,3.30745,-0.0113388,0.307513,1.01337
15,1959,3.30678,-0.012613,0.307462,1.0152
17,1957,3.30859,-0.0106938,0.306182,1.01689
19,1955,3.30813,-0.0124468,0.30615,1.01842
21,1953,3.3092,-0.0111738,0.305314,1.01958
23,1951,3.31037,-0.0111553,0.304465,1.01995
25,1949,3.31164,-0.00989305,0.303655,1.02109
27,1947,3.31183,-0.00926448,0.302825,1.02183
29,1945,3.31065,-0.0116553,0.303626,1.0226
31,1943,3.31082,-0.0116776,0.303196,1.02297
33,1941,3.31129,-0.0111093,0.302787,1.02322
35,1939,3.31201,-0.0104062,0.301971,1.02401
37,1937,3.31219,-0.0105213,0.302254,1.02397
39,1935,3.31246,-0.00988426,0.301561,1.02452
41,1933,3.31293,-0.0098598,0.301156,1.02471
43,1931,3.31329,-0.00978657,0.30075,1.02494
45,1929,3.31352,-0.00916366,0.300343,1.02547
47,1927,3.3136,-0.00980754,0.300341,1.02509
49,1925,3.31338,-0.00930506,0.300343,1.02541
51,1923,3.31395,-0.00979927,0.300337,1.0251
53,1921,3.3136,-0.00988245,0.299942,1.02526
55,1919,3.31361,-0.00988071,0.299867,1.02526
57,1917,3.31392,-0.0097862,0.299539,1.0255
59,1915,3.3139,-0.0103614,0.299538,1.02514
61,1913,3.31387,-0.0104245,0.299535,1.0251
63,1911,3.31381,-0.0103949,0.299533,1.02512
65,1909,3.31397,-0.0104076,0.299134,1.02528
67,1907,3.31411,-0.0109213,0.299131,1.02496
69,1905,3.31386,-0.0109336,0.299131,1.02496
71,1903,3.31378,-0.0110264,0.299133,1.02492
73,1901,3.31349,-0.0111395,0.299138,1.02485
75,1899,3.31422,-0.0115047,0.298744,1.02483
77,1897,3.31544,-0.00926851,0.297941,1.02404
79,1895,3.3158,-0.00919501,0.297546,1.02425
81,1893,3.31544,-0.00924293,0.297936,1.02403
83,1891,3.31567,-0.00919825,0.297538,1.02424
85,1889,3.31563,-0.00972405,0.297536,1.0239
87,1887,3.31556,-0.00966301,0.297531,1.02393
89,1885,3.31543,-0.00975169,0.297533,1.0239
91,1883,3.31536,-0.00980323,0.297531,1.02385
93,1881,3.31502,-0.0104747,0.297933,1.02329
95,1879,3.3153,-0.0103495,0.29754,1.02355
97,1877,3.31505,-0.0109983,0.297938,1.02298
99,1875,3.31495,-0.0109665,0.298053,1.02301
101,1873,3.31504,-0.01151,0.297937,1.02268
103,1871,3.31467,-0.0116038,0.297937,1.02262
105,1869,3.31628,-0.00866318,0.296735,1.0224
107,1867,3.31643,-0.00917568,0.296732,1.02207
109,1865,3.31624,-0.00916921,0.296731,1.02209
111,1863,3.3161,-0.00916994,0.296732,1.0221
113,1861,3.31586,-0.00985424,0.297214,1.0215
115,1859,3.31575,-0.0098665,0.29713,1.02149
117,1857,3.31549,-0.00989609,0.297129,1.02147
119,1855,3.31566,-0.0103967,0.297129,1.02117
121,1853,3.31552,-0.0103876,0.29741,1.02119
123,1851,3.31527,-0.0110052,0.297531,1.02064
125,1849,3.31508,-0.0110202,0.297532,1.02063
127,1847,3.31527,-0.0109431,0.297131,1.02084
129,1845,3.31494,-0.01158,0.297526,1.02027
131,1843,3.31475,-0.0116049,0.297525,1.02025
133,1841,3.31463,-0.0116141,0.297524,1.02023
135,1839,3.31658,-0.00916688,0.29632,1.01971
137,1837,3.3163,-0.00917473,0.296322,1.01971
139,1835,3.31628,-0.00922172,0.29632,1.01951
141,1833,3.31607,-0.0098229,0.296727,1.01916
143,1831,3.31592,-0.00981503,0.296727,1.01917
145,1829,3.31596,-0.00984426,0.296732,1.01918
147,1827,3.31554,-0.010438,0.297127,1.01863
149,1825,3.3154,-0.0104165,0.297399,1.01862
151,1823,3.31509,-0.0110744,0.297526,1.01806
153,1821,3.31527,-0.0109639,0.297059,1.01828
155,1819,3.31515,-0.0109257,0.297124,1.01831
157,1817,3.31471,-0.0110795,0.297524,1.01805
159,1815,3.31462,-0.0116909,0.297525,1.01767
161,1813,3.31452,-0.0116558,0.297525,1.01769
163,1811,3.31602,-0.00928239,0.296813,1.01697
165,1809,3.31596,-0.00932307,0.29673,1.01695
167,1807,3.31614,-0.00971959,0.296736,1.01673
169,1805,3.31575,-0.00990346,0.297143,1.01647
171,1803,3.3155,-0.00986305,0.297137,1.01628
173,1801,3.31536,-0.00999367,0.297143,1.01641
175,1799,3.31491,-0.0105,0.297617,1.01589
177,1797,3.31483,-0.0104973,0.297532,1.01588
179,1795,3.31478,-0.0104972,0.297526,1.01587
181,1793,3.31478,-0.0110973,0.297534,1.01551
183,1791,3.31471,-0.0110766,0.297531,1.01552
185,1789,3.31454,-0.0110724,0.297525,1.01551
187,1787,3.31413,-0.011772,0.297931,1.01491
189,1785,3.31403,-0.0117464,0.297935,1.01495
191,1783,3.31383,-0.0116639,0.298039,1.01496
193,1781,3.31383,-0.0116133,0.297911,1.01495
195,1779,3.3153,-0.00941146,0.297123,1.01414
197,1777,3.31517,-0.00936511,0.297125,1.01417
199,1775,3.31526,-0.00994456,0.297124,1.01381
201,1773,3.31505,-0.00999139,0.297129,1.0138
203,1771,3.31499,-0.0099647,0.297124,1.0138
205,1769,3.31463,-0.0105422,0.297532,1.01328
207,1767,3.3145,-0.0105566,0.29753,1.01326
209,1765,3.31449,-0.0105347,0.297532,1.0133
211,1763,3.31416,-0.0111937,0.297939,1.01272
213,1761,3.31434,-0.0111046,0.29765,1.01295
215,1759,3.31387,-0.0112566,0.297941,1.0127
217,1757,3.31385,-0.0118041,0.297939,1.01235
219,1755,3.31369,-0.0117563,0.297934,1.01237
221,1753,3.31543,-0.00879798,0.296722,1.01239
223,1751,3.31501,-0.00947665,0.297128,1.01154
225,1749,3.31486,-0.00935747,0.297119,1.01159
227,1747,3.31462,-0.00937608,0.297115,1.01155
229,1745,3.31452,-0.00940463,0.297109,1.01152
231,1743,3.31403,-0.00949914,0.297516,1.01128
233,1741,3.31464,-0.00991836,0.297506,1.011
235,1739,3.31389,-0.0100333,0.297787,1.01095
237,1737,3.31308,-0.0100133,0.298318,1.01055
239,1735,3.31326,-0.010224,0.297918,1.01064
241,1733,3.31242,-0.0103027,0.29833,1.0104
243,1731,3.31313,-0.0107055,0.297916,1.01034
245,1729,3.3133,-0.0112778,0.29792,1.01
247,1727,3.31314,-0.0112798,0.29783,1.01001
249,1725,3.31303,-0.0112184,0.297917,1.01003
251,1723,3.31274,-0.0118905,0.298329,1.00947
253,1721,3.31264,-0.0118941,0.298328,1.00946
255,1719,3.31252,-0.0118383,0.298323,1.00948
257,1717,3.31381,-0.00954833,0.297524,1.00868
259,1715,3.31415,-0.00954276,0.297203,1.00886
261,1713,3.31381,-0.0101189,0.297536,1.00838
263,1711,3.31422,-0.0100458,0.297124,1.0086
265,1709,3.3138,-0.0107098,0.297617,1.00801
267,1707,3.31365,-0.0106952,0.297533,1.00804
269,1705,3.31343,-0.010719,0.297531,1.00802
271,1703,3.31335,-0.0107919,0.297529,1.00796
273,1701,3.31325,-0.0112608,0.297526,1.00767
275,1699,3.31288,-0.0113364,0.297936,1.00745
277,1697,3.31274,-0.0113698,0.297933,1.00741
279,1695,3.31276,-0.0119488,0.298205,1.00706
281,1693,3.31261,-0.0120138,0.297939,1.00705
283,1691,3.31404,-0.00955838,0.297138,1.00634
285,1689,3.31394,-0.00961848,0.297141,1.00631
287,1687,3.31439,-0.00950328,0.296732,1.00656
289,1685,3.314,-0.0101404,0.297141,1.006
291,1683,3.31384,-0.0101243,0.297137,1.00599
293,1681,3.31378,-0.0100836,0.29725,1.00602
295,1679,3.31342,-0.0107907,0.297547,1.00541
297,1677,3.31328,-0.0107589,0.297546,1.00542
299,1675,3.31308,-0.0108277,0.297546,1.00538
301,1673,3.31296,-0.0108152,0.297623,1.00537
303,1671,3.31273,-0.0114448,0.297961,1.00485
305,1669,3.31299,-0.011353,0.297549,1.00508
307,1667,3.31272,-0.0120336,0.297964,1.00451
309,1665,3.31257,-0.0120009,0.297968,1.00455
311,1663,3.31426,-0.0089014,0.296746,1.00435
313,1661,3.31379,-0.00962214,0.297159,1.00375
315,1659,3.31374,-0.00961618,0.297159,1.00375
317,1657,3.31362,-0.00961779,0.297272,1.00374
319,1655,3.31374,-0.0101683,0.29716,1.00316
321,1653,3.31362,-0.0101597,0.297156,1.00367
323,1651,3.31309,-0.0102442,0.297567,1.00316
325,1649,3.31315,-0.0107294,0.297569,1.00288
327,1647,3.3129,-0.0108137,0.297564,1.00284
329,1645,3.31278,-0.0108576,0.297572,1.00282
331,1643,3.31296,-0.0114134,0.297577,1.00251
333,1641,3.31296,-0.0113832,0.297579,1.00254
335,1639,3.31288,-0.0114037,0.297578,1.00253
337,1637,3.31233,-0.0119714,0.298694,1.00174
339,1635,3.31223,-0.0121105,0.297992,1.00192
341,1633,3.31199,-0.0120325,0.297988,1.00196
343,1631,3.31376,-0.00902929,0.296765,1.0017
345,1629,3.31338,-0.00960957,0.297265,1.00118
347,1627,3.31324,-0.0096149,0.297179,1.00115
349,1625,3.3132,-0.00961164,0.297177,1.00116
351,1623,3.31328,-0.0102142,0.29718,1.00082
353,1621,3.31279,-0.0103331,0.297601,1.00059
355,1619,3.31293,-0.0108737,0.297605,1.00027
357,1617,3.31286,-0.0107818,0.297609,1.00036
359,1615,3.31275,-0.0108522,0.29761,1.00031
361,1613,3.31236,-0.0115163,0.298031,0.99975
363,1611,3.31229,-0.0114709,0.298027,0.999767
365,1609,3.31254,-0.0114118,0.297608,0.999974
367,1607,3.31223,-0.0120627,0.298021,0.9994
369,1605,3.31172,-0.0121472,0.29844,0.99918
371,1603,3.31155,-0.0121659,0.29844,0.999168
373,1601,3.31369,-0.00905443,0.296796,0.999133
375,1599,3.31327,-0.00967991,0.297214,0.998587
377,1597,3.31288,-0.00973145,0.297641,0.998406
379,1595,3.31328,-0.00959701,0.297224,0.998663
381,1593,3.31297,-0.0102295,0.297652,0.998154
383,1591,3.31283,-0.0102596,0.297656,0.998136
385,1589,3.31266,-0.010238,0.297653,0.998143
387,1587,3.31223,-0.0109887,0.298078,0.997541
389,1585,3.31257,-0.0108485,0.29765,0.997775
391,1583,3.31196,-0.0109065,0.297414,0.997522
393,1581,3.31184,-0.0109472,0.298054,0.997489
395,1579,3.31181,-0.0115245,0.29805,0.997135
397,1577,3.31168,-0.0115323,0.298049,0.997123
399,1575,3.31169,-0.0115315,0.298317,0.997124
401,1573,3.31133,-0.0122406,0.298493,0.996601
403,1571,3.31128,-0.0121656,0.298495,0.996658
405,1569,3.31319,-0.00909926,0.29727,0.996679
407,1567,3.31285,-0.00967335,0.29769,0.995906
409,1565,3.31268,-0.00967232,0.297469,0.995916
411,1563,3.31263,-0.00970184,0.297689,0.995887
413,1561,3.31234,-0.0103611,0.298114,0.995331
415,1559,3.31219,-0.0103642,0.298112,0.995331
417,1557,3.31242,-0.0103079,0.297776,0.995555
419,1555,3.3122,-0.0109855,0.298118,0.994985
421,1553,3.31183,-0.010926,0.298103,0.994984
423,1551,3.31165,-0.0109414,0.298097,0.99494
425,1549,3.31175,-0.010942,0.298111,0.994991
427,1547,3.31188,-0.0114961,0.298117,0.994681
429,1545,3.31139,-0.0115966,0.298538,0.994438
431,1543,3.31103,-0.0122404,0.298966,0.993897
433,1541,3.3113,-0.0121628,0.298535,0.994108
435,1539,3.31063,-0.012291,0.298963,0.993855
437,1537,3.31038,-0.0122838,0.298946,0.993798
439,1535,3.31228,-0.00973089,0.29771,0.993234
441,1533,3.31215,-0.0097783,0.297711,0.993205
443,1531,3.31193,-0.00978343,0.297705,0.993187
445,1529,3.31175,-0.009785,0.297705,0.993179
447,1527,3.31144,-0.0104457,0.298128,0.992624
449,1525,3.31122,-0.0102703,0.298023,0.992719
451,1523,3.31123,-0.0104366,0.298132,0.992639
453,1521,3.31116,-0.0104385,0.298245,0.992628
455,1519,3.31108,-0.0110219,0.29813,0.992287
457,1517,3.31104,-0.0110291,0.298129,0.992277
459,1515,3.31102,-0.0110563,0.298133,0.992264
461,1513,3.31063,-0.0116035,0.299263,0.991759
463,1511,3.31045,-0.0116957,0.298552,0.991717
465,1509,3.31021,-0.0117661,0.298552,0.990183
467,1507,3.30991,-0.0123967,0.298978,0.991118
469,1505,3.30974,-0.0124762,0.298976,0.991058
471,1503,3.30959,-0.0123825,0.298978,0.991122
473,1501,3.31169,-0.00985943,0.298454,0.990545
475,1499,3.3115,-0.00985668,0.297747,0.990536
477,1497,3.31149,-0.00981371,0.297751,0.99059
479,1495,3.31122,-0.0105553,0.298185,0.990002
481,1493,3.31105,-0.0105384,0.298184,0.990021
483,1491,3.3109,-0.0105458,0.298184,0.990011
485,1489,3.31097,-0.0110725,0.298178,0.98968
487,1487,3.31073,-0.0110909,0.298175,0.989673
489,1485,3.31076,-0.0111033,0.298176,0.989661
491,1483,3.31065,-0.0111074,0.298177,0.989651
493,1481,3.31021,-0.0117791,0.298719,0.989084
495,1479,3.31005,-0.0118095,0.298604,0.989074
497,1477,3.31,-0.0118271,0.298603,0.989067
499,1475,3.30958,-0.0124506,0.299037,0.988548
501,1473,3.30998,-0.0124083,0.298626,0.988794
503,1471,3.31162,-0.00988027,0.298091,0.988066
505,1469,3.31148,-0.0098649,0.297819,0.988044
507,1467,3.31135,-0.00984438,0.297819,0.988064
509,1465,3.31089,-0.0105469,0.298243,0.987464
511,1463,3.31105,-0.0104491,0.297799,0.987645
513,1461,3.31047,-0.0105971,0.298228,0.987377
515,1459,3.31078,-0.0105429,0.297792,0.987567
517,1457,3.31033,-0.0112083,0.298228,0.987012
519,1455,3.31023,-0.0111777,0.298222,0.987022
521,1453,3.31007,-0.0112006,0.29822,0.986997
523,1451,3.3102,-0.0117399,0.298143,0.986697
525,1449,3.30967,-0.0118457,0.298659,0.986476
527,1447,3.30965,-0.0118402,0.299387,0.986546
529,1445,3.30987,-0.0125041,0.298677,0.986163
531,1443,3.30968,-0.0124884,0.298677,0.986164
533,1441,3.30948,-0.012369,0.298936,0.986233
535,1439,3.31095,-0.00988821,0.29785,0.985385
537,1437,3.31076,-0.00996702,0.297852,0.985323
539,1435,3.31061,-0.00997357,0.298115,0.985295
541,1433,3.31059,-0.00993957,0.297844,0.985329
543,1431,3.31011,-0.0105901,0.298276,0.984778
545,1429,3.31035,-0.0105444,0.297844,0.984983
547,1427,3.3104,-0.0105539,0.297843,0.984967
549,1425,3.31023,-0.0112394,0.298298,0.984462
551,1423,3.31011,-0.0111699,0.298296,0.984501
553,1421,3.30989,-0.0118746,0.298735,0.983931
555,1419,3.30973,-0.0118864,0.298734,0.983935
557,1417,3.30966,-0.0118627,0.298739,0.983964
559,1415,3.30955,-0.0124513,0.298732,0.983602
561,1413,3.30924,-0.0124467,0.298732,0.983597
563,1411,3.30873,-0.0126141,0.299168,0.983339
565,1409,3.31049,-0.00940206,0.298041,0.983115
567,1407,3.31058,-0.00996311,0.297924,0.982786
569,1405,3.3104,-0.00993474,0.297922,0.9828
571,1403,3.31028,-0.00995853,0.297927,0.982798
573,1401,3.3104,-0.0105763,0.297873,0.982443
575,1399,3.30997,-0.0106554,0.298362,0.982241
577,1397,3.30961,-0.0106524,0.298366,0.982234
579,1395,3.31009,-0.0112076,0.298361,0.981916
581,1393,3.30948,-0.0113026,0.298364,0.981861
583,1391,3.30959,-0.01129,0.298365,0.981679
585,1389,3.30904,-0.0119663,0.298802,0.981576
587,1387,3.30911,-0.0119186,0.298805,0.981347
589,1385,3.30902,-0.0119071,0.298698,0.981358
591,1383,3.30889,-0.0125964,0.298802,0.98095
593,1381,3.30874,-0.0125438,0.298802,0.980983
595,1379,3.3105,-0.0093324,0.297554,0.980746
597,1377,3.31004,-0.010025,0.297993,0.980184
599,1375,3.30997,-0.0101217,0.297997,0.980137
601,1373,3.30985,-0.0100519,0.297995,0.980172
603,1371,3.31,-0.0106753,0.298707,0.979811
605,1369,3.30939,-0.0107114,0.298428,0.979605
607,1367,3.30973,-0.0106361,0.297988,0.979824
609,1365,3.30931,-0.0113592,0.29843,0.979235
611,1363,3.30923,-0.0113769,0.298426,0.979223
613,1361,3.30911,-0.0117032,0.298426,0.979279
615,1359,3.30907,-0.0119171,0.298427,0.978921
617,1357,3.30892,-0.0120231,0.298687,0.978851
619,1355,3.30875,-0.0118969,0.29842,0.978914
621,1353,3.30866,-0.0119703,0.298421,0.978869
623,1351,3.30822,-0.0126962,0.298941,0.978283
625,1349,3.30813,-0.012691,0.298984,0.978309
627,1347,3.30988,-0.009487,0.297616,0.978053
629,1345,3.30994,-0.0100918,0.29762,0.977716
631,1343,3.30983,-0.0100601,0.297617,0.977733
633,1341,3.30971,-0.0100825,0.297546,0.977716
635,1339,3.30922,-0.0107952,0.298056,0.977134
637,1337,3.309,-0.0107574,0.298058,0.977171
639,1335,3.30899,-0.0107854,0.298055,0.977144
641,1333,3.30901,-0.0113827,0.298131,0.976785
643,1331,3.30889,-0.0113827,0.298058,0.976819
645,1329,3.30895,-0.0114332,0.298062,0.976801
647,1327,3.30832,-0.0121149,0.298764,0.976217
649,1325,3.30818,-0.0120339,0.298235,0.97623
651,1323,3.30856,-0.0121397,0.298497,0.976214
653,1321,3.30772,-0.0128901,0.298936,0.975597
655,1319,3.30808,-0.012721,0.298499,0.975873
657,1317,3.30984,-0.0100626,0.297692,0.97514
659,1315,3.3095,-0.0101769,0.297689,0.975077
661,1313,3.30934,-0.0101494,0.297684,0.975068
663,1311,3.30942,-0.0107702,0.297689,0.974739
665,1309,3.30952,-0.0107769,0.297623,0.974727
667,1307,3.30913,-0.0107628,0.297687,0.974732
669,1305,3.30884,-0.011412,0.298124,0.974186
671,1303,3.30874,-0.0115249,0.298127,0.97413
673,1301,3.30838,-0.0115027,0.298849,0.974143
675,1299,3.30819,-0.0121926,0.298569,0.97338
677,1297,3.30765,-0.0121532,0.298572,0.973594
679,1295,3.30809,-0.0127211,0.298574,0.973292
681,1293,3.30791,-0.0127803,0.298844,0.973278
683,1291,3.30775,-0.0127652,0.298581,0.973283
685,1289,3.30938,-0.0101947,0.297776,0.972505
687,1287,3.30965,-0.0100972,0.297328,0.972725
689,1285,3.30933,-0.0101645,0.297332,0.97269
691,1283,3.3091,-0.0108959,0.29777,0.971892
693,1281,3.30881,-0.0108788,0.298492,0.972089
695,1279,3.3087,-0.0108636,0.297769,0.972103
697,1277,3.30864,-0.0114548,0.297766,0.971759
699,1275,3.30834,-0.0114592,0.297764,0.971758
701,1273,3.30787,-0.0122016,0.298206,0.971158
703,1271,3.30774,-0.0121941,0.298204,0.971154
705,1269,3.30762,-0.0122525,0.298286,0.971124
707,1267,3.30761,-0.0128479,0.298205,0.970776
709,1265,3.30707,-0.0129691,0.298652,0.970534
711,1263,3.30694,-0.0129703,0.298651,0.970533
713,1261,3.309,-0.0102187,0.298123,0.970017
715,1259,3.30885,-0.0102181,0.2974,0.970029
717,1257,3.30868,-0.0102546,0.297399,0.970006
719,1255,3.3087,-0.0109072,0.297396,0.96963
721,1253,3.3085,-0.0108969,0.297396,0.969631
723,1251,3.30832,-0.0109698,0.297396,0.969597
725,1249,3.30802,-0.0116722,0.297846,0.969026
727,1247,3.30777,-0.0116275,0.297843,0.969037
729,1245,3.30786,-0.0115935,0.29784,0.969058
731,1243,3.30777,-0.0121912,0.298568,0.968737
733,1241,3.30765,-0.0122514,0.29784,0.968696
735,1239,3.30723,-0.0129364,0.29829,0.968143
737,1237,3.30712,-0.0129708,0.2983,0.968154
739,1235,3.30921,-0.0102332,0.297044,0.967603
741,1233,3.30846,-0.0103752,0.298214,0.967336
743,1231,3.30882,-0.0102795,0.297038,0.967563
745,1229,3.30837,-0.0109696,0.297486,0.967005
747,1227,3.30819,-0.0109709,0.297484,0.966988
749,1225,3.30813,-0.0109607,0.297483,0.967003
751,1223,3.30811,-0.0113628,0.297481,0.966777
753,1221,3.30776,-0.0116716,0.297483,0.966594
755,1219,3.30765,-0.0116317,0.297481,0.96661
757,1217,3.30717,-0.0123695,0.297931,0.966043
759,1215,3.30695,-0.0123556,0.297934,0.966057
761,1213,3.30699,-0.0129988,0.297931,0.965677
763,1211,3.30685,-0.0130075,0.297935,0.965695
765,1209,3.30845,-0.0103981,0.297129,0.964906
767,1207,3.3083,-0.0103693,0.29713,0.96493
769,1205,3.3079,-0.0103208,0.297118,0.964921
771,1203,3.30801,-0.0110045,0.297229,0.964501
773,1201,3.30781,-0.0110487,0.297113,0.964482
775,1199,3.30769,-0.0110522,0.29711,0.964479
777,1197,3.3072,-0.0117772,0.297559,0.963888
779,1195,3.30706,-0.0119089,0.297576,0.963861
781,1193,3.30721,-0.012443,0.29758,0.963597
783,1191,3.30713,-0.0123589,0.297698,0.963646
785,1189,3.30696,-0.0114018,0.297584,0.962928
787,1187,3.30724,-0.0112416,0.297133,0.963208
789,1185,3.30881,-0.00872191,0.296317,0.962312
791,1183,3.30856,-0.00871455,0.296317,0.962319
793,1181,3.3082,-0.0103902,0.29677,0.962476
795,1179,3.30806,-0.0110053,0.296763,0.962118
797,1177,3.30778,-0.0110662,0.296763,0.962072
799,1175,3.30737,-0.0118228,0.297209,0.96147
801,1173,3.30702,-0.0118348,0.297205,0.961458
803,1171,3.30715,-0.0118862,0.297222,0.961457
805,1169,3.30707,-0.0174294,0.296772,0.961028
807,1167,3.3069,-0.0164396,0.29677,0.960312
809,1165,3.30663,-0.0181133,0.297223,0.960496
811,1163,3.30888,-0.0136768,0.295514,0.959792
813,1161,3.30865,-0.0136992,0.295516,0.959774
815,1159,3.30831,-0.0154238,0.295964,0.959907
817,1157,3.30791,-0.0144103,0.295961,0.959195
819,1155,3.30774,-0.0144579,0.29596,0.959162
821,1153,3.30767,-0.0150479,0.29608,0.958626
823,1151,3.3075,-0.0150897,0.295956,0.958809
825,1149,3.3073,-0.0150695,0.295955,0.958817
827,1147,3.30689,-0.0158492,0.296409,0.958207
829,1145,3.3066,-0.0175632,0.296859,0.95836
831,1143,3.30628,-0.0166097,0.296866,0.956348
833,1141,3.3066,-0.0164591,0.296673,0.957893
835,1139,3.30835,-0.0121009,0.295151,0.956959
837,1137,3.30797,-0.0138429,0.295606,0.957085
839,1135,3.30778,-0.0138786,0.295607,0.957081
841,1133,3.30725,-0.0146074,0.29606,0.956489
843,1131,3.30771,-0.0128171,0.295151,0.956559
845,1129,3.30728,-0.0134684,0.295603,0.956017
847,1127,3.30731,-0.0117716,0.295038,0.955864
849,1125,3.3068,-0.0124951,0.295596,0.955267
851,1123,3.30685,-0.0141213,0.295598,0.955635
853,1121,3.30669,-0.0141564,0.295595,0.955616
855,1119,3.30635,-0.0131654,0.295591,0.954888
857,1117,3.3061,-0.0132072,0.294884,0.954875
859,1115,3.30836,-0.00873449,0.293958,0.95417
861,1113,3.30815,-0.00870464,0.293881,0.954179
863,1111,3.30733,-0.0128582,0.295238,0.953901
865,1109,3.30731,-0.0129208,0.295246,0.953881
867,1107,3.30721,-0.016827,0.294334,0.953499
869,1105,3.3073,-0.0101509,0.294453,0.953209
871,1103,3.30717,-0.0101221,0.294337,0.953246
873,1101,3.30638,-0.0175922,0.294779,0.952661
875,1099,3.3064,-0.0109166,0.294781,0.952591
877,1097,3.30639,-0.011548,0.294778,0.952236
879,1095,3.305944,-0.0183207,0.29478,0.952252
881,1093,3.30782,-0.0149043,0.293513,0.952052
883,1091,3.30719,-0.0156192,0.29397,0.951469
885,1089,3.30716,-0.0089217,0.293956,0.951375
887,1087,3.30726,-0.00958266,0.29397,0.951047
889,1085,3.30725,-0.0095761,0.293971,0.951079
891,1083,3.30668,-0.0152855,0.293976,0.950439
893,1081,3.30667,-0.0136477,0.293529,0.95024
895,1079,3.30642,-0.0159538,0.293974,0.950046
897,1077,3.30622,-0.0159124,0.293971,0.950074
899,1075,3.30568,-0.0167243,0.294421,0.949441
901,1073,3.30545,-0.016749,0.294431,0.949455
903,1071,3.30756,-0.0139858,0.293172,0.948899
905,1069,3.30747,-0.0122444,0.292721,0.948761
907,1067,3.30727,-0.0123197,0.292712,0.948702
909,1065,3.30723,-0.0128757,0.292711,0.948403
911,1063,3.30708,-0.0145648,0.293158,0.948561
913,1061,3.30675,-0.0136851,0.293166,0.947785
915,1059,3.30651,-0.0126623,0.293241,0.947089
917,1057,3.30678,-0.0125337,0.29272,0.947354
919,1055,3.30629,-0.0132394,0.293168,0.946776
921,1053,3.30611,-0.0114983,0.292706,0.946612
923,1051,3.3077,-0.00887789,0.291904,0.945795
925,1049,3.30774,-0.0105169,0.291899,0.946166
927,1047,3.3076,-0.0105634,0.291902,0.945905
929,1045,3.30719,-0.00953089,0.291897,0.945414
931,1043,3.30682,-0.0112477,0.292345,0.945564
933,1041,3.30702,-0.0102361,0.291893,0.945025
935,1039,3.30676,-0.0101937,0.291893,0.945054
937,1037,3.30602,-0.0125933,0.292783,0.944389
939,1035,3.30613,-0.0110043,0.292344,0.944428
941,1033,3.30625,-0.0115876,0.293078,0.944141
943,1031,3.30554,-0.0116651,0.292803,0.943911
945,1029,3.30768,-0.0150086,0.291092,0.943941
947,1027,3.30711,-0.0157825,0.291539,0.943332
949,1025,3.30723,-0.0140681,0.291207,0.943169
951,1023,3.3064,-0.0165263,0.291991,0.942746
953,1021,3.3067,-0.0164431,0.291537,0.942966
955,1019,3.30637,-0.0154224,0.29154,0.942257
957,1017,3.30593,-0.017189,0.292112,0.942394
959,1015,3.30604,-0.0160956,0.291534,0.94187
961,1013,3.30565,-0.0178144,0.291986,0.942042
963,1011,3.30522,-0.0168256,0.29199,0.941307
965,1009,3.30704,-0.0151597,0.291179,0.941228
967,1007,3.30708,-0.0140241,0.290721,0.940739
969,1005,3.30674,-0.0158069,0.291177,0.940862
971,1003,3.30637,-0.0148352,0.291176,0.940123
973,1001,3.30625,-0.014856,0.291174,0.940115
975,999,3.3062,-0.0154934,0.291177,0.939779
977,997,3.30627,-0.0137405,0.290724,0.939647
979,995,3.3059,-0.0127623,0.290724,0.938898
981,993,3.30586,-0.0127218,0.290725,0.938932
983,991,3.3057,-0.0133951,0.290726,0.938568
985,989,3.30776,-0.00825078,0.289011,0.938183
987,987,3.30771,-0.00881587,0.289007,0.937871
989,985,3.30745,-0.0105874,0.289526,0.937999
991,983,3.30706,-0.00960127,0.289462,0.937264
993,981,3.30672,-0.01657,0.28947,0.937267
995,979,3.30655,-0.0171436,0.289468,0.936948
997,977,3.30649,-0.0171092,0.289469,0.936977
999,975,3.30598,-0.0178955,0.289925,0.936396
1001,973,3.30578,-0.0178805,0.289922,0.934902
1003,971,3.30565,-0.0185335,0.289919,0.936037
1005,969,3.30772,-0.00825991,0.288653,0.93575
1007,967,3.30697,-0.0158661,0.289035,0.935213
1009,965,3.30688,-0.00896866,0.289099,0.935173
1011,963,3.30681,-0.0148308,0.288648,0.934656
1013,961,3.30659,-0.0148454,0.288644,0.934642
1015,959,3.3062,-0.0166259,0.289097,0.93477
1017,957,3.30572,-0.017427,0.289556,0.934181
1019,955,3.30604,-0.0162227,0.289107,0.933759
1021,953,3.30604,-0.0143934,0.288656,0.933668
1023,951,3.30547,-0.015188,0.28911,0.933063
1025,949,3.30783,-0.0116682,0.287395,0.93307
1027,947,3.30722,-0.0124177,0.287848,0.932476
1029,945,3.30716,-0.0123917,0.287842,0.932479
1031,943,3.30669,-0.0113534,0.287835,0.931745
1033,941,3.30633,-0.0131641,0.288288,0.931859
1035,939,3.30662,-0.0103313,0.287379,0.931178
1037,937,3.30616,-0.0121141,0.287825,0.931304
1039,935,3.30559,-0.0128327,0.288285,0.930757
1041,933,3.30581,-0.0127409,0.287828,0.93098
1043,931,3.30533,-0.0134618,0.288289,0.930433
1045,929,3.30483,-0.015235,0.28874,0.930581
1047,927,3.30666,-0.0108202,0.287539,0.929582
1049,925,3.30642,-0.0108499,0.287474,0.929562
1051,923,3.30638,-0.0114596,0.287473,0.929242
1053,921,3.30621,-0.0114849,0.287475,0.929226
1055,919,3.30594,-0.0104926,0.287471,0.928242
1057,917,3.30619,-0.0103747,0.287022,0.928748
1059,915,3.30533,-0.0129003,0.287924,0.928289
1061,913,3.30513,-0.0128652,0.287926,0.928314
1063,911,3.30483,-0.0118534,0.287918,0.92757
1065,909,3.30493,-0.0117763,0.287453,0.927755
1067,907,3.30654,-0.0091271,0.286644,0.926904
1069,905,3.30633,-0.00913045,0.286643,0.926902
1071,903,3.30555,-0.0168295,0.287093,0.926343
1073,901,3.3057,-0.00985161,0.287111,0.926389
1075,899,3.30548,-0.0175517,0.287114,0.926031
1077,897,3.30565,-0.0105707,0.287845,0.926015
1079,895,3.30489,-0.0182866,0.287576,0.925479
1081,893,3.30473,-0.0182202,0.287571,0.925517
1083,891,3.30481,-0.0170941,0.287115,0.925005
1085,889,3.30684,-0.011888,0.285388,0.92459
1087,887,3.30649,-0.0141653,0.285843,0.924472
1089,885,3.30664,-0.0126171,0.285391,0.92421
1091,883,3.30591,-0.0133559,0.285842,0.92363
1093,881,3.30585,-0.0139376,0.285841,0.923332
1095,879,3.30475,-0.0176092,0.28721,0.923387
1097,877,3.30492,-0.0165309,0.286752,0.922874
1099,875,3.30519,-0.0129609,0.285722,0.922566
1101,873,3.30432,-0.0171967,0.287211,0.922335
1103,871,3.30721,-0.00831311,0.284126,0.921881
1105,869,3.30665,-0.00903832,0.284579,0.921313
1107,867,3.30633,-0.0108431,0.285033,0.921466
1109,865,3.30588,-0.00982904,0.285027,0.920701
1111,863,3.30584,-0.0105143,0.285026,0.920341
1113,861,3.30532,-0.0122883,0.285481,0.920496
1115,859,3.30556,-0.0112128,0.285022,0.919961
1117,857,3.30524,-0.0112202,0.285025,0.91997
1119,855,3.30439,-0.0189907,0.285478,0.919406
1121,853,3.3042,-0.019001,0.285481,0.919419
1123,851,3.30645,-0.0143481,0.283757,0.918699
1125,849,3.30592,-0.0161259,0.28421,0.918858
1127,847,3.30534,-0.0169507,0.284667,0.918254
1129,845,3.30521,-0.0170211,0.284666,0.918215
1131,843,3.30533,-0.015847,0.284213,0.917736
1133,841,3.30506,-0.0148162,0.28421,0.917016
1135,839,3.30493,-0.0164888,0.284211,0.917411
1137,837,3.3046,-0.0155238,0.28421,0.916639
1139,835,3.30646,-0.0120187,0.283004,0.916401
1141,833,3.30631,-0.0126094,0.282941,0.916094
1143,831,3.30623,-0.0126503,0.28294,0.916077
1145,829,3.30584,-0.0115908,0.282942,0.915364
1147,827,3.30551,-0.0133694,0.283516,0.91553
1149,825,3.30557,-0.0122782,0.28294,0.915003
1151,823,3.30497,-0.0130355,0.283395,0.914419
1153,821,3.30468,-0.0130626,0.283393,0.914406
1155,819,3.30503,-0.0119467,0.282938,0.913906
1157,817,3.30668,-0.0102803,0.282249,0.913814
1159,815,3.30629,-0.00916314,0.282131,0.913124
1161,813,3.30588,-0.0162709,0.282129,0.913129
1163,811,3.30573,-0.0168872,0.282192,0.912804
1165,809,3.30552,-0.0170387,0.282131,0.911396
1167,807,3.30482,-0.0177589,0.282581,0.912172
1169,805,3.30496,-0.0184176,0.282584,0.911839
1171,803,3.30465,-0.0183776,0.282582,0.91186
1173,801,3.30408,-0.0190949,0.283035,0.911306
1175,799,3.3038,-0.0191493,0.283038,0.911287
1177,797,3.30613,-0.0145052,0.281312,0.910516
1179,795,3.30554,-0.0163432,0.281829,0.910655
1181,793,3.30513,-0.0170927,0.282224,0.910106
1183,791,3.30513,-0.0153137,0.281997,0.909947
1185,789,3.30508,-0.0159506,0.281774,0.909636
1187,787,3.30494,-0.0130959,0.281318,0.908755
1189,785,3.30448,-0.0148815,0.281772,0.908919
1191,783,3.30444,-0.015553,0.28177,0.90856
1193,781,3.30415,-0.0156087,0.281768,0.908532
1195,779,3.30603,-0.0110804,0.280502,0.907543
1197,777,3.3063,-0.0109329,0.280046,0.907804
1199,775,3.30543,-0.0134862,0.280776,0.907392
1201,773,3.30548,-0.0117136,0.280502,0.907225
1203,771,3.30505,-0.0106473,0.280501,0.906501
1205,769,3.30485,-0.0131607,0.280953,0.906283
1207,767,3.30457,-0.0131487,0.280954,0.906294
1209,765,3.30422,-0.0120916,0.281674,0.905559
1211,763,3.30621,-0.00856048,0.279686,0.905332
1213,761,3.30595,-0.00920231,0.279686,0.905006
1215,759,3.30581,-0.0110331,0.280366,0.905147
1217,757,3.30527,-0.0154177,0.279687,0.904225
1219,755,3.30539,-0.0170624,0.279685,0.904654
1221,753,3.30481,-0.0178451,0.280139,0.904082
1223,751,3.30455,-0.0177891,0.280138,0.904101
1225,749,3.30448,-0.0185824,0.280141,0.903695
1227,747,3.3046,-0.0167474,0.279733,0.903534
1229,745,3.3036,-0.0193121,0.280592,0.903129
1231,743,3.30588,-0.0146315,0.278868,0.902381
1233,741,3.30556,-0.0146221,0.278922,0.902376
1235,739,3.30504,-0.0154295,0.279318,0.901784
1237,737,3.30495,-0.0154391,0.279316,0.90178
1239,735,3.30504,-0.0142308,0.278865,0.901317
1241,733,3.30466,-0.0143021,0.278856,0.901258
1243,731,3.30377,-0.0169204,0.279768,0.900831
1245,729,3.30367,-0.0169797,0.27977,0.900808
1247,727,3.30353,-0.0175977,0.279771,0.900481
1249,725,3.30542,-0.0129519,0.278498,0.899535
1251,723,3.30554,-0.0128379,0.278039,0.899767
1253,721,3.30519,-0.0118541,0.278257,0.898991
1255,719,3.30482,-0.0136886,0.278467,0.899154
1257,717,3.30439,-0.0126466,0.278555,0.898413
1259,715,3.30474,-0.0125148,0.278041,0.89866
1261,713,3.3043,-0.0115147,0.278046,0.897918
1263,711,3.30346,-0.0141814,0.278954,0.897448
1265,709,3.30596,-0.0104629,0.277221,0.897705
1267,707,3.30552,-0.00937765,0.277221,0.896747
1269,705,3.30549,-0.0100502,0.277224,0.896408
1271,703,3.30501,-0.0172914,0.277226,0.896416
1273,701,3.30483,-0.0108603,0.277686,0.895831
1275,699,3.30434,-0.0180787,0.277684,0.89585
1277,697,3.30416,-0.01871,0.277679,0.895513
1279,695,3.30336,-0.0188281,0.278131,0.895261
1281,693,3.30316,-0.0195592,0.278129,0.894891
1283,691,3.30539,-0.0141538,0.276402,0.894486
1285,689,3.30519,-0.014827,0.276402,0.894153
1287,687,3.30473,-0.0137036,0.277125,0.893447
1289,685,3.30397,-0.0174533,0.277319,0.893745
1291,683,3.30397,-0.0181661,0.277302,0.893319
1293,681,3.30373,-0.0181572,0.2773,0.893321
1295,679,3.30347,-0.0152485,0.276849,0.892456
1297,677,3.30336,-0.0159486,0.276855,0.892125
1299,675,3.30299,-0.0177808,0.277316,0.892313
1301,673,3.30566,-0.0111917,0.275133,0.891404
1303,671,3.30507,-0.011925,0.275589,0.890857
1305,669,3.3048,-0.0119835,0.275809,0.890843
1307,667,3.30493,-0.0108253,0.275136,0.890328
1309,665,3.30453,-0.0108595,0.27513,0.890308
1311,663,3.30381,-0.0115969,0.275569,0.8897
1313,661,3.30365,-0.0123101,0.275567,0.88933
1315,659,3.30338,-0.0123235,0.275782,0.889327
1317,657,3.30496,-0.00949182,0.274751,0.888508
1319,655,3.30452,-0.01677,0.274752,0.888542
1321,653,3.30456,-0.0101587,0.274751,0.888175
1323,651,3.3038,-0.0183233,0.275322,0.88713
1325,649,3.30404,-0.0181657,0.274748,0.887836
1327,647,3.30367,-0.017083,0.27476,0.887155
1329,645,3.30305,-0.019774,0.27568,0.886723
1331,643,3.30545,-0.0124189,0.273494,0.886175
1333,641,3.30542,-0.0130888,0.273498,0.885877
1335,639,3.30497,-0.013117,0.273492,0.885829
1337,637,3.30484,-0.0137931,0.273496,0.885498
1339,635,3.30432,-0.0120395,0.273486,0.885083
1341,633,3.30418,-0.0127845,0.273495,0.886059
1343,631,3.30428,-0.0115983,0.273027,0.884203
1345,629,3.30414,-0.0115746,0.27304,0.884253
1347,627,3.30342,-0.0123827,0.273493,0.883677
1349,625,3.305131,-0.0106351,0.272676,0.88357
1351,623,3.30517,-0.0113238,0.272674,0.883228
1353,621,3.30458,-0.0176106,0.272674,0.882493
1355,619,3.30449,-0.0175854,0.272675,0.882768
1357,617,3.30425,-0.0182838,0.272674,0.882161
1359,615,3.303995,-0.0172983,0.272687,0.881412
1361,613,3.30374,-0.0171339,0.272679,0.881488
1363,611,3.30358,-0.0178798,0.272676,0.881092
1365,609,3.30528,-0.0161106,0.271859,0.88103
1367,607,3.30499,-0.0150428,0.271858,0.880284
1369,605,3.30487,-0.0157704,0.271854,0.879899
1371,603,3.30434,-0.0176513,0.27231,0.880063
1373,601,3.30399,-0.0165524,0.272516,0.879337
1375,599,3.30385,-0.016527,0.272306,0.879351
1377,597,3.30382,-0.0153923,0.271851,0.878821
1379,595,3.303075,-0.018068,0.272764,0.878415
1381,593,3.30299,-0.0162352,0.272315,0.878252
1383,591,3.30537,-0.0113425,0.270592,0.877807
1385,589,3.30499,-0.0132032,0.271044,0.877721
1387,587,3.30511,-0.0120534,0.270591,0.877212
1389,585,3.30484,-0.0109534,0.270594,0.876499
1391,583,3.30448,-0.0109339,0.270588,0.876313
1393,581,3.3036,-0.0135982,0.2715,0.87608
1395,579,3.30392,-0.0135122,0.271041,0.876299
1397,577,3.30343,-0.0124911,0.271039,0.87553
1399,575,3.30528,-0.0106891,0.270224,0.875466
1401,573,3.30454,-0.0169949,0.270226,0.874749
1403,571,3.30479,-0.0103032,0.270222,0.874373
1405,569,3.30445,-0.0102407,0.27022,0.874402
1407,567,3.30369,-0.018544,0.270675,0.874045
1409,565,3.30398,-0.0184212,0.27022,0.874018
1411,563,3.30334,-0.0192158,0.270679,0.873483
1413,561,3.30299,-0.0181558,0.270731,0.872738
1415,559,3.30559,-0.0125099,0.268511,0.872593
1417,557,3.30569,-0.0112635,0.268051,0.872111
1419,555,3.30508,-0.0120784,0.2685,0.871511
1421,553,3.30478,-0.0139582,0.269673,0.871684
1423,551,3.30416,-0.0129101,0.268951,0.870919
1425,549,3.30389,-0.0147812,0.269404,0.87109
1427,547,3.30382,-0.0135358,0.26895,0.87061
1429,545,3.30326,-0.0144075,0.269402,0.870005
1431,543,3.30296,-0.0143105,0.269402,0.870044
1433,541,3.30517,-0.0114406,0.26813,0.869406
1435,539,3.3046,-0.013344,0.268582,0.869794
1437,537,3.30425,-0.0122065,0.268583,0.868842
1439,535,3.30439,-0.0110515,0.26813,0.868339
1441,533,3.30381,-0.0185212,0.268132,0.868347
1443,531,3.30426,-0.0155148,0.267244,0.867678
1445,529,3.30447,-0.0122582,0.266335,0.867079
1447,527,3.30533,-0.0125177,0.266403,0.866862
1449,525,3.30509,-0.00963852,0.267299,0.866556
1451,523,3.30456,-0.0170418,0.267293,0.866784
1453,521,3.30409,-0.0103199,0.267863,0.866211
1455,519,3.30378,-0.0179274,0.267749,0.866164
1457,517,3.30389,-0.0111509,0.267745,0.865801
1459,515,3.30289,-0.0194578,0.2682,0.865229
1461,513,3.30269,-0.0194439,0.268199,0.865243
1463,511,3.3027,-0.0181972,0.267742,0.864756
1465,509,3.30427,-0.0153532,0.266924,0.863909
1467,507,3.30408,-0.0153683,0.266925,0.863912
1469,505,3.30425,-0.0141619,0.266471,0.863409
1471,503,3.30373,-0.0161074,0.266926,0.86356
1473,501,3.30314,-0.0168704,0.268106,0.863011
1475,499,3.30357,-0.0137738,0.266474,0.862348
1477,497,3.30294,-0.0175555,0.267375,0.862666
1479,495,3.30289,-0.0163809,0.266919,0.862143
1481,493,3.30439,-0.0134666,0.266099,0.861315
1483,491,3.30413,-0.013481,0.2661,0.861312
1485,489,3.3041,-0.0141824,0.266099,0.861235
1487,487,3.30382,-0.0142243,0.266144,0.860957
1489,485,3.30339,-0.0130738,0.266097,0.860232
1491,483,3.30329,-0.0138449,0.266094,0.859861
1493,481,3.30294,-0.0138632,0.266094,0.859857
1495,479,3.30257,-0.0127612,0.266817,0.859127
1497,477,3.30455,-0.00900617,0.265012,0.857511
1499,475,3.30436,-0.0116478,0.26528,0.858714
1501,473,3.30401,-0.0105769,0.265287,0.857989
1503,471,3.30339,-0.0180997,0.26529,0.858034
1505,469,3.30361,-0.0168432,0.264837,0.857568
1507,467,3.3031,-0.0157419,0.264835,0.856816
1509,465,3.30296,-0.0194957,0.265283,0.85735
1511,463,3.30245,-0.0183969,0.265278,0.856586
1513,461,3.30402,-0.0155107,0.264455,0.855742
1515,459,3.30386,-0.0154805,0.264453,0.855749
1517,457,3.3037,-0.0162152,0.264454,0.855407
1519,455,3.30305,-0.0170478,0.264909,0.85482
1521,453,3.30354,-0.0150185,0.263997,0.854892
1523,451,3.30298,-0.0139658,0.264,0.854132
1525,449,3.30308,-0.0146485,0.264003,0.85382
1527,447,3.30262,-0.0146046,0.264001,0.85384
1529,445,3.30425,-0.0116785,0.263179,0.853012
1531,443,3.30415,-0.0116439,0.263295,0.853033
1533,441,3.30417,-0.0104992,0.262724,0.85248
1535,439,3.3031,-0.015198,0.264091,0.852222
1537,437,3.30298,-0.0132317,0.263632,0.852076
1539,435,3.30253,-0.0121845,0.263625,0.851284
1541,433,3.30252,-0.0139994,0.263624,0.851685
1543,431,3.30213,-0.0128768,0.263623,0.850951
1545,429,3.30396,-0.011722,0.2628,0.850537
1547,427,3.30397,-0.00975896,0.262344,0.85039
1549,425,3.30321,-0.0106384,0.2628,0.84979
1551,423,3.30308,-0.0106587,0.2628,0.84978
1553,421,3.30257,-0.0189489,0.26352,0.849473
1555,419,3.30249,-0.0196782,0.262796,0.849131
1557,417,3.30238,-0.0120716,0.262795,0.849096
1559,415,3.30147,-0.0129107,0.263253,0.8485
1561,413,3.3034,-0.0174591,0.261982,0.847984
1563,411,3.30296,-0.00995427,0.262432,0.847688
1565,409,3.30298,-0.0106874,0.262438,0.847368
1567,407,3.30277,-0.0171753,0.261989,0.846835
1569,405,3.30272,-0.0151785,0.261518,0.84669
1571,403,3.30205,-0.0159756,0.261972,0.84613
1573,401,3.30212,-0.0148049,0.26163,0.845594
1575,399,3.30424,-0.0110182,0.260241,0.845357
1577,397,3.30353,-0.0117563,0.260695,0.844825
1579,395,3.30348,-0.0125438,0.260695,0.844456
1581,393,3.30343,-0.0106305,0.260238,0.844266
1583,391,3.3025,-0.0134293,0.261148,0.843843
1585,389,3.30261,-0.0121666,0.260691,0.843355
1587,387,3.30234,-0.012127,0.260689,0.843375
1589,385,3.30217,-0.0129361,0.260693,0.843004
1591,383,3.30365,-0.0176022,0.259876,0.842234
1593,381,3.30336,-0.0176528,0.259877,0.842464
1595,379,3.30289,-0.0164874,0.259874,0.841489
1597,377,3.30281,-0.0172439,0.259873,0.841136
1599,375,3.30274,-0.0178776,0.259872,0.840824
1601,373,3.30257,-0.0159805,0.259413,0.840629
1603,371,3.30168,-0.0188245,0.260437,0.840196
1605,369,3.30388,-0.0129974,0.25859,0.839801
1607,367,3.30373,-0.0137511,0.258591,0.839452
1609,365,3.30329,-0.0146048,0.259044,0.83887
1611,363,3.30314,-0.0126068,0.258588,0.838717
1613,361,3.30285,-0.0153674,0.259042,0.838519
1615,359,3.30254,-0.0122719,0.258766,0.837614
1617,357,3.30166,-0.0162186,0.2595,0.837935
1619,355,3.30183,-0.0149595,0.259045,0.837701
1621,353,3.30361,-0.0119849,0.258224,0.836621
1623,351,3.30368,-0.00995355,0.257768,0.836492
1625,349,3.30345,-0.0106782,0.257769,0.836161
1627,347,3.30282,-0.0115668,0.258104,0.835551
1629,345,3.30307,-0.0114607,0.257764,0.835778
1631,343,3.3023,-0.0123334,0.258222,0.835191
1633,341,3.30142,-0.0208986,0.25879,0.834647
1635,339,3.30399,-0.0169336,0.256943,0.834647
1637,337,3.30336,-0.0177542,0.2574,0.83409
1639,335,3.30285,-0.0185679,0.257853,0.833521
1641,333,3.30303,-0.0185037,0.257399,0.833738
1643,331,3.3026,-0.0173883,0.257398,0.832984
1645,329,3.30215,-0.0193138,0.257853,0.833179
1647,327,3.30121,-0.0202781,0.258311,0.832551
1649,325,3.30146,-0.0189857,0.257855,0.832326
1651,323,3.30356,-0.0151109,0.256574,0.831828
1653,321,3.30305,-0.0157541,0.256561,0.831492
1655,319,3.30232,-0.016746,0.257016,0.830848
1657,317,3.30204,-0.016719,0.257017,0.830867
1659,315,3.30215,-0.0154718,0.256556,0.830348
1661,313,3.30181,-0.014398,0.256726,0.829573
1663,311,3.30201,-0.0142917,0.256101,0.829812
1665,309,3.30125,-0.0151508,0.256558,0.829236
1667,307,3.30367,-0.00996805,0.254823,0.828509
1669,305,3.3033,-0.0119494,0.255276,0.828678
1671,303,3.30252,-0.0128322,0.255731,0.828091
1673,301,3.30243,-0.0135859,0.255729,0.827735
1675,299,3.30222,-0.0135132,0.255734,0.827788
1677,297,3.30125,-0.0143054,0.256166,0.82718
1679,295,3.30096,-0.0151707,0.256167,0.826756
1681,293,3.30251,-0.0179727,0.25489,0.825825
1683,291,3.30257,-0.018,0.254911,0.825875
1685,289,3.30252,-0.0167798,0.254447,0.825319
1687,287,3.30202,-0.0176111,0.254902,0.824758
1689,285,3.30208,-0.0163394,0.254444,0.822729
1691,283,3.30158,-0.0183707,0.254903,0.824417
1693,281,3.30154,-0.0170828,0.254443,0.823908
1695,279,3.30321,-0.0140712,0.253619,0.823077
1697,277,3.30318,-0.0120568,0.253165,0.822914
1699,275,3.30269,-0.0148439,0.253619,0.822724
1701,273,3.30229,-0.0136748,0.253614,0.821986
1703,271,3.30198,-0.0136933,0.253613,0.821977
1705,269,3.30206,-0.0123808,0.253162,0.821493
1707,267,3.301,-0.0153241,0.25407,0.821054
1709,265,3.3034,-0.0121001,0.252788,0.820497
1711,263,3.30279,-0.0109189,0.252787,0.819759
1713,261,3.30262,-0.0109672,0.252784,0.819734
1715,259,3.30243,-0.0116957,0.252898,0.819404
1717,257,3.30147,-0.0204975,0.253241,0.818833
1719,255,3.30118,-0.0204945,0.253196,0.818842
1721,253,3.30118,-0.0192723,0.252785,0.818295
1723,251,3.3029,-0.016211,0.251962,0.817489
1725,249,3.30263,-0.0162072,0.251963,0.817497
1727,247,3.30256,-0.01696,0.25196,0.817162
1729,245,3.30197,-0.0158061,0.251991,0.8164
1731,243,3.30185,-0.0165023,0.251957,0.816078
1733,241,3.30154,-0.0165193,0.251956,0.816081
1735,239,3.30135,-0.017316,0.251955,0.815709
1737,237,3.30324,-0.0122271,0.250678,0.814978
1739,235,3.30358,-0.0121103,0.250221,0.814733
1741,233,3.30297,-0.0129322,0.250676,0.814418
1743,231,3.3022,-0.0138706,0.251135,0.814067
1745,229,3.3023,-0.012588,0.250683,0.813323
1747,227,3.30179,-0.0204812,0.250686,0.813401
1749,225,3.301,-0.0213613,0.25114,0.812812
1751,223,3.30342,-0.0161629,0.249405,0.812044
1753,221,3.30303,-0.0182091,0.249858,0.812214
1755,219,3.30246,-0.0170143,0.249856,0.811467
1757,217,3.30236,-0.0178361,0.249852,0.811087
1759,215,3.30208,-0.0185475,0.249958,0.810744
1761,213,3.30177,-0.0185727,0.249842,0.810726
1763,211,3.30069,-0.0214629,0.25075,0.810332
1765,209,3.30296,-0.0183289,0.249463,0.809701
1767,207,3.30294,-0.0162521,0.249009,0.809558
1769,205,3.30266,-0.017029,0.249009,0.809207
1771,203,3.3022,-0.0158894,0.249008,0.808444
1773,201,3.30206,-0.0166555,0.249007,0.808103
1775,199,3.302,-0.0146306,0.248558,0.807933
1777,197,3.30366,-0.0114848,0.248445,0.807138
1779,195,3.30364,-0.0102137,0.247279,0.806623
1781,193,3.30299,-0.0111041,0.247731,0.806043
1783,191,3.30274,-0.0111113,0.247734,0.806057
1785,189,3.30226,-0.0198678,0.247728,0.805727
1787,187,3.30205,-0.0206712,0.247728,0.805376
1789,185,3.30126,-0.021514,0.248177,0.804806
1791,183,3.30341,-0.0175443,0.246898,0.804814
1793,181,3.30323,-0.0183079,0.246895,0.80422
1795,179,3.30265,-0.0171462,0.246893,0.803461
1797,177,3.30257,-0.0178581,0.24689,0.803131
1799,175,3.30225,-0.0179329,0.246894,0.803115
1801,173,3.3015,-0.0188177,0.247342,0.802523
1803,171,3.30151,-0.0175382,0.24689,0.802013
1805,169,3.30333,-0.0123409,0.24563,0.801019
1807,167,3.30345,-0.0143313,0.245606,0.801416
1809,165,3.3026,-0.0151917,0.246054,0.800833
1811,163,3.30245,-0.0138879,0.245606,0.80034
1813,161,3.30187,-0.0148231,0.245948,0.799986
1815,159,3.30148,-0.0147774,0.246051,0.799745
1817,157,3.30381,-0.0115221,0.24477,0.799164
1819,155,3.30323,-0.0103674,0.244772,0.798412
1821,153,3.30305,-0.0111526,0.244109,0.798054
1823,151,3.30232,-0.0120126,0.245219,0.797479
1825,149,3.3021,-0.0120069,0.245222,0.797499
1827,147,3.30155,-0.0208675,0.245224,0.797202
1829,145,3.30111,-0.0136891,0.245674,0.796822
1831,143,3.30302,-0.0185185,0.244389,0.796026
1833,141,3.30271,-0.0185304,0.244386,0.796012
1835,139,3.30275,-0.0172462,0.243934,0.795492
1837,137,3.30177,-0.0202199,0.24484,0.795095
1839,135,3.30204,-0.0168241,0.243931,0.794402
1841,133,3.30132,-0.0177844,0.244383,0.793799
1843,131,3.30374,-0.0123902,0.242651,0.793065
1845,129,3.30317,-0.0144637,0.243099,0.793239
1847,127,3.30268,-0.0133548,0.243097,0.792446
1849,125,3.30228,-0.0140977,0.243097,0.79212
1851,123,3.3019,-0.012917,0.243098,0.791372
1853,121,3.30164,-0.0137288,0.243116,0.790824
1855,119,3.30376,-0.00964578,0.241816,0.790792
1857,117,3.30299,-0.0105054,0.242264,0.790217
1859,115,3.30253,-0.0194448,0.242261,0.789904
1861,113,3.30215,-0.0202532,0.24226,0.789547
1863,111,3.3017,-0.0190692,0.242259,0.788797
1865,109,3.30143,-0.0198626,0.242258,0.788448
1867,107,3.30379,-0.0166308,0.240979,0.787858
1869,105,3.30348,-0.0165723,0.240978,0.787886
1871,103,3.30299,-0.0154094,0.24098,0.787128
1873,101,3.30269,-0.0161427,0.240976,0.786792
1875,99,3.30201,-0.0170477,0.241424,0.786211
1877,97,3.30198,-0.0158117,0.240976,0.78567
1879,95,3.30409,-0.0117648,0.239693,0.785411
1881,93,3.30354,-0.0105102,0.23969,0.78468
1883,91,3.30324,-0.0113088,0.239689,0.784332
1885,89,3.30231,-0.0143264,0.240587,0.783916
1887,87,3.3023,-0.0129552,0.240135,0.78343
1889,85,3.30174,-0.0219959,0.240134,0.783097
1891,83,3.30383,-0.0179251,0.238852,0.782846
1893,81,3.30346,-0.0105546,0.239301,0.782256
1895,79,3.30307,-0.0174614,0.23885,0.781771
1897,77,3.30194,-0.0205403,0.23975,0.781362
1899,75,3.30195,-0.0191641,0.239298,0.780857
1901,73,3.30172,-0.0200147,0.239298,0.78049
1903,71,3.30367,-0.0146832,0.238031,0.77951
1905,69,3.30358,-0.0154902,0.238015,0.779166
1907,67,3.30304,-0.014301,0.238013,0.778397
1909,65,3.30265,-0.0143514,0.238015,0.778394
1911,63,3.30274,-0.0129731,0.237567,0.777903
1913,61,3.30489,-0.00971132,0.236291,0.777299
1915,59,3.30377,-0.0188742,0.236733,0.776752
1917,57,3.30344,-0.0196397,0.236676,0.776423
1919,55,3.30271,-0.0206147,0.23718,0.775824
1921,53,3.30264,-0.0192715,0.236729,0.775299
1923,51,3.30189,-0.0201914,0.237177,0.774722
1925,49,3.30405,-0.0168541,0.236595,0.774145
1927,47,3.30405,-0.0155119,0.235445,0.773624
1929,45,3.30331,-0.0164406,0.2358,0.773035
1931,43,3.30283,-0.0186491,0.236458,0.773198
1933,41,3.30288,-0.0172015,0.235895,0.772755
1935,39,3.30486,-0.0118981,0.234617,0.771747
1937,37,3.3047,-0.0126401,0.234618,0.771437
1939,35,3.30446,-0.0134332,0.235323,0.77111
1941,33,3.30396,-0.0122946,0.234615,0.770315
1943,31,3.30358,-0.0130747,0.234611,0.769973
1945,29,3.30234,-0.0223408,0.235069,0.769412
1947,27,3.30454,-0.0190395,0.233772,0.768795
1949,25,3.30379,-0.0199702,0.234212,0.768205
1951,23,3.30372,-0.0186204,0.233873,0.767683
1953,21,3.30345,-0.0193722,0.233761,0.767365
1955,19,3.3026,-0.0203062,0.234207,0.766794
1957,17,3.30485,-0.0170245,0.232928,0.766176
1959,15,3.304825,-0.0156315,0.232479,0.765931
1961,13,3.30398,-0.0165791,0.232922,0.765083
1963,11,3.30384,-0.0152683,0.232475,0.764543
1965,9,3.30323,-0.0140721,0.232476,0.763785
1967,7,3.30496,-0.0190277,0.231193,0.76325
1969,5,3.30516,-0.0115151,0.231199,0.76288
1971,3,3.30398,-0.0208407,0.231644,0.762338