File: hust_correlation_analysis/matrices/HUST_6-1_cycle_feature_matrix.csv
cycle_number,rul,voltage,current,capacity,charge_capacity
1,1611,3.31514,-0.00679969,0.342137,1.02258
3,1609,3.30471,-0.00696053,0.347075,1.01804
5,1607,3.3044,-0.00837111,0.347549,1.01702
7,1605,3.30416,-0.00915716,0.347548,1.01657
9,1603,3.30399,-0.00973012,0.347548,1.01624
11,1601,3.30599,-0.0066351,0.345918,1.01652
13,1599,3.30608,-0.00728828,0.345917,1.01588
15,1597,3.30555,-0.00794797,0.346393,1.01531
17,1595,3.30599,-0.00843386,0.345913,1.01521
19,1593,3.30597,-0.00848367,0.345913,1.01519
21,1591,3.30597,-0.00913006,0.345914,1.01481
23,1589,3.30571,-0.00969402,0.345912,1.01448
25,1587,3.30548,-0.00965943,0.345914,1.01452
27,1585,3.30728,-0.00731279,0.34476,1.0139
29,1583,3.307,-0.00740359,0.344763,1.01385
31,1581,3.30671,-0.00736399,0.34474,1.01386
33,1579,3.30668,-0.00790692,0.344767,1.01356
35,1577,3.30596,-0.00800401,0.345242,1.01333
37,1575,3.30623,-0.00860438,0.345169,1.01298
39,1573,3.30576,-0.00855389,0.345241,1.013
41,1571,3.30627,-0.00855529,0.344769,1.0132
43,1569,3.30648,-0.00914297,0.344858,1.01286
45,1567,3.3056,-0.00926606,0.345251,1.01262
47,1565,3.30563,-0.00980418,0.345252,1.01231
49,1563,3.30595,-0.00983596,0.344864,1.01247
51,1561,3.30739,-0.0073823,0.344102,1.01175
53,1559,3.30713,-0.00741857,0.344096,1.01172
55,1557,3.30752,-0.00735967,0.343624,1.01193
57,1555,3.30715,-0.008082,0.344104,1.01133
59,1553,3.30705,-0.00808374,0.344103,1.01135
61,1551,3.30725,-0.0079827,0.343125,1.01158
63,1549,3.30692,-0.00869295,0.344582,1.01098
65,1547,3.30672,-0.00864866,0.344106,1.01102
67,1545,3.30685,-0.00922151,0.344106,1.01068
69,1543,3.30663,-0.00924845,0.344105,1.01067
71,1541,3.3066,-0.00928387,0.3447,1.01065
73,1539,3.30644,-0.00982853,0.344106,1.01034
75,1537,3.30633,-0.00983846,0.344102,1.01033
77,1535,3.30822,-0.00742362,0.342954,1.00975
79,1533,3.30866,-0.00737739,0.342585,1.0096
81,1531,3.3085,-0.00729495,0.34248,1.01002
83,1529,3.30817,-0.00797754,0.342956,1.00945
85,1527,3.30798,-0.00796224,0.342955,1.00966
87,1525,3.30768,-0.00799147,0.342956,1.00942
89,1523,3.30797,-0.00800328,0.342954,1.00943
91,1521,3.30797,-0.00857816,0.342956,1.00908
93,1519,3.30762,-0.00865826,0.342952,1.00904
95,1517,3.30791,-0.00923415,0.342952,1.00871
97,1515,3.30765,-0.00923429,0.343056,1.00868
99,1513,3.30778,-0.00925825,0.342949,1.00868
101,1511,3.30774,-0.00981672,0.342948,1.00834
103,1509,3.30759,-0.00981899,0.342949,1.00835
105,1507,3.30737,-0.00977794,0.342949,1.00837
107,1505,3.30916,-0.00681907,0.341905,1.00813
109,1503,3.30916,-0.00735445,0.341804,1.00645
111,1501,3.30896,-0.00732232,0.341799,1.00783
113,1499,3.30875,-0.00741295,0.341803,1.00778
115,1497,3.30858,-0.00807673,0.342274,1.00721
117,1495,3.30836,-0.00807219,0.342273,1.0072
119,1493,3.30828,-0.00811297,0.342273,1.00718
121,1491,3.30892,-0.00862423,0.341797,1.00705
123,1489,3.30867,-0.00862497,0.341796,1.00706
125,1487,3.30864,-0.00861049,0.341798,1.00706
127,1485,3.30868,-0.00861458,0.341797,1.00707
129,1483,3.30831,-0.00927579,0.342272,1.00651
131,1481,3.30819,-0.00928872,0.342272,1.0065
133,1479,3.30791,-0.00929808,0.342276,1.00675
135,1477,3.30774,-0.00932255,0.342271,1.00648
137,1475,3.30749,-0.00993991,0.342745,1.00592
139,1473,3.3077,-0.00986919,0.342273,1.00615
141,1471,3.30763,-0.00991821,0.342227,1.00612
143,1469,3.30919,-0.00682381,0.341119,1.00593
145,1467,3.30922,-0.00741475,0.341111,1.00556
147,1465,3.30936,-0.00742983,0.341113,1.00556
149,1463,3.30936,-0.00741665,0.341111,1.00557
151,1461,3.30936,-0.00795646,0.341109,1.00523
153,1459,3.30886,-0.0080954,0.341587,1.00499
155,1457,3.3091,-0.00803551,0.34111,1.00545
157,1455,3.3089,-0.00800144,0.341117,1.00523
159,1453,3.30911,-0.00809007,0.341588,1.00519
161,1451,3.30926,-0.00863493,0.341109,1.00486
163,1449,3.30835,-0.00871208,0.341579,1.00461
165,1447,3.30868,-0.00862367,0.341108,1.00484
167,1445,3.3086,-0.00932063,0.341582,1.00426
169,1443,3.30866,-0.00929208,0.341208,1.00445
171,1441,3.30903,-0.00919097,0.341102,1.0045
173,1439,3.30865,-0.00930575,0.341109,1.00445
175,1437,3.30864,-0.00918228,0.341106,1.00451
177,1435,3.30827,-0.0099086,0.341574,1.0039
179,1433,3.3087,-0.00977379,0.341105,1.00416
181,1431,3.30837,-0.00982569,0.341106,1.00413
183,1429,3.3083,-0.00984248,0.341103,1.00413
185,1427,3.31045,-0.00736329,0.339954,1.00357
187,1425,3.30998,-0.00742742,0.340901,1.00336
189,1423,3.30998,-0.00746663,0.340032,1.00334
191,1421,3.3098,-0.00744168,0.340427,1.00335
193,1419,3.3095,-0.00747891,0.340425,1.00332
195,1417,3.31012,-0.00739782,0.339959,1.00356
197,1415,3.3095,-0.00746416,0.340435,1.00335
199,1413,3.30954,-0.00810749,0.340427,1.00295
201,1411,3.30964,-0.00797491,0.340427,1.00303
203,1409,3.30951,-0.00808205,0.340427,1.00324
205,1407,3.30933,-0.00807711,0.340431,1.00298
207,1405,3.30952,-0.00805886,0.340428,1.003
209,1403,3.30968,-0.00865987,0.340424,1.00263
211,1401,3.30946,-0.00867093,0.340429,1.00263
213,1399,3.3092,-0.00873168,0.340434,1.00261
215,1397,3.30915,-0.0086791,0.340428,1.00263
217,1395,3.30878,-0.00935633,0.34091,1.00206
219,1393,3.30905,-0.00923436,0.341027,1.0023
221,1391,3.30916,-0.00922722,0.340429,1.0023
223,1389,3.30901,-0.00928696,0.340433,1.00228
225,1387,3.30889,-0.00925124,0.340433,1.0023
227,1385,3.30901,-0.00928316,0.340432,1.00228
229,1383,3.30853,-0.00990799,0.340908,1.00174
231,1381,3.30832,-0.00992814,0.340909,1.00173
233,1379,3.30827,-0.00994156,0.340911,1.00173
235,1377,3.30865,-0.00990833,0.34044,1.00193
237,1375,3.30802,-0.0100052,0.340913,1.00171
239,1373,3.30804,-0.0100211,0.340914,1.00171
241,1371,3.30835,-0.00980674,0.34045,1.00202
243,1369,3.30772,-0.00997953,0.340921,1.00174
245,1367,3.30953,-0.00746759,0.339773,1.00119
247,1365,3.30954,-0.00751496,0.339765,1.00115
249,1363,3.30973,-0.0075062,0.339764,1.00117
251,1361,3.30943,-0.00750605,0.339765,1.00116
253,1359,3.30961,-0.00750826,0.339764,1.00116
255,1357,3.30977,-0.00811623,0.339764,1.0008
257,1355,3.30931,-0.00816342,0.339766,1.00076
259,1353,3.30922,-0.00811621,0.339768,1.00107
261,1351,3.3091,-0.00814337,0.339769,1.0008
263,1349,3.30941,-0.00817885,0.339764,1.00077
265,1347,3.30893,-0.0087972,0.340239,1.00022
267,1345,3.30911,-0.00868506,0.339761,1.00045
269,1343,3.30918,-0.00870478,0.339762,1.00045
271,1341,3.30916,-0.00936873,0.339763,1.00006
273,1339,3.30894,-0.00928569,0.339765,1.00011
275,1337,3.30914,-0.0093375,0.339765,1.00008
277,1335,3.30902,-0.00937507,0.339768,1.00006
279,1333,3.30874,-0.00934275,0.339764,1.00008
281,1331,3.30906,-0.00935524,0.339764,1.00009
283,1329,3.30911,-0.00988895,0.339765,0.999764
285,1327,3.30824,-0.0100032,0.34024,0.999521
287,1325,3.30885,-0.00994942,0.339763,0.999723
289,1323,3.31034,-0.00754007,0.339084,0.998939
291,1321,3.31068,-0.0074591,0.338611,0.999153
293,1319,3.31066,-0.00742474,0.338613,0.999189
295,1317,3.31056,-0.00746483,0.338612,0.999163
297,1315,3.31066,-0.00748696,0.338615,0.999166
299,1313,3.31043,-0.00750088,0.338693,0.999136
301,1311,3.31045,-0.00806913,0.338614,0.998815
303,1309,3.30991,-0.00814569,0.339091,0.998607
305,1307,3.30951,-0.00816912,0.339086,0.998573
307,1305,3.30953,-0.008154,0.339086,0.998587
309,1303,3.31011,-0.00814674,0.338612,0.998764
311,1301,3.30993,-0.00873182,0.338612,0.998411
313,1299,3.30985,-0.0087185,0.338613,0.998417
315,1297,3.30997,-0.00870503,0.33861,0.998433
317,1295,3.31021,-0.0092646,0.33861,0.998087
319,1293,3.31008,-0.00923774,0.338608,0.998105
321,1291,3.30952,-0.00938989,0.339085,0.997855
323,1289,3.30954,-0.00939025,0.339165,0.997846
325,1287,3.30973,-0.00927472,0.338607,0.998084
327,1285,3.30925,-0.00995657,0.339183,0.997507
329,1283,3.3093,-0.00995163,0.33908,0.997522
331,1281,3.30887,-0.00998807,0.339082,0.997489
333,1279,3.30879,-0.00999235,0.339079,0.997475
335,1277,3.31079,-0.00689611,0.33793,0.997285
337,1275,3.31076,-0.0075251,0.33801,0.996899
339,1273,3.31106,-0.00742115,0.337459,0.997146
341,1271,3.31076,-0.00807747,0.33793,0.996583
343,1269,3.31056,-0.00812135,0.337929,0.99657
345,1267,3.3105,-0.00808929,0.337931,0.996573
347,1265,3.31046,-0.00811901,0.337928,0.99656
349,1263,3.31104,-0.00806385,0.337456,0.996769
351,1261,3.3109,-0.00874165,0.337933,0.996208
353,1259,3.31065,-0.00873886,0.337931,0.996207
355,1257,3.31055,-0.00871616,0.337934,0.996222
357,1255,3.31011,-0.0087275,0.337519,0.996203
359,1253,3.3103,-0.00931976,0.337929,0.995847
361,1251,3.31044,-0.00931727,0.337927,0.995852
363,1249,3.31018,-0.00937656,0.337926,0.995823
365,1247,3.31065,-0.00928557,0.337453,0.996043
367,1245,3.31003,-0.00991544,0.337927,0.995494
369,1243,3.30991,-0.00991443,0.337925,0.995486
371,1241,3.30971,-0.00989964,0.338397,0.995504
373,1239,3.3114,-0.00691602,0.336776,0.995244
375,1237,3.31176,-0.00750637,0.336779,0.994897
377,1235,3.31143,-0.00755096,0.337248,0.99486
379,1233,3.3114,-0.00747756,0.336778,0.994919
381,1231,3.31149,-0.00751854,0.336778,0.994886
383,1229,3.31143,-0.00808929,0.336776,0.994535
385,1227,3.3115,-0.00806965,0.336781,0.994585
387,1225,3.31126,-0.00810913,0.336775,0.994538
389,1223,3.31144,-0.00869401,0.336774,0.994184
391,1221,3.31134,-0.00864735,0.336774,0.994221
393,1219,3.31154,-0.00862888,0.336301,0.994393
395,1217,3.31105,-0.00873724,0.336775,0.994167
397,1215,3.31086,-0.00871181,0.336773,0.994168
399,1213,3.31036,-0.00940416,0.337246,0.993584
401,1211,3.31042,-0.00938334,0.337248,0.993609
403,1209,3.31015,-0.00941618,0.337721,0.993589
405,1207,3.3106,-0.00933135,0.336773,0.993795
407,1205,3.31035,-0.0100215,0.337245,0.993223
409,1203,3.31077,-0.00994217,0.33677,0.993436
411,1201,3.31249,-0.00684491,0.335623,0.993243
413,1199,3.31246,-0.00748237,0.335622,0.992845
415,1197,3.31252,-0.00750022,0.336213,0.992851
417,1195,3.31216,-0.00748276,0.335621,0.992843
419,1193,3.31245,-0.00806385,0.335621,0.992503
421,1191,3.31185,-0.00814839,0.336092,0.992285
423,1189,3.31153,-0.00817134,0.336093,0.99252
425,1187,3.31142,-0.00810765,0.336094,0.992309
427,1185,3.31181,-0.00805201,0.335622,0.992512
429,1183,3.31154,-0.00875455,0.336094,0.991922
431,1181,3.31147,-0.0088232,0.336093,0.991884
433,1179,3.31207,-0.00875542,0.335619,0.992094
435,1177,3.3114,-0.00941841,0.336091,0.991519
437,1175,3.31185,-0.00926796,0.335617,0.991772
439,1173,3.31119,-0.00936474,0.33609,0.991552
441,1171,3.31121,-0.00938225,0.336091,0.991555
443,1169,3.31146,-0.00928905,0.33562,0.991771
445,1167,3.3111,-0.00999704,0.336563,0.99094
447,1165,3.31095,-0.00998056,0.336092,0.991187
449,1163,3.31014,-0.0100044,0.336569,0.990996
451,1161,3.31004,-0.0100317,0.336565,0.990992
453,1159,3.31213,-0.00756336,0.335417,0.990401
455,1157,3.31212,-0.00764987,0.335423,0.990374
457,1155,3.31234,-0.00753008,0.334945,0.990595
459,1153,3.31232,-0.00750325,0.334945,0.990613
461,1151,3.31202,-0.00818906,0.335415,0.990033
463,1149,3.31231,-0.00802615,0.334944,0.990302
465,1147,3.31176,-0.00816216,0.335417,0.99005
467,1145,3.31238,-0.008107,0.334947,0.990269
469,1143,3.31142,-0.00872944,0.335414,0.989676
471,1141,3.31152,-0.00880491,0.335415,0.989654
473,1139,3.31088,-0.00886036,0.335967,0.989455
475,1137,3.31084,-0.00886186,0.335888,0.989453
477,1135,3.31069,-0.00943083,0.335887,0.98911
479,1133,3.31115,-0.00941466,0.335415,0.98929
481,1131,3.31108,-0.00943171,0.335413,0.989294
483,1129,3.31096,-0.0100307,0.335415,0.988925
485,1127,3.31115,-0.0100075,0.335409,0.988944
487,1125,3.31293,-0.00755623,0.334267,0.988342
489,1123,3.31286,-0.0074714,0.334264,0.988403
491,1121,3.31275,-0.00752387,0.334734,0.988366
493,1119,3.31246,-0.00821213,0.334658,0.987783
495,1117,3.31212,-0.00817531,0.334738,0.988064
497,1115,3.3121,-0.00820932,0.334738,0.98779
499,1113,3.31188,-0.00819917,0.334736,0.987795
501,1111,3.31172,-0.00882363,0.334739,0.987422
503,1109,3.31178,-0.00883787,0.33474,0.987417
505,1107,3.31175,-0.00890286,0.334736,0.987371
507,1105,3.31184,-0.00941135,0.334735,0.987079
509,1103,3.31182,-0.00939979,0.334735,0.987086
511,1101,3.31182,-0.00941226,0.335326,0.987087
513,1099,3.31168,-0.00998701,0.335207,0.986726
515,1097,3.31124,-0.00998248,0.334737,0.986735
517,1095,3.31135,-0.0100107,0.33474,0.986731
519,1093,3.31252,-0.00701778,0.334166,0.986284
521,1091,3.31252,-0.00756638,0.334065,0.985951
523,1089,3.31237,-0.00760537,0.334065,0.985927
525,1087,3.31256,-0.00759628,0.333692,0.986104
527,1085,3.31222,-0.00821837,0.334062,0.985311
529,1083,3.31207,-0.00822734,0.334063,0.985549
531,1081,3.31242,-0.0088188,0.334059,0.985197
533,1079,3.31228,-0.00880482,0.334059,0.985192
535,1077,3.31277,-0.00874509,0.333584,0.985412
537,1075,3.31212,-0.00944886,0.334058,0.984823
539,1073,3.31198,-0.00935592,0.334056,0.984888
541,1071,3.31118,-0.00951357,0.334536,0.984618
543,1069,3.31171,-0.00944911,0.334058,0.984813
545,1067,3.31109,-0.0101092,0.33453,0.984243
547,1065,3.31154,-0.0100723,0.334053,0.984435
549,1063,3.31132,-0.0100732,0.334057,0.984439
551,1061,3.31299,-0.00762335,0.333383,0.983669
553,1059,3.31298,-0.00759958,0.33338,0.98367
555,1057,3.31323,-0.00822605,0.333374,0.983282
557,1055,3.31303,-0.00820107,0.333371,0.983282
559,1053,3.31279,-0.00823646,0.333373,0.983285
561,1051,3.31245,-0.00886641,0.334318,0.982736
563,1049,3.31212,-0.0088841,0.333846,0.982718
565,1047,3.31192,-0.00888858,0.333842,0.982703
567,1045,3.31235,-0.00886226,0.333368,0.982893
569,1043,3.31214,-0.00953453,0.333841,0.982322
571,1041,3.31239,-0.00946874,0.333367,0.982529
573,1039,3.3121,-0.00944779,0.33336,0.982524
575,1037,3.31186,-0.0101167,0.333837,0.981965
577,1035,3.31154,-0.0100752,0.333834,0.981979
579,1033,3.31388,-0.0068927,0.33221,0.981973
581,1031,3.31349,-0.00759971,0.332682,0.981384
583,1029,3.31326,-0.00753065,0.332679,0.981421
585,1027,3.3126,-0.00765442,0.333152,0.981164
587,1025,3.3131,-0.00815297,0.332679,0.981042
589,1023,3.31268,-0.00815435,0.332677,0.981034
591,1021,3.31298,-0.00824809,0.332674,0.980973
593,1019,3.3132,-0.00884164,0.332678,0.980628
595,1017,3.31293,-0.00880617,0.332676,0.980649
597,1015,3.31226,-0.00943705,0.333151,0.980096
599,1013,3.31221,-0.00947556,0.333149,0.980067
601,1011,3.3121,-0.00946465,0.333154,0.980095
603,1009,3.31228,-0.00945203,0.332678,0.980263
605,1007,3.3119,-0.0101797,0.333152,0.979666
607,1005,3.31166,-0.0101472,0.33315,0.979677
609,1003,3.31298,-0.00769481,0.332481,0.979156
611,1001,3.31338,-0.00762051,0.332007,0.979124
613,999,3.3132,-0.00763465,0.332006,0.979114
615,997,3.31343,-0.00759725,0.332004,0.979136
617,995,3.31346,-0.00817334,0.332003,0.978781
619,993,3.31319,-0.00821118,0.332006,0.978763
621,991,3.31231,-0.00833357,0.332477,0.978528
623,989,3.31271,-0.00891319,0.33248,0.978184
625,987,3.31242,-0.00891577,0.332478,0.977948
627,985,3.31233,-0.00888422,0.332478,0.978181
629,983,3.31247,-0.00955393,0.332475,0.977788
631,981,3.31216,-0.00953382,0.332477,0.977809
633,979,3.3119,-0.0101826,0.332473,0.977416
635,977,3.31224,-0.0100876,0.332476,0.977486
637,975,3.31391,-0.00704664,0.331331,0.977216
639,973,3.31388,-0.00758756,0.331329,0.976873
641,971,3.31364,-0.00767109,0.331331,0.975502
643,969,3.31369,-0.0082445,0.331331,0.976495
645,967,3.31292,-0.00832387,0.331807,0.976274
647,965,3.31294,-0.00832603,0.331809,0.976291
649,963,3.31334,-0.00833643,0.331788,0.976462
651,961,3.31309,-0.00894045,0.331882,0.975919
653,959,3.31269,-0.00901038,0.331807,0.975879
655,957,3.31281,-0.0095339,0.331804,0.975554
657,955,3.31197,-0.00960599,0.332286,0.975357
659,953,3.31253,-0.0102387,0.332272,0.974902
661,951,3.3126,-0.0102,0.331802,0.975171
663,949,3.31415,-0.00695521,0.330656,0.975016
665,947,3.31375,-0.00761836,0.331134,0.974442
667,945,3.31388,-0.00761468,0.330656,0.974613
669,943,3.31286,-0.00833567,0.331608,0.973849
671,941,3.31341,-0.00831662,0.331131,0.974029
673,939,3.31337,-0.00832228,0.331135,0.974041
675,937,3.31371,-0.00885119,0.33113,0.973708
677,935,3.31313,-0.0089198,0.33113,0.973663
679,933,3.31323,-0.00955014,0.331128,0.973278
681,931,3.31286,-0.00947767,0.331125,0.973326
683,929,3.31294,-0.00956969,0.331124,0.973281
685,927,3.31254,-0.0103076,0.3316,0.972667
687,925,3.31445,-0.00698322,0.329976,0.972713
689,923,3.31394,-0.00773066,0.331045,0.972112
691,921,3.31441,-0.00759604,0.329976,0.972352
693,919,3.31403,-0.00820192,0.330453,0.97182
695,917,3.31381,-0.00827208,0.330452,0.971775
697,915,3.31367,-0.00831222,0.330451,0.971748
699,913,3.31312,-0.00897112,0.330933,0.971218
701,911,3.31322,-0.00891102,0.330555,0.971407
703,909,3.31278,-0.00894662,0.330932,0.971214
705,907,3.31273,-0.009565,0.330931,0.970849
707,905,3.31243,-0.009639,0.330931,0.970806
709,903,3.31256,-0.0103117,0.330928,0.970392
711,901,3.31225,-0.0102266,0.330929,0.970453
713,899,3.31424,-0.006095,0.329781,0.96954
715,897,3.31449,-0.00607295,0.329303,0.971056
717,895,3.31379,-0.0124237,0.329302,0.969731
719,893,3.31337,-0.0131686,0.329779,0.969135
721,891,3.3134,-0.0131536,0.329781,0.969401
723,889,3.31304,-0.013784,0.329782,0.968775
725,887,3.31277,-0.00753625,0.330264,0.968525
727,885,3.31324,-0.00748096,0.329882,0.968732
729,883,3.3129,-0.0144141,0.329785,0.968416
731,881,3.31302,-0.0127999,0.329302,0.968246
733,879,3.3124,-0.0134338,0.329837,0.967706
735,877,3.31461,-0.0101804,0.328155,0.967711
737,875,3.3144,-0.00770738,0.327682,0.966792
739,873,3.31402,-0.00930655,0.328156,0.96695
741,871,3.31354,-0.00994729,0.328632,0.966412
743,869,3.31406,-0.0084194,0.327684,0.96638
745,867,3.31422,-0.00726204,0.327205,0.965937
747,865,3.31376,-0.00897091,0.32815,0.966047
749,863,3.31383,-0.00804993,0.327684,0.965182
751,861,3.31328,-0.00970276,0.328161,0.965465
753,859,3.31246,-0.0102767,0.328633,0.964947
755,857,3.31262,-0.00872268,0.328159,0.964757
757,855,3.31474,-0.0119022,0.326641,0.964755
759,853,3.31397,-0.0125942,0.327015,0.964173
761,851,3.31445,-0.0124936,0.32654,0.964646
763,849,3.3142,-0.0132304,0.327019,0.963808
765,847,3.31398,-0.0115146,0.326545,0.963699
767,845,3.31374,-0.0132248,0.327017,0.963821
769,843,3.31365,-0.0138198,0.327017,0.963442
771,841,3.31345,-0.013827,0.32702,0.963462
773,839,3.31267,-0.014557,0.327498,0.962862
775,837,3.31311,-0.0144099,0.327485,0.963119
777,835,3.31517,-0.01028,0.3254,0.962346
779,833,3.31511,-0.00775628,0.32493,0.961448
781,831,3.31521,-0.00834499,0.324927,0.961101
783,829,3.31495,-0.00677689,0.323639,0.960912
785,827,3.31436,-0.00739878,0.324926,0.960381
787,825,3.31407,-0.00731777,0.324927,0.960433
789,823,3.31346,-0.0106734,0.325935,0.960694
791,821,3.31365,-0.00959591,0.325397,0.960193
793,819,3.31402,-0.00805379,0.324933,0.960008
795,817,3.31335,-0.00877466,0.325994,0.959432
797,815,3.31514,-0.0118741,0.323789,0.959453
799,813,3.31462,-0.0125856,0.324264,0.958656
801,811,3.31434,-0.0125913,0.324261,0.958867
803,809,3.31427,-0.0115902,0.323791,0.958334
805,807,3.31457,-0.0122058,0.32379,0.957972
807,805,3.31494,-0.012093,0.32332,0.958194
809,803,3.31424,-0.00968993,0.32332,0.957057
811,801,3.31422,-0.0111978,0.323316,0.957436
813,799,3.3136,-0.0118985,0.323786,0.956867
815,797,3.31558,-0.00711214,0.322179,0.95649
817,795,3.31523,-0.00779648,0.322646,0.95592
819,793,3.31613,-0.00767378,0.321711,0.956329
821,791,3.31572,-0.00837795,0.322181,0.955744
823,789,3.31501,-0.00837698,0.32265,0.955597
825,787,3.31479,-0.0090128,0.322644,0.955214
827,785,3.31444,-0.00898088,0.322642,0.955214
829,783,3.31414,-0.00808131,0.32264,0.954461
831,781,3.3145,-0.00808494,0.322174,0.954626
833,779,3.31497,-0.00857162,0.322201,0.954498
835,777,3.31567,-0.0125662,0.321501,0.953513
837,775,3.31592,-0.0123584,0.321028,0.953795
839,773,3.31545,-0.00676928,0.321451,0.95314
841,771,3.31456,-0.0131986,0.321967,0.952982
843,769,3.31518,-0.013188,0.321495,0.953138
845,767,3.31486,-0.0138552,0.321497,0.952747
847,765,3.31542,-0.0120845,0.320569,0.952852
849,763,3.31455,-0.0128785,0.3215,0.952074
851,761,3.31414,-0.0151073,0.321965,0.951852
853,759,3.31322,-0.0151673,0.322432,0.951657
855,757,3.3148,-0.0126537,0.321763,0.95089
857,755,3.31517,-0.0126263,0.321294,0.951068
859,753,3.31516,-0.0115656,0.320826,0.950569
861,751,3.31506,-0.00994759,0.320349,0.950379
863,749,3.3149,-0.0105876,0.320413,0.949996
865,747,3.31453,-0.0105935,0.320933,0.950002
867,745,3.31424,-0.0096635,0.320349,0.949263
869,743,3.31455,-0.00960715,0.319881,0.949466
871,741,3.31418,-0.0102334,0.320347,0.948934
873,739,3.31572,-0.00713709,0.319214,0.94868
875,737,3.31522,-0.00773075,0.319681,0.948174
877,735,3.31453,-0.00940781,0.320148,0.94831
879,733,3.31488,-0.00843693,0.319681,0.947746
881,731,3.31463,-0.00746044,0.319678,0.947042
883,729,3.31483,-0.00742741,0.31914,0.947223
885,727,3.31505,-0.00805741,0.319217,0.946861
887,725,3.31446,-0.0145101,0.319792,0.946844
889,723,3.31419,-0.0150855,0.319214,0.946516
891,721,3.31564,-0.0103295,0.318082,0.945954
893,719,3.31481,-0.0126523,0.319012,0.945538
895,717,3.3154,-0.0132449,0.318546,0.945366
897,715,3.3147,-0.0132992,0.319012,0.945174
899,713,3.31491,-0.01387,0.319011,0.944828
901,711,3.31464,-0.0138974,0.31901,0.944816
903,709,3.31381,-0.0129542,0.319069,0.944067
905,707,3.3148,-0.0102605,0.317605,0.943549
907,705,3.31682,-0.00546272,0.316011,0.943173
909,703,3.31619,-0.00614449,0.316475,0.94261
911,701,3.31596,-0.00840325,0.316934,0.942403
913,699,3.31521,-0.00683485,0.316937,0.942028
915,697,3.31544,-0.00900165,0.316937,0.941808
917,695,3.31469,-0.00910368,0.3174,0.941835
919,693,3.31504,-0.00805755,0.316941,0.941335
921,691,3.31471,-0.00811257,0.316934,0.941288
923,689,3.31453,-0.00864195,0.316933,0.940974
925,687,3.31374,-0.010356,0.317873,0.940963
927,685,3.31558,-0.00792182,0.316735,0.940284
929,683,3.31554,-0.0116166,0.316382,0.93966
931,681,3.31567,-0.010025,0.31534,0.939469
933,679,3.31534,-0.0122477,0.3158,0.939295
935,677,3.31489,-0.0113546,0.315801,0.938535
937,675,3.31506,-0.0129144,0.316382,0.938905
939,673,3.31538,-0.0102528,0.314879,0.938211
941,671,3.31701,-0.00709165,0.313748,0.937978
943,669,3.31658,-0.00774607,0.314212,0.937451
945,667,3.31658,-0.00772296,0.314661,0.937447
947,665,3.31556,-0.0101702,0.315133,0.936991
949,663,3.31558,-0.0107212,0.315134,0.936663
951,661,3.31557,-0.00907471,0.314674,0.936496
953,659,3.31524,-0.0113221,0.315135,0.936317
955,657,3.314615,-0.00976004,0.315129,0.935931
957,655,3.31462,-0.00873116,0.314671,0.935406
959,653,3.3162,-0.00722647,0.313997,0.935324
961,651,3.31646,-0.0061488,0.313537,0.934824
963,649,3.31595,-0.00687757,0.313996,0.934238
965,647,3.31542,-0.0139523,0.313894,0.933883
967,645,3.31516,-0.0139316,0.313989,0.933891
969,643,3.31572,-0.0127461,0.313065,0.933612
971,641,3.3149,-0.0136298,0.313987,0.932785
973,639,3.31483,-0.0134815,0.313523,0.933024
975,637,3.31629,-0.0110596,0.312862,0.932201
977,635,3.3157,-0.01181,0.313315,0.931601
979,633,3.31589,-0.00997335,0.312392,0.931694
981,631,3.31616,-0.00902303,0.311933,0.931119
983,629,3.31556,-0.0097102,0.312391,0.930556
985,627,3.31527,-0.00805067,0.311932,0.930402
987,625,3.31487,-0.0119175,0.312856,0.930414
989,623,3.31731,-0.0054334,0.310807,0.929843
991,621,3.31643,-0.00620556,0.311268,0.929248
993,619,3.31619,-0.00678288,0.311268,0.9289
995,617,3.31633,-0.00686493,0.311265,0.928865
997,615,3.31579,-0.00750376,0.311731,0.92833
999,613,3.31551,-0.00810705,0.311723,0.927963
1001,611,3.31529,-0.00813621,0.311723,0.927951
1003,609,3.31698,-0.0103985,0.310131,0.927198
1005,607,3.31642,-0.00945437,0.310129,0.926459
1007,605,3.31681,-0.00841126,0.309672,0.925927
1009,603,3.31663,-0.00998312,0.309672,0.926306
1011,601,3.31603,-0.0106444,0.310131,0.925769
1013,599,3.31544,-0.0140794,0.311114,0.926053
1015,597,3.31541,-0.0113262,0.310593,0.925233
1017,595,3.31534,-0.0113416,0.310132,0.925382
1019,593,3.31677,-0.00880271,0.309469,0.924625
1021,591,3.31641,-0.00786667,0.309469,0.923873
1023,589,3.3166,-0.00939252,0.309526,0.92427
1025,587,3.31616,-0.00850437,0.30947,0.923497
1027,585,3.31587,-0.00905515,0.309469,0.923181
1029,583,3.3155,-0.00910129,0.309562,0.923152
1031,581,3.3151,-0.00988175,0.309924,0.922548
1033,579,3.31517,-0.0153106,0.309464,0.922043
1035,577,3.31639,-0.0127317,0.308222,0.921313
1037,575,3.31597,-0.0127746,0.308799,0.92128
1039,573,3.3161,-0.00686815,0.308802,0.92092
1041,571,3.31566,-0.0132945,0.308851,0.921
1043,569,3.31505,-0.0141143,0.30926,0.920375
1045,567,3.31444,-0.0148132,0.309723,0.919815
1047,565,3.31458,-0.0147205,0.309258,0.92002
1049,563,3.31463,-0.0153642,0.309258,0.91991
1051,561,3.31632,-0.00950003,0.307668,0.9185
1053,559,3.31541,-0.0102539,0.308131,0.91793
1055,557,3.31531,-0.00919533,0.30767,0.9174
1057,555,3.31588,-0.0091449,0.30721,0.917591
1059,553,3.31515,-0.00980343,0.307665,0.917044
1061,551,3.31501,-0.00880942,0.307211,0.91512
1063,549,3.3171,-0.00617235,0.306086,0.915926
1065,547,3.31655,-0.00779108,0.306545,0.916126
1067,545,3.31599,-0.00687732,0.30654,0.915343
1069,543,3.31566,-0.00756946,0.306998,0.9148
1071,541,3.3157,-0.00755914,0.306542,0.914977
1073,539,3.31574,-0.00815706,0.306639,0.914633
1075,537,3.31443,-0.0154865,0.307453,0.913889
1077,535,3.31612,-0.0122031,0.306328,0.913688
1079,533,3.31592,-0.0128789,0.306328,0.913288
1081,531,3.31605,-0.011803,0.30587,0.912765
1083,529,3.31592,-0.0107458,0.30585,0.912226
1085,527,3.31527,-0.011534,0.305871,0.911631
1087,525,3.31525,-0.0115642,0.305864,0.911615
1089,523,3.31659,-0.00894864,0.3052,0.910873
1091,521,3.31627,-0.00784654,0.30474,0.910361
1093,519,3.3158,-0.00857493,0.305196,0.90955
1095,517,3.31551,-0.0109108,0.305655,0.909587
1097,515,3.31562,-0.00751908,0.304736,0.909244
1099,513,3.31545,-0.00817216,0.304736,0.908871
1101,511,3.31461,-0.00894191,0.305193,0.90828
1103,509,3.31641,-0.00791498,0.304524,0.907903
1105,507,3.31631,-0.0127771,0.304065,0.907769
1107,505,3.31572,-0.00693465,0.304522,0.907179
1109,503,3.31464,-0.0142652,0.304979,0.906625
1111,501,3.31486,-0.00830195,0.304979,0.906229
1113,499,3.31427,-0.0149336,0.304979,0.906243
1115,497,3.31642,-0.012137,0.303396,0.90591
1117,495,3.31544,-0.0112968,0.303856,0.904941
1119,493,3.31514,-0.0135883,0.304314,0.904785
1121,491,3.31551,-0.0108792,0.303393,0.904036
1123,489,3.3153,-0.0108926,0.303448,0.904034
1125,487,3.31442,-0.0115866,0.303849,0.903471
1127,485,3.31445,-0.0122354,0.303851,0.903111
1129,483,3.31659,-0.00621181,0.301816,0.902179
1131,481,3.31568,-0.00685522,0.302267,0.90164
1133,479,3.31522,-0.0142216,0.302318,0.901234
1135,477,3.31501,-0.0148508,0.302724,0.900741
1137,475,3.31443,-0.0148806,0.302719,0.900716
1139,473,3.31423,-0.0155209,0.302721,0.900342
1141,471,3.31625,-0.0111756,0.301147,0.899604
1143,469,3.31565,-0.011863,0.302169,0.899044
1145,467,3.31539,-0.012583,0.301598,0.897124
1147,465,3.31464,-0.012695,0.302056,0.898427
1149,463,3.31424,-0.0132481,0.302106,0.898109
1151,461,3.31668,-0.00728544,0.300022,0.897139
1153,459,3.31582,-0.00968847,0.300933,0.896757
1155,457,3.31505,-0.00865022,0.300933,0.896041
1157,455,3.31542,-0.00926245,0.300473,0.895851
1159,453,3.31511,-0.00828311,0.300472,0.895117
1161,451,3.3147,-0.0088886,0.300471,0.894771
1163,449,3.31571,-0.0129873,0.299807,0.893998
1165,447,3.31572,-0.0136683,0.300375,0.893626
1167,445,3.31543,-0.0118863,0.299352,0.893478
1169,443,3.31499,-0.011514,0.29935,0.892394
1171,441,3.31466,-0.0133028,0.300244,0.891126
1173,439,3.31409,-0.0140566,0.30026,0.891955
1175,437,3.31564,-0.00969842,0.299143,0.891024
1177,435,3.31529,-0.0103261,0.299141,0.890674
1179,433,3.31499,-0.0109437,0.299141,0.890322
1181,431,3.31473,-0.00996159,0.299141,0.889589
1183,429,3.31431,-0.0106323,0.299136,0.889206
1185,427,3.31579,-0.00729175,0.298018,0.888996
1187,425,3.31539,-0.00637563,0.298016,0.888209
1189,423,3.31512,-0.00699428,0.298017,0.887871
1191,421,3.31488,-0.0143267,0.298015,0.887538
1193,419,3.31422,-0.0150785,0.298468,0.886958
1195,417,3.31583,-0.0124225,0.297352,0.886374
1197,415,3.3154,-0.0113703,0.297354,0.885876
1199,413,3.31529,-0.01029,0.296898,0.885132
1201,411,3.31409,-0.0110632,0.297806,0.884375
1203,409,3.3142,-0.0134141,0.297807,0.884366
1205,407,3.31398,-0.0107901,0.297351,0.883393
1207,405,3.3154,-0.00974889,0.296687,0.882784
1209,403,3.31497,-0.00974011,0.296689,0.883052
1211,401,3.31499,-0.00865485,0.296233,0.882509
1213,399,3.31406,-0.0143913,0.29623,0.881778
1215,397,3.31359,-0.0157493,0.296686,0.880885
1217,395,3.31528,-0.0124631,0.296006,0.880646
1219,393,3.31505,-0.0130881,0.295571,0.880293
1221,391,3.31438,-0.013881,0.296026,0.87971
1223,389,3.31351,-0.0145801,0.296483,0.87916
1225,387,3.31328,-0.00838461,0.296482,0.878815
1227,385,3.31287,-0.0142091,0.296482,0.878068
1229,383,3.3148,-0.00970633,0.29491,0.877348
1231,381,3.31373,-0.0122316,0.295821,0.876934
1233,379,3.314,-0.0128928,0.294946,0.876734
1235,377,3.31444,-0.01004,0.294887,0.876028
1237,375,3.31358,-0.0107078,0.294906,0.875504
1239,373,3.31477,-0.00808303,0.294245,0.874712
1241,371,3.3147,-0.00878041,0.294245,0.874337
1243,369,3.31411,-0.012863,0.293327,0.873417
1245,367,3.31387,-0.0134915,0.293792,0.87308
1247,365,3.31277,-0.0159564,0.294702,0.872711
1249,363,3.31483,-0.0063828,0.293588,0.872137
1251,361,3.31403,-0.0121868,0.293587,0.871411
1253,359,3.31345,-0.0146135,0.294044,0.871236
1255,357,3.3126,-0.0147006,0.294506,0.87105
1257,355,3.31298,-0.0135775,0.294048,0.870517
1259,353,3.31458,-0.0109264,0.292931,0.869896
1261,351,3.31369,-0.0116264,0.29339,0.869352
1263,349,3.31375,-0.0105269,0.292929,0.868823
1265,347,3.31356,-0.0111524,0.293025,0.868484
1267,345,3.31276,-0.00914872,0.292928,0.866977
1269,343,3.31438,-0.0132895,0.291814,0.866411
1271,341,3.31432,-0.00711269,0.291812,0.866012
1273,339,3.31459,-0.0070346,0.291361,0.866239
1275,337,3.31308,-0.0146991,0.292274,0.865507
1277,335,3.31196,-0.0092538,0.293189,0.862959
1279,333,3.3136,-0.0134732,0.292164,0.86379
1281,331,3.31395,-0.0133406,0.291614,0.864018
1283,329,3.31285,-0.0130467,0.29207,0.862729
1285,327,3.31256,-0.0137066,0.29207,0.862367
1287,325,3.31192,-0.0155164,0.292962,0.862024
1289,323,3.31409,-0.0092318,0.290498,0.861584
1291,321,3.31381,-0.00882039,0.290494,0.860498
1293,319,3.31316,-0.00790551,0.290497,0.859707
1295,317,3.31265,-0.0102981,0.290954,0.859564
1297,315,3.31459,-0.0127438,0.289384,0.858568
1299,313,3.31419,-0.0133088,0.289382,0.858475
1301,311,3.31284,-0.0123935,0.289835,0.857503
1303,309,3.31316,-0.0148107,0.289838,0.857512
1305,307,3.31257,-0.0137738,0.289839,0.856779
1307,305,3.31386,-0.00927288,0.288727,0.855835
1309,303,3.31343,-0.00995022,0.288722,0.855464
1311,301,3.31312,-0.0124422,0.289177,0.855273
1313,299,3.3125,-0.0113732,0.289268,0.854551
1315,297,3.31199,-0.010367,0.28918,0.85379
1317,295,3.31386,-0.00831125,0.288066,0.852828
1319,293,3.31339,-0.00721753,0.288063,0.852124
1321,291,3.31281,-0.0131068,0.287603,0.851549
1323,289,3.31207,-0.0137551,0.288059,0.851045
1325,287,3.31377,-0.0128553,0.287404,0.850622
1327,285,3.31378,-0.011701,0.286947,0.850085
1329,283,3.31306,-0.0106294,0.286947,0.849359
1331,281,3.31229,-0.0114314,0.287399,0.848763
1333,279,3.31231,-0.0138503,0.287399,0.848795
1335,277,3.31402,-0.00743784,0.285835,0.847711
1337,275,3.31277,-0.00897383,0.286744,0.846564
1339,273,3.31271,-0.00899372,0.286288,0.846712
1341,271,3.31224,-0.0103477,0.286742,0.845835
1343,269,3.31151,-0.0163112,0.28674,0.845084
1345,267,3.31259,-0.0136048,0.286084,0.84432
1347,265,3.31219,-0.0143179,0.286116,0.843934
1349,263,3.31237,-0.0131349,0.285626,0.843413
1351,261,3.31181,-0.0121866,0.285623,0.84262
1353,259,3.31337,-0.0111588,0.284972,0.84226
1355,257,3.31329,-0.0100129,0.284515,0.841714
1357,255,3.31265,-0.010833,0.284969,0.841131
1359,253,3.312208,-0.0114859,0.284968,0.840778
1361,251,3.31167,-0.010469,0.284967,0.840017
1363,249,3.3132,-0.00760745,0.283859,0.839471
1365,247,3.31323,-0.00826855,0.28386,0.83913
1367,245,3.3132,-0.00720959,0.283406,0.838555
1369,243,3.31117,-0.00872344,0.284767,0.837253
1371,241,3.31095,-0.00943957,0.284766,0.836869
1373,239,3.31289,-0.0118751,0.283197,0.836135
1375,237,3.31277,-0.0089355,0.282285,0.835369
1377,235,3.31189,-0.0115443,0.283191,0.834976
1379,233,3.3113,-0.0141089,0.283647,0.834794
1381,231,3.31344,-0.00756014,0.281633,0.833885
1383,229,3.31267,-0.00830427,0.282087,0.833342
1385,227,3.31174,-0.010976,0.283423,0.832936
1387,225,3.31164,-0.0097975,0.282546,0.832414
1389,223,3.31102,-0.015829,0.282543,0.831676
1391,221,3.31297,-0.00770539,0.281893,0.831299
1393,219,3.31207,-0.00666107,0.281892,0.830546
1395,217,3.31113,-0.0151513,0.28235,0.829681
1397,215,3.31089,-0.0158877,0.282345,0.829287
1399,213,3.31268,-0.0130014,0.281228,0.828726
1401,211,3.31236,-0.0101879,0.280775,0.827997
1403,209,3.31193,-0.0116285,0.281237,0.826859
1405,207,3.31219,-0.00799851,0.279871,0.826617
1407,205,3.31066,-0.0123103,0.281231,0.825167
1409,203,3.31181,-0.00953731,0.28058,0.825725
1411,201,3.31198,-0.00839033,0.280126,0.825184
1413,199,3.31145,-0.00732799,0.280123,0.824428
1415,197,3.31085,-0.00984772,0.280582,0.824273
1417,195,3.31077,-0.00876989,0.280124,0.823941
1419,193,3.31217,-0.00589661,0.279473,0.822956
1421,191,3.31142,-0.0137705,0.279473,0.822612
1423,189,3.31074,-0.0146024,0.279928,0.822013
1425,187,3.30979,-0.0154251,0.280383,0.821442
1427,185,3.30967,-0.0142014,0.279928,0.820943
1429,183,3.31153,-0.00843039,0.278361,0.8194
1431,181,3.31052,-0.00920319,0.278816,0.818827
1433,179,3.31023,-0.0117826,0.279273,0.818661
1435,177,3.31029,-0.0106386,0.278815,0.818355
1437,175,3.31209,-0.00582172,0.277259,0.817391
1439,173,3.31101,-0.0085217,0.278167,0.816983
1441,171,3.31083,-0.00924939,0.278167,0.816612
1443,169,3.30958,-0.00812851,0.278625,0.815719
1445,167,3.30927,-0.0088893,0.278621,0.81534
1447,165,3.31122,-0.00600142,0.277511,0.814749
1449,163,3.31023,-0.0139676,0.277972,0.814248
1451,161,3.30988,-0.0118273,0.277512,0.812875
1453,159,3.30894,-0.0162484,0.278434,0.812933
1455,157,3.30839,-0.0132692,0.277969,0.811986
1457,155,3.3115,-0.00845484,0.275952,0.811411
1459,153,3.31033,-0.00932443,0.276405,0.810808
1461,151,3.30958,-0.00821958,0.276406,0.810063
1463,149,3.30956,-0.0106909,0.276407,0.810099
1465,147,3.31104,-0.00599092,0.275304,0.809155
1467,145,3.30996,-0.0147014,0.275757,0.808544
1469,143,3.3095,-0.0082783,0.276215,0.807669
1471,141,3.30941,-0.00999388,0.276213,0.808106
1473,139,3.30856,-0.0132306,0.275752,0.806399
1475,137,3.30997,-0.0122786,0.275107,0.805997
1477,135,3.30969,-0.0129374,0.275108,0.805675
1479,133,3.30894,-0.0136804,0.275563,0.805135
1481,131,3.30833,-0.0127179,0.275561,0.804357
1483,129,3.30796,-0.0133138,0.275558,0.803999
1485,127,3.30978,-0.0104287,0.274455,0.803415
1487,125,3.30891,-0.0112341,0.27491,0.802857
1489,123,3.30901,-0.00812077,0.273989,0.802115
1491,121,3.30771,-0.010824,0.274903,0.801731
1493,119,3.30991,-0.00601292,0.273351,0.800994
1495,117,3.30969,-0.0122191,0.27291,0.800419
1497,115,3.30911,-0.014731,0.273342,0.800296
1499,113,3.30772,-0.0156912,0.274261,0.799514
1501,111,3.30824,-0.00896332,0.273799,0.799337
1503,109,3.30942,-0.0115311,0.272698,0.798399
1505,107,3.30857,-0.0123393,0.273154,0.797835
1507,105,3.30877,-0.0130076,0.272697,0.79767
1509,103,3.30858,-0.00994704,0.272243,0.796752
1511,101,3.3073,-0.0127064,0.27316,0.796373
1513,99,3.30855,-0.00983945,0.272521,0.795609
1515,97,3.30827,-0.0105068,0.272518,0.795267
1517,95,3.30845,-0.00744944,0.271598,0.7945
1519,93,3.30717,-0.0107708,0.272507,0.793814
1521,91,3.3067,-0.0170669,0.272045,0.793221
1523,89,3.30812,-0.014215,0.271405,0.792454
1525,87,3.30762,-0.0149987,0.271404,0.79208
1527,85,3.30694,-0.0138698,0.271402,0.791322
1529,83,3.30653,-0.0146303,0.271402,0.790948
1531,81,3.3089,-0.00973696,0.270255,0.790181
1533,79,3.3088,-0.00861221,0.269394,0.789607
1535,77,3.30708,-0.00949532,0.270301,0.788845
1537,75,3.30708,-0.011985,0.270299,0.788918
1539,73,3.30677,-0.00900147,0.269842,0.787947
1541,71,3.30769,-0.0142241,0.269203,0.786855
1543,69,3.30774,-0.0131859,0.268747,0.786222
1545,67,3.3074,-0.0138024,0.268746,0.785908
1547,65,3.30702,-0.0127003,0.26829,0.785312
1549,63,3.30642,-0.0116393,0.268322,0.784514
1551,61,3.30784,-0.0124223,0.268102,0.784413
1553,59,3.30754,-0.009411,0.267647,0.783431
1555,57,3.30617,-0.0121892,0.268558,0.783065
1557,55,3.30613,-0.0109228,0.268651,0.782535
1559,53,3.30616,-0.0098784,0.267644,0.781898
1561,51,3.3069,-0.0142777,0.267005,0.781226
1563,49,3.30657,-0.0151026,0.267002,0.780826
1565,47,3.30643,-0.0157271,0.267001,0.780516
1567,45,3.30566,-0.0146691,0.266999,0.779728
1569,43,3.30513,-0.0154143,0.266999,0.779356
1571,41,3.30682,-0.0144336,0.266357,0.778962
1573,39,3.30631,-0.011347,0.265904,0.778017
1575,37,3.30612,-0.0101129,0.265452,0.777466
1577,35,3.30553,-0.0128376,0.265901,0.777283
1579,33,3.30757,-0.00610721,0.26436,0.774574
1581,31,3.30695,-0.00680685,0.264359,0.775752
1583,29,3.30599,-0.0076792,0.264808,0.775162
1585,27,3.3058,-0.00842774,0.264807,0.774797
1587,25,3.30495,-0.0165864,0.264806,0.774479
1589,23,3.30651,-0.0117862,0.263717,0.773484
1591,21,3.30617,-0.0125908,0.263716,0.773099
1593,19,3.30607,-0.0113086,0.263265,0.77283
1595,17,3.30513,-0.0121832,0.263714,0.771988
1597,15,3.3046,-0.0129149,0.263714,0.771422
1599,13,3.30446,-0.011717,0.263264,0.771056
1601,11,3.30639,-0.00876148,0.262176,0.770486
1603,9,3.30543,-0.00752835,0.262176,0.769773
1605,7,3.30492,-0.00828091,0.262719,0.769406
1607,5,3.30401,-0.00907826,0.262624,0.768871
1609,3,3.30315,-0.0174138,0.26262,0.76847