File: hust_correlation_analysis/matrices/HUST_2-7_cycle_feature_matrix.csv
cycle_number,rul,voltage,current,capacity,charge_capacity
1,2204,3.32808,0.02704,0.262263,1.02424
4,2201,3.30714,-0.0198304,0.282054,0.993285
7,2198,3.30881,-0.0201967,0.280975,0.999267
10,2195,3.3108,-0.020057,0.27979,1.00276
13,2192,3.31269,-0.0199518,0.278634,1.00621
16,2189,3.31529,-0.0162451,0.276483,1.00918
19,2186,3.31458,-0.0190084,0.277085,1.0103
22,2183,3.31622,-0.0166488,0.275393,1.0124
25,2180,3.3158,-0.0193987,0.275999,1.01351
28,2177,3.31654,-0.0179717,0.275169,1.0147
31,2174,3.31674,-0.0186197,0.274327,1.01487
34,2171,3.31692,-0.0184194,0.273895,1.01515
37,2168,3.31743,-0.0185105,0.273584,1.01537
40,2165,3.31786,-0.0177774,0.273063,1.01593
43,2162,3.31797,-0.0184509,0.272644,1.01585
46,2159,3.31799,-0.0184403,0.272745,1.01585
49,2156,3.31825,-0.0182772,0.272227,1.01613
52,2153,3.31859,-0.0183925,0.272548,1.01607
55,2150,3.32032,-0.0150968,0.270794,1.0158
58,2147,3.32022,-0.0154094,0.270382,1.01588
61,2144,3.32043,-0.0163286,0.270384,1.01545
64,2141,3.32078,-0.0162971,0.269973,1.01594
67,2138,3.32122,-0.0169606,0.269971,1.01537
70,2135,3.32063,-0.0185856,0.270367,1.01559
73,2132,3.32084,-0.018662,0.269948,1.01576
76,2129,3.32034,-0.0192419,0.270354,1.01525
79,2126,3.32068,-0.0200023,0.270367,1.01492
82,2123,3.32235,-0.0168035,0.268948,1.01487
85,2120,3.32248,-0.0156502,0.268546,1.01417
88,2117,3.32224,-0.0164171,0.268546,1.01381
91,2114,3.32153,-0.0180132,0.269345,1.0138
94,2111,3.32175,-0.0187141,0.26934,1.01345
97,2108,3.32175,-0.0186862,0.269331,1.01344
100,2105,3.32124,-0.0186208,0.269323,1.01345
103,2102,3.32094,-0.0194303,0.269328,1.01307
106,2099,3.32055,-0.0200803,0.26975,1.01258
109,2096,3.32284,-0.015821,0.267925,1.01177
112,2093,3.32263,-0.0157287,0.267924,1.0118
115,2090,3.32218,-0.0163877,0.267921,1.01148
118,2087,3.32205,-0.0164873,0.267917,1.01142
121,2084,3.32135,-0.0187399,0.268717,1.01109
124,2081,3.32176,-0.0187801,0.268315,1.01132
127,2078,3.32082,-0.0194419,0.269113,1.0105
130,2075,3.32087,-0.0195435,0.268722,1.01073
133,2072,3.3205,-0.0184688,0.268729,1.01
136,2069,3.32203,-0.01581,0.268271,1.00917
139,2066,3.32197,-0.01592,0.267704,1.00912
142,2063,3.32124,-0.01654,0.268109,1.00858
145,2060,3.32142,-0.016602,0.267699,1.00878
148,2057,3.32078,-0.0188248,0.268505,1.00848
151,2054,3.32075,-0.0189874,0.26851,1.00842
154,2051,3.32034,-0.0196361,0.268918,1.00786
157,2048,3.32015,-0.0179892,0.268514,1.00764
160,2045,3.31964,-0.018637,0.268931,1.00712
163,2042,3.32188,-0.0159336,0.267504,1.00657
166,2039,3.32179,-0.0159706,0.267503,1.00654
169,2036,3.32122,-0.0166597,0.26791,1.00598
172,2033,3.32101,-0.016742,0.267909,1.00585
175,2030,3.32066,-0.0172661,0.268317,1.00544
178,2027,3.32115,-0.0173521,0.267912,1.00567
181,2024,3.32038,-0.0180986,0.268733,1.00484
184,2021,3.31999,-0.0182376,0.268741,1.0048
187,2018,3.31965,-0.0187424,0.269153,1.00431
190,2015,3.31993,-0.0188851,0.269156,1.00426
193,2012,3.32137,-0.0161313,0.268124,1.00344
196,2009,3.32115,-0.0162353,0.268389,1.00339
199,2006,3.32093,-0.0161215,0.268123,1.00343
202,2003,3.32115,-0.0169075,0.268123,1.00306
205,2000,3.32043,-0.0168203,0.268535,1.00285
208,1997,3.32039,-0.0176569,0.268532,1.00246
211,1994,3.31961,-0.0175774,0.26895,1.00225
214,1991,3.32031,-0.0182013,0.268535,1.00221
217,1988,3.3196,-0.0181373,0.268922,1.00189
220,1985,3.31958,-0.0181332,0.268527,1.00221
223,1982,3.31912,-0.0188076,0.26894,1.00165
226,1979,3.32126,-0.0156252,0.267495,1.00129
229,1976,3.32065,-0.0162236,0.267909,1.00075
232,1973,3.32033,-0.0163511,0.26817,1.00069
235,1970,3.31991,-0.0169273,0.268322,1.00017
238,1967,3.32042,-0.0169258,0.26791,1.00042
241,1964,3.31941,-0.0176816,0.268744,0.999588
244,1961,3.31948,-0.0176866,0.268327,0.999832
247,1958,3.31953,-0.0175293,0.268583,0.999883
250,1955,3.31915,-0.0182818,0.268734,0.999274
253,1952,3.31869,-0.0182238,0.269289,0.999239
256,1949,3.31855,-0.018302,0.268707,0.999172
259,1946,3.31849,-0.0199472,0.269101,0.999358
262,1943,3.31862,-0.0205568,0.269828,0.997395
265,1940,3.31771,-0.0207579,0.269513,0.998706
268,1937,3.31683,-0.0205852,0.270427,0.99818
271,1934,3.31833,-0.0174475,0.268888,0.997798
274,1931,3.31856,-0.0180143,0.268889,0.997571
277,1928,3.31847,-0.0188459,0.268888,0.997188
280,1925,3.31836,-0.0186283,0.268886,0.997277
283,1922,3.31871,-0.0193733,0.268885,0.996937
286,1919,3.31834,-0.019393,0.268881,0.996921
289,1916,3.3183,-0.0192916,0.268882,0.996968
292,1913,3.3184,-0.0202181,0.268896,0.996602
295,1910,3.31774,-0.0208713,0.269321,0.99607
298,1907,3.31792,-0.0208333,0.268901,0.996342
301,1904,3.31952,-0.0173951,0.267862,0.995798
304,1901,3.31978,-0.0181744,0.267858,0.995424
307,1898,3.31957,-0.0181521,0.267851,0.995418
310,1895,3.31903,-0.0188341,0.268271,0.994852
313,1892,3.31945,-0.0187745,0.267847,0.995115
316,1889,3.31888,-0.0188913,0.268276,0.994836
319,1886,3.31861,-0.0196241,0.268288,0.99455
322,1883,3.31846,-0.0201938,0.26871,0.994041
325,1880,3.31849,-0.0202468,0.26871,0.994019
328,1877,3.31852,-0.0201864,0.268282,0.994276
331,1874,3.31761,-0.0209573,0.269123,0.993407
334,1871,3.31812,-0.0209588,0.268696,0.993638
337,1868,3.31722,-0.0209364,0.269113,0.99338
340,1865,3.31945,-0.0182189,0.267971,0.992753
343,1862,3.31925,-0.0182142,0.26766,0.991361
346,1859,3.31893,-0.0188849,0.268086,0.992255
349,1856,3.318525,-0.01917,0.268093,0.992152
352,1853,3.31834,-0.0188563,0.268092,0.992532
355,1850,3.31875,-0.0196071,0.268087,0.991929
358,1847,3.31815,-0.0196428,0.268086,0.991924
361,1844,3.31776,-0.0203259,0.268508,0.991349
364,1841,3.31817,-0.0203307,0.268082,0.99159
367,1838,3.3175,-0.0203483,0.269083,0.991321
370,1835,3.31741,-0.0210692,0.26851,0.990793
373,1832,3.31756,-0.0211885,0.268534,0.991035
376,1829,3.31871,-0.0166892,0.267597,0.989728
379,1826,3.31884,-0.0166424,0.267073,0.98999
382,1823,3.31873,-0.0165497,0.267065,0.990261
385,1820,3.31837,-0.0190933,0.267908,0.989597
388,1817,3.31788,-0.0191676,0.2679,0.989534
391,1814,3.31792,-0.0189935,0.267895,0.9896
394,1811,3.31755,-0.0198364,0.26832,0.988966
397,1808,3.31746,-0.0198261,0.267903,0.98924
400,1805,3.31689,-0.0188843,0.268348,0.98822
403,1802,3.31753,-0.0188226,0.268248,0.988519
406,1799,3.3172,-0.0188064,0.267928,0.988535
409,1796,3.31665,-0.0194848,0.268356,0.987973
412,1793,3.3168,-0.0196006,0.268354,0.987915
415,1790,3.31849,-0.0159951,0.266878,0.987655
418,1787,3.31791,-0.0167255,0.267302,0.987069
421,1784,3.31843,-0.0167518,0.266874,0.987308
424,1781,3.31733,-0.0175222,0.267731,0.986459
427,1778,3.31731,-0.0175486,0.267743,0.986493
430,1775,3.31739,-0.0176432,0.267751,0.986486
433,1772,3.31684,-0.0182448,0.26818,0.985962
436,1769,3.31646,-0.0182554,0.268181,0.985958
439,1766,3.31713,-0.0181922,0.267748,0.986231
442,1763,3.31604,-0.0189985,0.268593,0.985099
445,1760,3.3163,-0.0189566,0.268161,0.985558
448,1757,3.3162,-0.0188496,0.268157,0.985606
451,1754,3.31581,-0.019635,0.268589,0.984995
454,1751,3.31543,-0.0198055,0.26861,0.985003
457,1748,3.31797,-0.0167718,0.267401,0.984511
460,1745,3.31733,-0.0169279,0.267571,0.9842
463,1742,3.3172,-0.0171093,0.267577,0.984136
466,1739,3.31727,-0.0175785,0.267577,0.983934
469,1736,3.31666,-0.0176807,0.268101,0.983603
472,1733,3.31654,-0.0178112,0.268001,0.983541
475,1730,3.31673,-0.0183693,0.267998,0.983297
478,1727,3.31644,-0.0183312,0.267991,0.983281
481,1724,3.31636,-0.0185735,0.268007,0.983222
484,1721,3.31652,-0.0190328,0.268007,0.983032
487,1718,3.31596,-0.0191512,0.268452,0.982751
490,1715,3.31585,-0.0192147,0.268441,0.982703
493,1712,3.3159,-0.0197876,0.268429,0.982395
496,1709,3.31507,-0.0199442,0.268861,0.982057
499,1706,3.31519,-0.0198601,0.268418,0.982318
502,1703,3.31736,-0.0162211,0.26693,0.982051
505,1700,3.31679,-0.016988,0.267364,0.98145
508,1697,3.31662,-0.0171529,0.267366,0.981177
511,1694,3.3169,-0.0178004,0.267372,0.98113
514,1691,3.31606,-0.0178155,0.267805,0.980851
517,1688,3.31626,-0.0177751,0.267372,0.981132
520,1685,3.31633,-0.0177488,0.267361,0.981118
523,1682,3.31572,-0.0184648,0.267794,0.980535
526,1679,3.31548,-0.0185007,0.267791,0.980504
529,1676,3.31581,-0.0192284,0.267789,0.980183
532,1673,3.31486,-0.019209,0.268222,0.98017
535,1670,3.31532,-0.019137,0.267785,0.980209
538,1667,3.31511,-0.0200576,0.268232,0.979586
541,1664,3.31486,-0.0200179,0.268827,0.979636
544,1661,3.3166,-0.0171564,0.267192,0.978789
547,1658,3.31679,-0.0172181,0.26719,0.97875
550,1655,3.31615,-0.0171563,0.267182,0.978743
553,1652,3.31604,-0.0171469,0.26718,0.978733
556,1649,3.31628,-0.0179312,0.267174,0.978371
559,1646,3.31581,-0.0178263,0.267169,0.978408
562,1643,3.31503,-0.0178589,0.267607,0.978135
565,1640,3.3156,-0.0186802,0.267624,0.977842
568,1637,3.31503,-0.018733,0.267629,0.977843
571,1634,3.31488,-0.0197301,0.268072,0.977406
574,1631,3.31494,-0.0194819,0.268077,0.977279
577,1628,3.31489,-0.0193964,0.267623,0.977537
580,1625,3.31435,-0.0193406,0.268057,0.977276
583,1622,3.31456,-0.019928,0.268045,0.976978
586,1619,3.31415,-0.0201763,0.268043,0.976854
589,1616,3.31412,-0.0200151,0.268039,0.97693
592,1613,3.31578,-0.0172599,0.266988,0.975998
595,1610,3.3154,-0.0173921,0.267009,0.97602
598,1607,3.31629,-0.0172039,0.266575,0.976389
601,1604,3.31521,-0.0180737,0.267461,0.975519
604,1601,3.31533,-0.0179038,0.267012,0.975814
607,1598,3.31564,-0.0180335,0.267591,0.975753
610,1595,3.31495,-0.0186711,0.26744,0.974965
613,1592,3.31483,-0.0187236,0.26744,0.975157
616,1589,3.31557,-0.0187552,0.266999,0.975401
619,1586,3.31461,-0.0194326,0.267438,0.9751
622,1583,3.314,-0.0195464,0.2679,0.974616
625,1580,3.31438,-0.0202521,0.267906,0.974344
628,1577,3.31407,-0.0202956,0.267914,0.97435
631,1574,3.31556,-0.0166737,0.266858,0.973789
634,1571,3.31616,-0.0173225,0.26686,0.973519
637,1568,3.31568,-0.0174978,0.266858,0.973425
640,1565,3.31591,-0.0173507,0.266858,0.973488
643,1562,3.31534,-0.0181011,0.267298,0.972892
646,1559,3.31498,-0.0182672,0.267302,0.972836
649,1556,3.31536,-0.018879,0.267303,0.972591
652,1553,3.31444,-0.0188487,0.267751,0.972349
655,1550,3.31426,-0.0189627,0.267754,0.972319
658,1547,3.31463,-0.0198142,0.26776,0.971968
661,1544,3.31404,-0.0194389,0.268349,0.972141
664,1541,3.314,-0.0196321,0.26776,0.972055
667,1538,3.31358,-0.0205091,0.268209,0.971202
670,1535,3.31356,-0.0204246,0.267761,0.971722
673,1532,3.3146,-0.0174727,0.267145,0.970592
676,1529,3.31524,-0.0175134,0.266693,0.970812
679,1526,3.31495,-0.0176448,0.266703,0.970792
682,1523,3.31497,-0.0174351,0.266701,0.970863
685,1520,3.31436,-0.0182845,0.267145,0.970234
688,1517,3.31413,-0.0183185,0.267141,0.970212
691,1514,3.3146,-0.0182286,0.266693,0.97051
694,1511,3.31402,-0.0189599,0.267137,0.969928
697,1508,3.314,-0.0190076,0.267133,0.9699
700,1505,3.31434,-0.0191481,0.267132,0.969834
703,1502,3.3139,-0.0197133,0.267129,0.969581
706,1499,3.31322,-0.0198148,0.267576,0.969279
709,1496,3.3135,-0.0198312,0.267574,0.96927
712,1493,3.31319,-0.0206448,0.267578,0.968939
715,1490,3.31314,-0.0203791,0.267576,0.969031
718,1487,3.31522,-0.0176114,0.267102,0.968086
721,1484,3.31468,-0.0177426,0.266513,0.968027
724,1481,3.31513,-0.0175639,0.266329,0.968362
727,1478,3.31433,-0.0183267,0.266508,0.967753
730,1475,3.31419,-0.018389,0.266507,0.967736
733,1472,3.31478,-0.0183575,0.266057,0.967997
736,1469,3.31369,-0.0192142,0.266953,0.967105
739,1466,3.31321,-0.0191799,0.266957,0.967127
742,1463,3.31377,-0.0199375,0.266959,0.966826
745,1460,3.313,-0.0199238,0.266958,0.966837
748,1457,3.3131,-0.0198256,0.26696,0.966881
751,1454,3.31279,-0.0206584,0.267406,0.966265
754,1451,3.31246,-0.0207941,0.267406,0.966199
757,1448,3.31334,-0.0203801,0.266955,0.966638
760,1445,3.31434,-0.0177135,0.26634,0.965373
763,1442,3.31412,-0.0177513,0.266341,0.965353
766,1439,3.31447,-0.0179169,0.266347,0.965312
769,1436,3.31417,-0.0184767,0.266355,0.965101
772,1433,3.31394,-0.0184591,0.266357,0.965111
775,1430,3.31383,-0.0194134,0.266809,0.964454
778,1427,3.31311,-0.0193897,0.266806,0.964453
781,1424,3.31274,-0.0191898,0.266805,0.96453
784,1421,3.31236,-0.0200954,0.267255,0.963879
787,1418,3.31274,-0.0201468,0.266804,0.964126
790,1415,3.31329,-0.0199415,0.26635,0.964473
793,1412,3.31257,-0.0207555,0.266785,0.963823
796,1409,3.31229,-0.0207475,0.266784,0.963801
799,1406,3.31252,-0.0208403,0.266783,0.963774
802,1403,3.3141,-0.0177608,0.265712,0.962916
805,1400,3.31408,-0.0178436,0.265725,0.962924
808,1397,3.31429,-0.0185923,0.265724,0.962608
811,1394,3.31366,-0.0186276,0.266002,0.962582
814,1391,3.3129,-0.0186178,0.266169,0.962315
817,1388,3.31319,-0.0193903,0.266168,0.961973
820,1385,3.31282,-0.0194989,0.266168,0.961936
823,1382,3.31316,-0.019164,0.265711,0.962312
826,1379,3.31232,-0.0202291,0.266627,0.961384
829,1376,3.31259,-0.0201458,0.266167,0.961662
832,1373,3.31309,-0.020818,0.266485,0.961393
835,1370,3.31215,-0.0208875,0.266635,0.96114
838,1367,3.31394,-0.0179818,0.265559,0.960199
841,1364,3.31418,-0.0180177,0.265103,0.959064
844,1361,3.31314,-0.018017,0.265551,0.96016
847,1358,3.31272,-0.0187869,0.266005,0.959565
850,1355,3.31344,-0.0187459,0.26555,0.95985
853,1352,3.31291,-0.018825,0.265546,0.959803
856,1349,3.31251,-0.0194586,0.265998,0.959254
859,1346,3.31266,-0.0195543,0.265996,0.959212
862,1343,3.31308,-0.0194963,0.266134,0.959501
865,1340,3.31307,-0.0200904,0.26564,0.959272
868,1337,3.31206,-0.0202827,0.265996,0.958906
871,1334,3.31137,-0.0211653,0.266438,0.958229
874,1331,3.31187,-0.0210138,0.26598,0.958555
877,1328,3.31157,-0.0209146,0.265975,0.958573
880,1325,3.31382,-0.0179733,0.26445,0.957933
883,1322,3.31409,-0.0180769,0.264455,0.957923
886,1319,3.31348,-0.0187194,0.264918,0.957412
889,1316,3.31299,-0.0196109,0.265392,0.956836
892,1313,3.31301,-0.0196048,0.264874,0.956812
895,1310,3.31218,-0.0196963,0.265372,0.956727
898,1307,3.31204,-0.0194925,0.265364,0.956783
901,1304,3.31227,-0.0202913,0.265362,0.956456
904,1301,3.31226,-0.0204582,0.26536,0.956378
907,1298,3.31223,-0.0202566,0.265355,0.956437
910,1295,3.31161,-0.0210993,0.265819,0.955838
913,1292,3.3137,-0.0183062,0.264299,0.955163
916,1289,3.31387,-0.0182066,0.264305,0.955236
919,1286,3.31284,-0.0189453,0.264765,0.954675
922,1283,3.31266,-0.0190057,0.264762,0.954428
925,1280,3.31353,-0.0189017,0.264303,0.954956
928,1277,3.31245,-0.0197318,0.265219,0.954065
931,1274,3.31207,-0.0197365,0.265216,0.954043
934,1271,3.31219,-0.0206242,0.265212,0.953668
937,1268,3.3116,-0.0205461,0.265207,0.953685
940,1265,3.31144,-0.0205012,0.265456,0.953714
943,1262,3.31185,-0.0212893,0.265218,0.953424
946,1259,3.31096,-0.0214187,0.265679,0.953112
949,1256,3.31301,-0.0182996,0.264606,0.952262
952,1253,3.31333,-0.0182286,0.264143,0.953823
955,1250,3.31247,-0.0192535,0.264605,0.951864
958,1247,3.31209,-0.019048,0.2646,0.951936
961,1244,3.31244,-0.0197952,0.264598,0.951624
964,1241,3.31217,-0.0199009,0.264598,0.951568
967,1238,3.31209,-0.0198094,0.264692,0.95161
970,1235,3.3113,-0.0207125,0.264995,0.950969
973,1232,3.31101,-0.0207871,0.265059,0.950935
976,1229,3.31119,-0.0214446,0.265058,0.950669
979,1226,3.31104,-0.0213785,0.265067,0.950723
982,1223,3.31327,-0.0176018,0.263518,0.950372
985,1220,3.31281,-0.0184884,0.263985,0.949756
988,1217,3.31203,-0.018373,0.263977,0.949779
991,1214,3.31152,-0.0192861,0.264437,0.949117
994,1211,3.31222,-0.0193122,0.263973,0.949378
997,1208,3.31196,-0.0191548,0.263965,0.949422
1000,1205,3.31177,-0.01987,0.263956,0.949094
1003,1202,3.31166,-0.0200274,0.263957,0.949043
1006,1199,3.31069,-0.0207759,0.264426,0.948477
1009,1196,3.31063,-0.0207415,0.264429,0.9485
1012,1193,3.31114,-0.0216055,0.264433,0.948156
1015,1190,3.31301,-0.0176775,0.262889,0.947903
1018,1187,3.31207,-0.01845,0.263437,0.947276
1021,1184,3.31225,-0.0185562,0.263344,0.947232
1024,1181,3.31215,-0.0193207,0.263341,0.946917
1027,1178,3.31156,-0.0192985,0.263801,0.946639
1030,1175,3.31168,-0.0201445,0.263803,0.946306
1033,1172,3.31089,-0.0202369,0.263813,0.946295
1036,1169,3.3106,-0.0209517,0.264293,0.945784
1039,1166,3.31138,-0.0208206,0.263834,0.94614
1042,1163,3.31055,-0.0217735,0.264283,0.945428
1045,1160,3.30942,-0.021723,0.265351,0.945174
1048,1157,3.312,-0.0186992,0.263195,0.944503
1051,1154,3.3124,-0.0186129,0.262728,0.944806
1054,1151,3.31149,-0.0186339,0.263501,0.944514
1057,1148,3.31159,-0.0194745,0.263185,0.944149
1060,1145,3.31159,-0.0194379,0.26272,0.944443
1063,1142,3.31137,-0.0193683,0.263179,0.944171
1066,1139,3.31159,-0.0202571,0.263284,0.943859
1069,1136,3.3105,-0.021077,0.26366,0.943267
1072,1133,3.31038,-0.0209627,0.263658,0.943307
1075,1130,3.31084,-0.0217764,0.263657,0.942977
1078,1127,3.31,-0.0218252,0.263653,0.94294
1081,1124,3.3112,-0.0189375,0.263035,0.941666
1084,1121,3.31189,-0.018814,0.262567,0.941992
1087,1118,3.31159,-0.0194763,0.262556,0.941699
1090,1115,3.31075,-0.0195717,0.263023,0.941386
1093,1112,3.31138,-0.019515,0.262548,0.941661
1096,1109,3.31076,-0.0203696,0.263023,0.941066
1099,1106,3.31019,-0.021205,0.26359,0.940467
1102,1103,3.3098,-0.0213131,0.26349,0.940399
1105,1100,3.30983,-0.021783,0.263504,0.940267
1108,1097,3.30952,-0.0219271,0.263505,0.940207
1111,1094,3.31175,-0.0181196,0.261945,0.939683
1114,1091,3.31171,-0.0187643,0.261943,0.939592
1117,1088,3.31104,-0.0197686,0.262414,0.938907
1120,1085,3.31082,-0.0196723,0.262724,0.938956
1123,1082,3.3109,-0.0204002,0.262694,0.937195
1126,1079,3.31005,-0.0206571,0.262903,0.938347
1129,1076,3.30956,-0.0213816,0.263376,0.937778
1132,1073,3.30992,-0.0213431,0.262906,0.938076
1135,1070,3.3099,-0.0220278,0.2629,0.93779
1138,1067,3.3087,-0.0221176,0.263367,0.937451
1141,1064,3.31166,-0.0190758,0.261799,0.936774
1144,1061,3.31096,-0.0189002,0.26179,0.936814
1147,1058,3.31026,-0.0199256,0.262261,0.936122
1150,1055,3.31115,-0.019731,0.261786,0.936472
1153,1052,3.31013,-0.0205824,0.262264,0.93587
1156,1049,3.31006,-0.0207505,0.262277,0.93586
1159,1046,3.30951,-0.0214041,0.262753,0.935323
1162,1043,3.30938,-0.0223294,0.263063,0.934954
1165,1040,3.30901,-0.0222695,0.262751,0.934978
1168,1037,3.31066,-0.0190908,0.261645,0.934032
1171,1034,3.3112,-0.0191559,0.261163,0.934271
1174,1031,3.31023,-0.0191101,0.261634,0.933986
1177,1028,3.31005,-0.0200738,0.261633,0.933597
1180,1025,3.31012,-0.0199193,0.261626,0.933637
1183,1022,3.30986,-0.0205815,0.261619,0.933347
1186,1019,3.30972,-0.020748,0.261621,0.933296
1189,1016,3.30894,-0.0215922,0.262103,0.932702
1192,1013,3.30906,-0.022417,0.262105,0.932386
1195,1010,3.30898,-0.022333,0.262102,0.932403
1198,1007,3.31024,-0.0194088,0.260999,0.931376
1201,1004,3.3104,-0.0191215,0.260992,0.931469
1204,1001,3.31017,-0.0199769,0.261077,0.931113
1207,998,3.30997,-0.0199532,0.260986,0.931122
1210,995,3.30903,-0.0209413,0.261461,0.930444
1213,992,3.30974,-0.0207076,0.260981,0.930802
1216,989,3.30893,-0.0216953,0.261459,0.930139
1219,986,3.30893,-0.021701,0.261466,0.930169
1222,983,3.30781,-0.0226397,0.262267,0.929548
1225,980,3.31075,-0.01927,0.260378,0.928998
1228,977,3.31021,-0.0192821,0.260375,0.928793
1231,974,3.31009,-0.0200985,0.260361,0.928619
1234,971,3.30924,-0.0201753,0.26084,0.928293
1237,968,3.30926,-0.0209744,0.26084,0.927997
1240,965,3.30867,-0.0219035,0.261317,0.927331
1243,962,3.30878,-0.0217122,0.260836,0.927695
1246,959,3.30799,-0.0225795,0.261315,0.927061
1249,956,3.30836,-0.0226985,0.26132,0.92704
1252,953,3.30975,-0.0194869,0.260227,0.926135
1255,950,3.31013,-0.0195035,0.259747,0.926428
1258,947,3.30943,-0.0202191,0.260228,0.925856
1261,944,3.30936,-0.0203318,0.260224,0.925814
1264,941,3.30867,-0.0211671,0.260707,0.925198
1267,938,3.30847,-0.0218963,0.260699,0.924893
1270,935,3.30795,-0.021962,0.260698,0.924869
1273,932,3.3076,-0.0227932,0.261182,0.924258
1276,929,3.30939,-0.0197699,0.260343,0.923246
1279,926,3.30945,-0.0195738,0.259591,0.923607
1282,923,3.30872,-0.0206059,0.260082,0.922941
1285,920,3.30879,-0.0204015,0.260081,0.923017
1288,917,3.30854,-0.0213491,0.260688,0.922657
1291,914,3.30845,-0.0212307,0.260079,0.9227
1294,911,3.30733,-0.022294,0.260564,0.922012
1297,908,3.30752,-0.0228367,0.260566,0.921797
1300,905,3.30727,-0.023001,0.260567,0.92175
1303,902,3.30906,-0.0197344,0.259455,0.920809
1306,899,3.30932,-0.0197095,0.258968,0.921113
1309,896,3.30787,-0.0206691,0.259942,0.920173
1312,893,3.30872,-0.0212859,0.259454,0.920219
1315,890,3.30763,-0.0214734,0.259945,0.919883
1318,887,3.3074,-0.0222997,0.259944,0.919561
1321,884,3.30691,-0.0231597,0.260437,0.918952
1324,881,3.30643,-0.0231583,0.260432,0.91894
1327,878,3.30916,-0.0198409,0.258829,0.91854
1330,875,3.3085,-0.0198648,0.258827,0.918292
1333,872,3.30768,-0.0208506,0.259618,0.917622
1336,869,3.30805,-0.0214323,0.259314,0.917395
1339,866,3.30755,-0.0216656,0.259314,0.917307
1342,863,3.30682,-0.0224055,0.259805,0.916751
1345,860,3.3069,-0.0233246,0.259808,0.916412
1348,857,3.30796,-0.0192837,0.258697,0.915769
1351,854,3.30839,-0.0199473,0.258789,0.915543
1354,851,3.3084,-0.0209174,0.258701,0.915162
1357,848,3.30728,-0.0216784,0.259802,0.914568
1360,845,3.30779,-0.0216777,0.258697,0.91486
1363,842,3.30691,-0.022509,0.259188,0.91425
1366,839,3.30674,-0.0226356,0.259186,0.914201
1369,836,3.30611,-0.0234207,0.259679,0.913614
1372,833,3.30832,-0.020257,0.258068,0.912909
1375,830,3.30724,-0.0201993,0.25856,0.912634
1378,827,3.30769,-0.021113,0.258563,0.912301
1381,824,3.30732,-0.0218013,0.258562,0.912033
1384,821,3.30597,-0.022118,0.259058,0.911631
1387,818,3.30628,-0.0226775,0.259058,0.911418
1390,815,3.30622,-0.0236541,0.259057,0.911049
1393,812,3.30784,-0.0203023,0.257932,0.910098
1396,809,3.30727,-0.0203689,0.257931,0.910073
1399,806,3.30741,-0.021004,0.25793,0.909825
1402,803,3.3073,-0.0219881,0.258013,0.909456
1405,800,3.3062,-0.0220815,0.258426,0.909121
1408,797,3.30591,-0.0229541,0.258425,0.908807
1411,794,3.30553,-0.0237431,0.258927,0.908227
1414,791,3.30555,-0.023686,0.258412,0.908483
1417,788,3.3073,-0.0203674,0.257286,0.907511
1420,785,3.30717,-0.0212785,0.25729,0.907189
1423,782,3.30653,-0.0212995,0.258054,0.906888
1426,779,3.30613,-0.0222518,0.25778,0.90652
1429,776,3.30531,-0.0230679,0.258278,0.905901
1432,773,3.30558,-0.0230722,0.257775,0.906189
1435,770,3.30485,-0.0238706,0.258274,0.905595
1438,767,3.30721,-0.0205849,0.25664,0.904883
1441,764,3.30633,-0.0214065,0.25714,0.904278
1444,761,3.30684,-0.0214105,0.256643,0.904595
1447,758,3.30597,-0.0222004,0.25715,0.904022
1450,755,3.30616,-0.0231069,0.257153,0.903701
1453,752,3.30461,-0.0241512,0.258163,0.902738
1456,749,3.30715,-0.0198493,0.256013,0.902672
1459,746,3.30636,-0.0206154,0.256512,0.902078
1462,743,3.30668,-0.021511,0.256502,0.90171
1465,740,3.30575,-0.0224765,0.257,0.901043
1468,737,3.30549,-0.0224215,0.256491,0.90134
1471,734,3.3047,-0.0233032,0.256993,0.900702
1474,731,3.30454,-0.0241313,0.256984,0.900367
1477,728,3.3065,-0.0207661,0.255585,0.899403
1480,725,3.30623,-0.020824,0.255854,0.899395
1483,722,3.30604,-0.0215648,0.255858,0.89913
1486,719,3.30536,-0.0227066,0.256365,0.898434
1489,716,3.30432,-0.0235459,0.25687,0.897815
1492,713,3.30452,-0.0234261,0.256358,0.898144
1495,710,3.30364,-0.0243182,0.256864,0.897506
1498,707,3.30621,-0.0209062,0.255208,0.897042
1501,704,3.30557,-0.0217984,0.255714,0.896172
1504,701,3.30573,-0.0217108,0.255201,0.896487
1507,698,3.30476,-0.022723,0.255708,0.89581
1510,695,3.30443,-0.0235554,0.255706,0.895498
1513,692,3.30359,-0.0244761,0.256218,0.894871
1516,689,3.30504,-0.0212584,0.255078,0.893824
1519,686,3.30509,-0.0219583,0.255084,0.893582
1522,683,3.30506,-0.0228012,0.255086,0.893293
1525,680,3.30433,-0.023762,0.255596,0.892641
1528,677,3.30373,-0.0238725,0.255587,0.89258
1531,674,3.30633,-0.0201908,0.253928,0.89197
1534,671,3.30614,-0.021184,0.253926,0.891607
1537,668,3.30514,-0.0221158,0.254437,0.89096
1540,665,3.30397,-0.023131,0.25495,0.890287
1543,662,3.30328,-0.0240201,0.255465,0.88967
1546,659,3.30312,-0.0250368,0.255473,0.889324
1549,656,3.30476,-0.0213619,0.254327,0.888221
1552,653,3.30472,-0.0223421,0.254328,0.88808
1555,650,3.3044,-0.0224096,0.254344,0.888339
1558,647,3.30428,-0.0231436,0.254332,0.887807
1561,644,3.30318,-0.0240913,0.254845,0.887162
1564,641,3.30306,-0.0250006,0.254848,0.886834
1567,638,3.30475,-0.0215511,0.253692,0.885823
1570,635,3.30464,-0.0224095,0.25369,0.885503
1573,632,3.30351,-0.0235017,0.254501,0.884815
1576,629,3.30273,-0.0243874,0.254733,0.884196
1579,626,3.30232,-0.0254195,0.254731,0.883822
1582,623,3.30406,-0.021793,0.25358,0.882882
1585,620,3.30408,-0.0227476,0.253583,0.882549
1588,617,3.30338,-0.022578,0.253584,0.882624
1591,614,3.30298,-0.0245654,0.254114,0.881631
1594,611,3.30241,-0.0244672,0.254107,0.881659
1597,608,3.30477,-0.0208326,0.252422,0.880979
1600,605,3.30467,-0.0217937,0.25242,0.880634
1603,602,3.30369,-0.0227054,0.252943,0.880006
1606,599,3.30271,-0.0238832,0.253469,0.879287
1609,596,3.30235,-0.0246108,0.253468,0.879026
1612,593,3.30138,-0.0256925,0.253994,0.878325
1615,590,3.30363,-0.0221056,0.252302,0.877633
1618,587,3.30271,-0.0229865,0.252831,0.877027
1621,584,3.30256,-0.0240059,0.252834,0.876674
1624,581,3.30164,-0.022643,0.252853,0.876056
1627,578,3.30417,-0.0188582,0.251145,0.87539
1630,575,3.30354,-0.0288932,0.25114,0.875104
1633,572,3.30275,-0.0300021,0.251664,0.874404
1636,569,3.30255,-0.028567,0.251136,0.874044
1639,566,3.30155,-0.0295191,0.251662,0.873398
1642,563,3.30151,-0.0304995,0.251657,0.87328
1645,560,3.30348,-0.0244944,0.249957,0.872019
1648,557,3.30294,-0.027856,0.250484,0.871705
1651,554,3.30251,-0.0240028,0.249956,0.871028
1654,551,3.30162,-0.0298068,0.251019,0.870734
1657,548,3.30381,-0.0224148,0.248797,0.869368
1660,545,3.3035,-0.0207846,0.248299,0.869188
1663,542,3.30358,-0.0217034,0.248265,0.868745
1666,539,3.30209,-0.0218294,0.248297,0.868305
1669,536,3.30113,-0.0238442,0.249294,0.867303
1672,533,3.30333,-0.0260668,0.247062,0.866955
1675,530,3.30271,-0.0280857,0.247585,0.865946
1678,527,3.30203,-0.0288816,0.247578,0.865647
1681,524,3.3009,-0.0299499,0.248381,0.864963
1684,521,3.30117,-0.0260822,0.247048,0.864582
1687,518,3.30326,-0.0200107,0.245346,0.863562
1690,515,3.30246,-0.0259179,0.2464,0.863258
1693,512,3.30155,-0.0243538,0.246396,0.862625
1696,509,3.30166,-0.0227881,0.245875,0.86233
1699,506,3.30412,-0.0192092,0.24417,0.861611
1702,503,3.30242,-0.0293778,0.244953,0.861002
1705,500,3.30237,-0.0304449,0.244678,0.860637
1708,497,3.30114,-0.0315656,0.245196,0.859944
1711,494,3.30116,-0.0274789,0.244149,0.859619
1714,491,3.30386,-0.022379,0.242441,0.85824
1717,488,3.30264,-0.0283452,0.24348,0.858147
1720,485,3.30181,-0.024325,0.242957,0.857261
1723,482,3.3011,-0.0253752,0.243477,0.856588
1726,479,3.30331,-0.0217002,0.241832,0.854665
1729,476,3.30342,-0.0201112,0.241255,0.855608
1732,473,3.30232,-0.0315656,0.241778,0.854655
1735,470,3.30132,-0.023299,0.242309,0.853953
1738,467,3.30022,-0.0312525,0.242305,0.85332
1741,464,3.30295,-0.0274635,0.240581,0.85263
1744,461,3.30211,-0.0309263,0.241098,0.852302
1747,458,3.30149,-0.026989,0.240575,0.851596
1750,455,3.30101,-0.0303762,0.241095,0.851315
1753,452,3.30284,-0.0243583,0.239633,0.850235
1756,449,3.30193,-0.0261489,0.239894,0.849319
1759,446,3.30184,-0.0272822,0.239896,0.848949
1762,443,3.3016,-0.025657,0.239378,0.848651
1765,440,3.2999,-0.0292437,0.240416,0.847979
1768,437,3.30203,-0.0230546,0.238691,0.84717
1771,434,3.30222,-0.021474,0.238166,0.846606
1774,431,3.30151,-0.0249642,0.238756,0.846311
1777,428,3.30056,-0.0340072,0.23869,0.845357
1780,425,3.30333,-0.0206376,0.236956,0.844614
1783,422,3.30229,-0.0262467,0.236437,0.843951
1786,419,3.30191,-0.0272409,0.236434,0.84361
1789,416,3.30084,-0.0257152,0.236432,0.843187
1792,413,3.30378,-0.0220437,0.234707,0.842228
1795,410,3.30237,-0.031055,0.234705,0.841274
1798,407,3.30138,-0.0226668,0.235219,0.840532
1801,404,3.3006,-0.030582,0.234691,0.840218
1804,401,3.30299,-0.0292786,0.233474,0.839566
1807,398,3.30292,-0.0237621,0.232449,0.83849
1810,395,3.30119,-0.0300455,0.2346,0.837842
1813,392,3.30047,-0.0307624,0.233984,0.837594
1816,389,3.30248,-0.02722,0.233032,0.836554
1819,386,3.30199,-0.02671,0.232778,0.835558
1822,383,3.3017,-0.0250866,0.232263,0.835241
1825,380,3.30133,-0.026084,0.232871,0.834915
1828,377,3.30333,-0.0196803,0.230528,0.833902
1831,374,3.30273,-0.0313946,0.230526,0.833272
1834,371,3.30209,-0.0273796,0.230016,0.832553
1837,368,3.30089,-0.0285913,0.230522,0.831845
1840,365,3.30273,-0.0258614,0.229299,0.830491
1843,362,3.302138,-0.0266937,0.229306,0.830235
1846,359,3.30112,-0.027763,0.229815,0.82958
1849,356,3.3011,-0.0263911,0.229303,0.829178
1852,353,3.30323,-0.0210389,0.227559,0.8278
1855,350,3.30283,-0.0219275,0.227561,0.82752
1858,347,3.30108,-0.0327117,0.228061,0.826886
1861,344,3.30089,-0.0319461,0.227552,0.826499
1864,341,3.30328,-0.0233568,0.225312,0.825089
1867,338,3.30257,-0.0267512,0.225811,0.824841
1870,335,3.30138,-0.0278995,0.226321,0.824181
1873,332,3.30028,-0.0299866,0.22707,0.823179
1876,329,3.30286,-0.0261044,0.22505,0.822505
1879,326,3.30203,-0.0246016,0.225077,0.821827
1882,323,3.30167,-0.0337926,0.224574,0.82121
1885,320,3.30079,-0.032348,0.224573,0.820507
1888,317,3.3031,-0.0284056,0.222831,0.819843
1891,314,3.30124,-0.0332945,0.224343,0.818527
1894,311,3.30058,-0.0341367,0.22434,0.818248
1897,308,3.30001,-0.0351891,0.224341,0.81792
1900,305,3.30232,-0.028781,0.222591,0.816872
1903,302,3.30194,-0.0257386,0.222084,0.815803
1906,299,3.30139,-0.0266277,0.222082,0.81552
1909,296,3.30303,-0.0228728,0.22083,0.814457
1912,293,3.30205,-0.0248851,0.221334,0.813513
1915,290,3.30153,-0.0259111,0.22133,0.813179
1918,287,3.30144,-0.0242849,0.220831,0.812863
1921,284,3.30293,-0.0314363,0.21957,0.811525
1924,281,3.3016,-0.0298565,0.219558,0.810808
1927,278,3.30183,-0.0257366,0.218545,0.810351
1930,275,3.30093,-0.0253622,0.218554,0.809138
1933,272,3.30343,-0.0213067,0.217038,0.808668
1936,269,3.30225,-0.0234121,0.217293,0.8077
1939,266,3.30137,-0.0343921,0.217292,0.807423
1942,263,3.30353,-0.0279559,0.215535,0.806337
1945,260,3.30269,-0.0273828,0.215529,0.805337
1948,257,3.30246,-0.0258342,0.215624,0.804955
1951,254,3.30132,-0.0278315,0.215516,0.803999
1954,251,3.30296,-0.0240147,0.214245,0.802927
1957,248,3.30247,-0.0249723,0.214237,0.802601
1960,245,3.30241,-0.0233706,0.213745,0.802258
1963,242,3.30115,-0.0329263,0.213799,0.801298
1966,239,3.303,-0.0291402,0.212484,0.800247
1969,236,3.30204,-0.0313233,0.212547,0.79928
1972,233,3.3015,-0.0323074,0.212976,0.798983
1975,230,3.30388,-0.0281777,0.211206,0.798324
1978,227,3.30356,-0.0251126,0.21093,0.797222
1981,224,3.30255,-0.0235495,0.210711,0.796533
1984,221,3.30136,-0.0347336,0.210708,0.796221
1987,218,3.30395,-0.0217105,0.209428,0.794841
1990,215,3.30341,-0.0226513,0.20942,0.794538
1993,212,3.30214,-0.0247809,0.209904,0.793566
1996,209,3.30373,-0.0310849,0.208622,0.792573
1999,206,3.30347,-0.0253293,0.207656,0.791445
2002,203,3.30255,-0.0288536,0.208139,0.791232
2005,200,3.30138,-0.0301557,0.209165,0.790532
2008,197,3.30329,-0.0271791,0.207334,0.789204
2011,194,3.3028,-0.0281687,0.207331,0.788906
2014,191,3.3024,-0.0250242,0.206845,0.787833
2017,188,3.3017,-0.0259645,0.206841,0.787539
2020,185,3.30355,-0.0295339,0.205064,0.786504
2023,182,3.30193,-0.034514,0.206028,0.785547
2026,179,3.30129,-0.0355818,0.206027,0.785236
2029,176,3.30358,-0.0299244,0.204445,0.783839
2032,173,3.30329,-0.0309621,0.204242,0.783539
2035,170,3.30244,-0.0304266,0.204444,0.782529
2038,167,3.30439,-0.0237415,0.202457,0.781448
2041,164,3.30396,-0.0335143,0.201981,0.780821
2044,161,3.30254,-0.0346595,0.20246,0.780183
2047,158,3.30204,-0.0356696,0.202462,0.779893
2050,155,3.30412,-0.0327526,0.201376,0.778534
2053,152,3.30326,-0.0234979,0.201627,0.77783
2056,149,3.30273,-0.0331707,0.201146,0.777234
2059,146,3.30494,-0.0264929,0.199347,0.776113
2062,143,3.3047,-0.0247806,0.198869,0.775752
2065,140,3.30368,-0.0242913,0.198863,0.7747
2068,137,3.30216,-0.0254592,0.199336,0.774035
2071,134,3.30439,-0.0326389,0.197541,0.773122
2074,131,3.30312,-0.0340161,0.198014,0.772415
2077,128,3.3019,-0.0362351,0.198487,0.771446
2080,125,3.30398,-0.0306071,0.196692,0.77003
2083,122,3.30381,-0.0315341,0.196692,0.76977
2086,119,3.3033,-0.0325781,0.19669,0.769473
2089,116,3.30199,-0.0348097,0.197164,0.768516
2092,113,3.30522,-0.0251339,0.19442,0.767731
2095,110,3.30461,-0.0246191,0.194415,0.766704
2098,107,3.30385,-0.0255945,0.194412,0.766421
2101,104,3.30524,-0.033166,0.193078,0.765098
2104,101,3.30517,-0.0314205,0.192609,0.764751
2107,98,3.30376,-0.0336901,0.193075,0.763777
2110,95,3.30665,-0.0267326,0.190803,0.76303
2113,92,3.30578,-0.0261536,0.190802,0.762022
2116,89,3.30444,-0.027441,0.191263,0.76133
2119,86,3.30693,-0.0294754,0.188752,0.760226
2122,83,3.30592,-0.0288497,0.188528,0.759197
2125,80,3.30476,-0.0310714,0.188986,0.758254
2128,77,3.30736,-0.0242362,0.18673,0.757474
2131,74,3.3063,-0.0342762,0.186724,0.756493
2134,71,3.30589,-0.0246501,0.18672,0.756172
2137,68,3.30726,-0.0323235,0.185926,0.754834
2140,65,3.30654,-0.0317793,0.185364,0.753814
2143,62,3.30622,-0.0300946,0.184909,0.753436
2146,59,3.30472,-0.0323404,0.185359,0.752484
2149,56,3.30813,-0.0235861,0.182656,0.751365
2152,53,3.3068,-0.0248694,0.1831,0.750684
2155,50,3.30926,-0.0215639,0.181295,0.74974
2158,47,3.30816,-0.0318095,0.181127,0.748726
2161,44,3.30669,-0.0340867,0.181736,0.747772
2164,41,3.30955,-0.0270726,0.179487,0.74702
2167,38,3.30869,-0.0265752,0.179486,0.745992
2170,35,3.30799,-0.0286301,0.179486,0.745426
2173,32,3.30984,-0.0335613,0.177676,0.744034
2176,29,3.30942,-0.0346857,0.177673,0.743725
2179,26,3.30776,-0.0370422,0.178107,0.742752
2182,23,3.31114,-0.0280985,0.175429,0.741663
2185,20,3.31017,-0.027661,0.175427,0.739294
2188,17,3.30923,-0.0288804,0.17542,0.740264
2191,14,3.31222,-0.0226587,0.173189,0.73928
2194,11,3.3109,-0.0250335,0.173612,0.738305
2197,8,3.31378,-0.0269705,0.170961,0.737208
2200,5,3.31237,-0.0293316,0.171382,0.736248
2202,3,3.31216,-0.0276714,0.17096,0.735856