File: hust_correlation_analysis/matrices/HUST_4-2_cycle_feature_matrix.csv
cycle_number,rul,voltage,current,capacity,charge_capacity
1,1784,3.30092,0.0240521,0.358702,1.06977
3,1782,3.28477,-0.00664588,0.375531,1.04317
5,1780,3.28736,-0.0065813,0.374216,1.04376
7,1778,3.28888,-0.00645874,0.372526,1.04676
9,1776,3.28996,-0.0060165,0.371317,1.04989
11,1774,3.2914,-0.00591811,0.370114,1.05277
13,1772,3.29289,-0.00491725,0.368905,1.05395
15,1770,3.29271,-0.00592027,0.368524,1.05571
17,1768,3.29379,-0.0054807,0.367673,1.05634
19,1766,3.29502,-0.00444177,0.366831,1.05742
21,1764,3.29467,-0.00642996,0.366972,1.05832
23,1762,3.2957,-0.00398412,0.365715,1.05818
25,1760,3.29546,-0.00591551,0.365677,1.05905
27,1758,3.29577,-0.00600914,0.365256,1.05889
29,1756,3.29516,-0.00561399,0.365246,1.05937
31,1754,3.29654,-0.00558125,0.365075,1.05966
33,1752,3.29681,-0.00544911,0.363996,1.05988
35,1750,3.29705,-0.00483077,0.363575,1.06049
37,1748,3.29748,-0.00546556,0.36316,1.06011
39,1746,3.29747,-0.00505255,0.363147,1.06043
41,1744,3.29762,-0.00492971,0.362738,1.06065
43,1742,3.29724,-0.00549121,0.363134,1.06008
45,1740,3.29816,-0.00499969,0.362327,1.061
47,1738,3.29798,-0.00536444,0.362321,1.06044
49,1736,3.29843,-0.00542293,0.362559,1.06051
51,1734,3.29832,-0.00545476,0.361815,1.0605
53,1732,3.29772,-0.00597488,0.362313,1.05994
55,1730,3.29809,-0.00556075,0.361896,1.06037
57,1728,3.29806,-0.00597483,0.361901,1.06008
59,1726,3.29842,-0.0059087,0.361505,1.06028
61,1724,3.29836,-0.00644348,0.361486,1.05981
63,1722,3.29932,-0.00406864,0.360963,1.05952
65,1720,3.29958,-0.0044104,0.360972,1.05928
67,1718,3.29931,-0.00444797,0.36096,1.05923
69,1716,3.29983,-0.00444736,0.360541,1.05931
71,1714,3.29957,-0.00482855,0.360542,1.059
73,1712,3.29932,-0.0050184,0.360942,1.05874
75,1710,3.29959,-0.00496078,0.360543,1.0589
77,1708,3.29856,-0.00548679,0.361342,1.05821
79,1706,3.29954,-0.0054719,0.360678,1.0585
81,1704,3.29913,-0.00595566,0.360965,1.05805
83,1702,3.29897,-0.00586605,0.360957,1.0581
85,1700,3.2994,-0.00641922,0.360972,1.05771
87,1698,3.30059,-0.00394688,0.360014,1.05753
89,1696,3.29979,-0.00397922,0.3604,1.05732
91,1694,3.30026,-0.00399907,0.360003,1.05745
93,1692,3.30003,-0.00452551,0.360495,1.05692
95,1690,3.2996,-0.0045157,0.360402,1.05689
97,1688,3.30041,-0.0045067,0.359986,1.05704
99,1686,3.30026,-0.00491278,0.360004,1.05677
101,1684,3.29958,-0.00504325,0.360425,1.05681
103,1682,3.29999,-0.00547264,0.360434,1.05622
105,1680,3.29972,-0.00545699,0.360422,1.05624
107,1678,3.29909,-0.00558426,0.360826,1.05598
109,1676,3.2997,-0.00592807,0.360413,1.05581
111,1674,3.29963,-0.00595847,0.360408,1.05579
113,1672,3.30032,-0.00359997,0.359867,1.05541
115,1670,3.3004,-0.0035784,0.359863,1.05542
117,1668,3.301,-0.00400075,0.35946,1.05521
119,1666,3.3001,-0.00399852,0.359877,1.05512
121,1664,3.30085,-0.00449565,0.359891,1.05478
123,1662,3.30117,-0.00481548,0.359488,1.05467
125,1660,3.29978,-0.00504527,0.360307,1.05422
127,1658,3.30022,-0.00496064,0.360296,1.05429
129,1656,3.30019,-0.0048927,0.359929,1.05448
131,1654,3.29966,-0.00500421,0.360297,1.05425
133,1652,3.30009,-0.0053874,0.360377,1.05396
135,1650,3.30022,-0.00534957,0.359885,1.05408
137,1648,3.29923,-0.00548665,0.360713,1.05377
139,1646,3.2995,-0.00590012,0.360716,1.05343
141,1644,3.30163,-0.00335823,0.359372,1.05348
143,1642,3.3004,-0.00389054,0.360182,1.05279
145,1640,3.30071,-0.00393594,0.360179,1.05276
147,1638,3.30116,-0.0037838,0.359776,1.05301
149,1636,3.30026,-0.00443137,0.360177,1.05236
151,1634,3.30057,-0.00442073,0.360181,1.05237
153,1632,3.30068,-0.00432082,0.359776,1.05259
155,1630,3.30004,-0.00441426,0.360312,1.05235
157,1628,3.30055,-0.00490109,0.360253,1.05198
159,1626,3.30043,-0.00490481,0.360186,1.05202
161,1624,3.29936,-0.00497361,0.360568,1.05178
163,1622,3.29965,-0.00506706,0.360567,1.05166
165,1620,3.29986,-0.00551941,0.360579,1.05136
167,1618,3.29939,-0.00552821,0.360578,1.05134
169,1616,3.29977,-0.00552508,0.360573,1.05132
171,1614,3.29967,-0.00595545,0.36066,1.05101
173,1612,3.29879,-0.00608093,0.360982,1.05076
175,1610,3.29915,-0.00604194,0.360983,1.0508
177,1608,3.30098,-0.00389518,0.359628,1.05051
179,1606,3.30036,-0.00408703,0.360042,1.05023
181,1604,3.30054,-0.00391136,0.360035,1.05037
183,1602,3.30071,-0.00444724,0.360041,1.04997
185,1600,3.30015,-0.00454067,0.360037,1.04985
187,1598,3.29981,-0.00460975,0.360439,1.04967
189,1596,3.30031,-0.00450693,0.360011,1.04985
191,1594,3.29966,-0.00458943,0.359997,1.04973
193,1592,3.3,-0.00462949,0.359986,1.04966
195,1590,3.30009,-0.00511483,0.359981,1.04928
197,1588,3.29862,-0.00622313,0.360797,1.04942
199,1586,3.29926,-0.00581447,0.360763,1.04967
201,1584,3.29918,-0.00662893,0.36079,1.04911
203,1582,3.29838,-0.00682784,0.361201,1.04882
205,1580,3.29933,-0.00562277,0.360374,1.04868
207,1578,3.29845,-0.0070155,0.361202,1.04867
209,1576,3.29831,-0.00698349,0.361197,1.04868
211,1574,3.2989,-0.00691044,0.360785,1.04888
213,1572,3.29893,-0.0073694,0.360781,1.04851
215,1570,3.29816,-0.00746001,0.361185,1.04831
217,1568,3.3002,-0.00358955,0.359424,1.04817
219,1566,3.30048,-0.00408551,0.359433,1.0478
221,1564,3.29985,-0.00453204,0.359855,1.04735
223,1562,3.30004,-0.00452869,0.359849,1.04708
225,1560,3.29998,-0.00451504,0.359845,1.04736
227,1558,3.29913,-0.00468758,0.360258,1.04708
229,1556,3.29979,-0.00462575,0.359845,1.04725
231,1554,3.2994,-0.00515888,0.360252,1.04671
233,1552,3.29912,-0.00511377,0.360246,1.0467
235,1550,3.29958,-0.00515885,0.359839,1.04684
237,1548,3.29932,-0.0056375,0.360258,1.04634
239,1546,3.29909,-0.00561167,0.360268,1.04639
241,1544,3.29912,-0.00559293,0.360274,1.04643
243,1542,3.29925,-0.00601667,0.360272,1.0461
245,1540,3.29898,-0.00597808,0.360261,1.0461
247,1538,3.29889,-0.00614909,0.360258,1.04593
249,1536,3.3004,-0.00354264,0.359296,1.04583
251,1534,3.29978,-0.00352843,0.359704,1.0457
253,1532,3.30007,-0.00417954,0.359709,1.04522
255,1530,3.30027,-0.00403646,0.359297,1.04537
257,1528,3.30008,-0.00451208,0.359733,1.04501
259,1526,3.29994,-0.00453829,0.359736,1.04501
261,1524,3.29991,-0.00451019,0.359726,1.04499
263,1522,3.29994,-0.00487458,0.359729,1.04471
265,1520,3.29939,-0.00515193,0.360143,1.04438
267,1518,3.29949,-0.00510803,0.360141,1.0444
269,1516,3.29972,-0.00498411,0.359724,1.04464
271,1514,3.29897,-0.00520025,0.360139,1.04431
273,1512,3.29932,-0.00513286,0.360226,1.04438
275,1510,3.2996,-0.00544226,0.359729,1.04403
277,1508,3.29904,-0.00577807,0.360155,1.04418
279,1506,3.29927,-0.00560566,0.36016,1.0441
281,1504,3.29915,-0.00590352,0.360153,1.04383
283,1502,3.29855,-0.00610579,0.360569,1.04354
285,1500,3.30028,-0.00347287,0.359617,1.04346
287,1498,3.29915,-0.00642988,0.360149,1.0434
289,1496,3.29999,-0.00406796,0.359613,1.043
291,1494,3.2996,-0.00412637,0.360022,1.04306
293,1492,3.30054,-0.00394139,0.359185,1.04318
295,1490,3.29999,-0.00472867,0.359616,1.0414
297,1488,3.29977,-0.00465914,0.360041,1.04242
299,1486,3.30025,-0.00449397,0.359633,1.04271
301,1484,3.29902,-0.005099,0.360471,1.04198
303,1482,3.29978,-0.00453536,0.360049,1.04254
305,1480,3.30011,-0.00493053,0.359651,1.0424
307,1478,3.29904,-0.00511067,0.360036,1.04206
309,1476,3.29961,-0.00503515,0.360032,1.04212
311,1474,3.29976,-0.0053915,0.359621,1.04198
313,1472,3.29872,-0.00561896,0.360447,1.04151
315,1470,3.29957,-0.00545363,0.360051,1.04183
317,1468,3.29921,-0.00602961,0.360465,1.04127
319,1466,3.29899,-0.00600215,0.360486,1.04133
321,1464,3.29914,-0.00589486,0.360477,1.04143
323,1462,3.29922,-0.00653791,0.360487,1.04091
325,1460,3.30003,-0.00400339,0.359932,1.04059
327,1458,3.30002,-0.00399234,0.359363,1.04058
329,1456,3.30035,-0.00398832,0.359502,1.0407
331,1454,3.29949,-0.00404874,0.359919,1.04052
333,1452,3.29968,-0.00414612,0.359904,1.04042
335,1450,3.30034,-0.00454116,0.359511,1.04029
337,1448,3.29923,-0.0046142,0.361028,1.04003
339,1446,3.2999,-0.00448883,0.359957,1.04027
341,1444,3.29962,-0.0049636,0.360365,1.03977
343,1442,3.29946,-0.00496895,0.360379,1.03981
345,1440,3.30012,-0.00539075,0.359962,1.0396
347,1438,3.29952,-0.00545606,0.360368,1.03939
349,1436,3.29894,-0.0055009,0.361438,1.0392
351,1434,3.29939,-0.00548233,0.360359,1.03935
353,1432,3.29923,-0.0055131,0.360357,1.03931
355,1430,3.29889,-0.00608809,0.360786,1.03761
357,1428,3.2988,-0.00615804,0.360803,1.03875
359,1426,3.30043,-0.00351374,0.35985,1.03868
361,1424,3.30038,-0.00378112,0.359856,1.03851
363,1422,3.29876,-0.00649391,0.360789,1.03848
365,1420,3.30015,-0.00392966,0.359822,1.03828
367,1418,3.29986,-0.0039041,0.359698,1.03829
369,1416,3.29991,-0.00400424,0.359812,1.03821
371,1414,3.30022,-0.00394287,0.359389,1.03835
373,1412,3.2995,-0.00456102,0.360222,1.03761
375,1410,3.29928,-0.00469301,0.360218,1.03618
377,1408,3.29935,-0.00464099,0.360238,1.03759
379,1406,3.29967,-0.00449164,0.359802,1.03781
381,1404,3.29946,-0.00466032,0.359813,1.03771
383,1402,3.29921,-0.00516955,0.360228,1.03715
385,1400,3.29949,-0.00492955,0.359878,1.03746
387,1398,3.29885,-0.0051727,0.36012,1.0371
389,1396,3.29922,-0.00506818,0.360218,1.03721
391,1394,3.29937,-0.00540171,0.360446,1.03704
393,1392,3.29875,-0.00569557,0.360207,1.03668
395,1390,3.29894,-0.00565477,0.360216,1.03674
397,1388,3.29897,-0.00602179,0.36023,1.0365
399,1386,3.29843,-0.00625258,0.360653,1.0362
401,1384,3.3005,-0.00353639,0.359284,1.03632
403,1382,3.30025,-0.00348561,0.359284,1.03636
405,1380,3.29939,-0.00409476,0.360116,1.0356
407,1378,3.2999,-0.00398665,0.359691,1.03578
409,1376,3.30034,-0.0039477,0.359268,1.03596
411,1374,3.29924,-0.00465779,0.360111,1.03515
413,1372,3.29966,-0.00410485,0.359684,1.03568
415,1370,3.29993,-0.00457423,0.359702,1.03527
417,1368,3.29901,-0.00466129,0.360118,1.03518
419,1366,3.29949,-0.004642,0.360133,1.03524
421,1364,3.29987,-0.00496342,0.359723,1.03515
423,1362,3.29888,-0.00506505,0.360133,1.03489
425,1360,3.29931,-0.00503721,0.360256,1.03486
427,1358,3.29966,-0.00538325,0.359689,1.03473
429,1356,3.29882,-0.00568177,0.360114,1.03436
431,1354,3.29868,-0.00569309,0.360602,1.03419
433,1352,3.29868,-0.00559281,0.360098,1.03441
435,1350,3.29829,-0.00577902,0.359938,1.03413
437,1348,3.29901,-0.00613356,0.360121,1.03404
439,1346,3.29887,-0.00602147,0.360129,1.03417
441,1344,3.29999,-0.00359559,0.359608,1.03381
443,1342,3.29969,-0.00399733,0.360023,1.03333
445,1340,3.30048,-0.00387198,0.359164,1.03364
447,1338,3.2997,-0.00407447,0.359583,1.0336
449,1336,3.29922,-0.00415265,0.360001,1.03314
451,1334,3.2997,-0.00398026,0.359574,1.03341
453,1332,3.29909,-0.00468117,0.359998,1.03275
455,1330,3.29936,-0.00472628,0.360011,1.03274
457,1328,3.30007,-0.00495165,0.35961,1.03275
459,1326,3.29896,-0.00514583,0.360464,1.03238
461,1324,3.29968,-0.00495988,0.360038,1.03264
463,1322,3.29915,-0.00541847,0.360469,1.03218
465,1320,3.29905,-0.00563518,0.360473,1.03202
467,1318,3.29916,-0.0055303,0.360537,1.03211
469,1316,3.29864,-0.0055076,0.360476,1.03213
471,1314,3.29902,-0.00554874,0.360462,1.03234
473,1312,3.29903,-0.00595964,0.360475,1.03177
475,1310,3.29872,-0.00595631,0.360473,1.03177
477,1308,3.29903,-0.00601467,0.360474,1.03173
479,1306,3.30001,-0.00407372,0.359941,1.03096
481,1304,3.29935,-0.00403119,0.360373,1.03088
483,1302,3.30022,-0.00389524,0.359529,1.03126
485,1300,3.3001,-0.00394957,0.35953,1.03123
487,1298,3.29937,-0.0045069,0.360381,1.03055
489,1296,3.29968,-0.00441023,0.359953,1.03072
491,1294,3.29978,-0.00436254,0.359951,1.03078
493,1292,3.2989,-0.00454409,0.360371,1.03049
495,1290,3.29908,-0.00456608,0.360382,1.03048
497,1288,3.2996,-0.00497363,0.359944,1.0303
499,1286,3.29856,-0.0051639,0.360378,1.03002
501,1284,3.29905,-0.00508877,0.361045,1.03007
503,1282,3.29997,-0.00532073,0.359525,1.03016
505,1280,3.29877,-0.00562799,0.360368,1.02964
507,1278,3.29888,-0.00559606,0.360361,1.02965
509,1276,3.29855,-0.00554298,0.360367,1.02969
511,1274,3.29857,-0.00570948,0.36036,1.02957
513,1272,3.29904,-0.00602885,0.359932,1.02943
515,1270,3.29805,-0.00613273,0.360781,1.0291
517,1268,3.2985,-0.00607382,0.360439,1.02927
519,1266,3.29973,-0.00409214,0.359837,1.02855
521,1264,3.29946,-0.00412112,0.359839,1.02851
523,1262,3.29957,-0.00408338,0.359831,1.02856
525,1260,3.2999,-0.00401487,0.359402,1.02874
527,1258,3.29887,-0.00464451,0.360242,1.02796
529,1256,3.29934,-0.00457659,0.359815,1.02812
531,1254,3.29977,-0.00443538,0.359396,1.02837
533,1252,3.29914,-0.00513975,0.359897,1.0277
535,1250,3.29916,-0.00465847,0.359808,1.02805
537,1248,3.29902,-0.00510364,0.359812,1.02773
539,1246,3.29855,-0.00517739,0.360233,1.02753
541,1244,3.29942,-0.00555172,0.359825,1.02738
543,1242,3.29885,-0.0055444,0.360339,1.02728
545,1240,3.2989,-0.00563495,0.360242,1.02719
547,1238,3.29923,-0.00601808,0.35982,1.02703
549,1236,3.29809,-0.00633527,0.360682,1.02657
551,1234,3.29865,-0.00609733,0.360242,1.02684
553,1232,3.29832,-0.00593846,0.360247,1.02697
555,1230,3.29857,-0.00613403,0.360244,1.0268
557,1228,3.30037,-0.00396655,0.359286,1.02631
559,1226,3.29899,-0.00422328,0.359731,1.02604
561,1224,3.29973,-0.00401393,0.359731,1.02621
563,1222,3.30009,-0.00419168,0.359299,1.02621
565,1220,3.29978,-0.00453285,0.359807,1.02585
567,1218,3.29986,-0.00448196,0.359741,1.02587
569,1216,3.2988,-0.00452636,0.360157,1.02569
571,1214,3.29977,-0.00447187,0.359317,1.02601
573,1212,3.29949,-0.00491398,0.359741,1.02555
575,1210,3.29915,-0.00505749,0.359728,1.02541
577,1208,3.29923,-0.00498969,0.359716,1.02542
579,1206,3.29842,-0.00563801,0.360132,1.02476
581,1204,3.29893,-0.00560417,0.359706,1.02493
583,1202,3.29886,-0.0055779,0.359711,1.02494
585,1200,3.29823,-0.00578599,0.359995,1.02465
587,1198,3.2987,-0.0061173,0.360157,1.02447
589,1196,3.29843,-0.00601016,0.36014,1.02453
591,1194,3.29875,-0.00615216,0.359715,1.02453
593,1192,3.29994,-0.00401661,0.359185,1.02389
595,1190,3.29924,-0.00413927,0.359611,1.02364
597,1188,3.29942,-0.00415181,0.359625,1.02366
599,1186,3.29945,-0.00407639,0.35917,1.02379
601,1184,3.29991,-0.00462158,0.359182,1.02345
603,1182,3.29972,-0.00458913,0.359187,1.02345
605,1180,3.29898,-0.00464451,0.359618,1.0233
607,1178,3.29897,-0.00515802,0.360126,1.02278
609,1176,3.29917,-0.00494383,0.359625,1.02309
611,1174,3.29927,-0.00509314,0.359621,1.02272
613,1172,3.29948,-0.00557248,0.359624,1.02261
615,1170,3.29868,-0.00575592,0.360035,1.02255
617,1168,3.29843,-0.00572201,0.360037,1.02232
619,1166,3.29816,-0.00562593,0.360038,1.02239
621,1164,3.29836,-0.00568513,0.36004,1.02235
623,1162,3.29897,-0.00606623,0.359607,1.0222
625,1160,3.29822,-0.0062697,0.360029,1.02188
627,1158,3.2998,-0.00364418,0.359085,1.02176
629,1156,3.29965,-0.00403176,0.359749,1.02144
631,1154,3.29975,-0.00403642,0.359002,1.02142
633,1152,3.30015,-0.00401693,0.358647,1.02156
635,1150,3.29933,-0.00420975,0.359066,1.02126
637,1148,3.2995,-0.0042486,0.359056,1.02123
639,1146,3.29894,-0.00473508,0.360166,1.02073
641,1144,3.29934,-0.00477964,0.359524,1.02077
643,1142,3.29958,-0.00504734,0.359164,1.0207
645,1140,3.29937,-0.005115,0.359097,1.02068
647,1138,3.2996,-0.0049516,0.359079,1.0205
649,1136,3.29839,-0.00565651,0.359933,1.01993
651,1134,3.29864,-0.00575596,0.360083,1.01988
653,1132,3.29904,-0.00549796,0.359074,1.02031
655,1130,3.29872,-0.00571984,0.35963,1.01997
657,1128,3.29926,-0.00608855,0.359064,1.01984
659,1126,3.29749,-0.00646137,0.360357,1.01919
661,1124,3.3002,-0.00364311,0.358549,1.01944
663,1122,3.2993,-0.00404368,0.359423,1.01893
665,1120,3.30008,-0.00395348,0.358997,1.01914
667,1118,3.3003,-0.00433442,0.358553,1.01896
669,1116,3.2997,-0.00467466,0.359006,1.01861
671,1114,3.2999,-0.00454093,0.359007,1.01872
673,1112,3.29858,-0.00516903,0.359856,1.01796
675,1110,3.29933,-0.00515941,0.359419,1.01804
677,1108,3.29888,-0.00503528,0.359415,1.01816
679,1106,3.29927,-0.00514053,0.359422,1.01809
681,1104,3.29934,-0.00548508,0.359425,1.01785
683,1102,3.2985,-0.00578435,0.359873,1.01753
685,1100,3.29946,-0.00553781,0.359009,1.01798
687,1098,3.29848,-0.00608449,0.359871,1.01729
689,1096,3.29878,-0.00610348,0.35987,1.01728
691,1094,3.30039,-0.00388722,0.358482,1.01693
693,1092,3.3001,-0.00405682,0.358819,1.01667
695,1090,3.29998,-0.0040005,0.358907,1.01668
697,1088,3.29922,-0.00414948,0.359335,1.01643
699,1086,3.29965,-0.00403912,0.358893,1.01663
701,1084,3.29971,-0.0044483,0.358908,1.01634
703,1082,3.29984,-0.00449839,0.358904,1.0163
705,1080,3.29953,-0.00514793,0.359337,1.0157
707,1078,3.29932,-0.00520374,0.359346,1.01565
709,1076,3.29907,-0.00521345,0.359486,1.0154
711,1074,3.29842,-0.0057295,0.35976,1.01511
713,1072,3.29835,-0.00571047,0.359768,1.01512
715,1070,3.29871,-0.00554282,0.359325,1.01536
717,1068,3.29847,-0.0062245,0.359754,1.01469
719,1066,3.29865,-0.00615482,0.359315,1.01486
721,1064,3.29778,-0.00634209,0.359741,1.01458
723,1062,3.29842,-0.00630911,0.359304,1.01472
725,1060,3.29897,-0.00422634,0.359222,1.01391
727,1058,3.29954,-0.00416133,0.358795,1.0141
729,1056,3.29954,-0.00447204,0.358798,1.01386
731,1054,3.29924,-0.00465918,0.359233,1.01361
733,1052,3.29948,-0.00460525,0.358791,1.01378
735,1050,3.29843,-0.00540651,0.359669,1.0129
737,1048,3.29902,-0.00525845,0.359229,1.01314
739,1046,3.29796,-0.00535842,0.359661,1.01291
741,1044,3.29867,-0.00534323,0.359228,1.01306
743,1042,3.29807,-0.00567276,0.359653,1.01271
745,1040,3.29853,-0.00576234,0.359672,1.01268
747,1038,3.29876,-0.00610122,0.359266,1.01261
749,1036,3.29896,-0.00616381,0.359394,1.01252
751,1034,3.29997,-0.00401283,0.358727,1.01185
753,1032,3.29954,-0.00417726,0.358719,1.0117
755,1030,3.29973,-0.00405572,0.358726,1.01181
757,1028,3.2991,-0.00457227,0.359142,1.01123
759,1026,3.29951,-0.00460128,0.358716,1.01135
761,1024,3.29923,-0.00457417,0.35871,1.01136
763,1022,3.29942,-0.00464992,0.358648,1.01131
765,1020,3.2988,-0.00534389,0.359142,1.01064
767,1018,3.29901,-0.00527337,0.359245,1.01075
769,1016,3.29907,-0.00565492,0.359156,1.01046
771,1014,3.29819,-0.00574043,0.359596,1.01028
773,1012,3.29837,-0.00576829,0.359595,1.01025
775,1010,3.29836,-0.00620061,0.359664,1.00988
777,1008,3.29812,-0.00636173,0.359591,1.00979
779,1006,3.29843,-0.00614802,0.359149,1.01005
781,1004,3.29773,-0.00688505,0.360012,1.00925
783,1002,3.2995,-0.00411114,0.35871,1.00929
785,1000,3.29891,-0.00428302,0.359045,1.00901
787,998,3.29917,-0.00468898,0.359126,1.00872
789,996,3.2983,-0.00480187,0.359496,1.0085
791,994,3.29889,-0.00474293,0.359053,1.00867
793,992,3.29831,-0.00526541,0.359513,1.00819
795,990,3.29838,-0.00532344,0.359514,1.00817
797,988,3.29813,-0.0051875,0.359479,1.00827
799,986,3.29844,-0.00568319,0.359514,1.00788
801,984,3.29824,-0.00561146,0.359163,1.00807
803,982,3.29868,-0.00566108,0.359067,1.00803
805,980,3.29805,-0.0061057,0.359511,1.00758
807,978,3.2997,-0.00366222,0.358563,1.00729
809,976,3.29972,-0.00402261,0.358578,1.00701
811,974,3.29922,-0.00415845,0.359103,1.00679
813,972,3.29913,-0.00462519,0.358925,1.00643
815,970,3.29914,-0.00456825,0.359011,1.00647
817,968,3.29879,-0.00470269,0.359025,1.00638
819,966,3.29866,-0.00466896,0.359003,1.00636
821,964,3.2983,-0.00524304,0.359437,1.00581
823,962,3.29793,-0.00539857,0.359431,1.00566
825,960,3.29847,-0.00523409,0.358993,1.00592
827,958,3.2977,-0.00578125,0.359881,1.00528
829,956,3.29811,-0.0056713,0.35946,1.00557
831,954,3.29773,-0.00621928,0.359905,1.00504
833,952,3.29912,-0.00353367,0.358945,1.00485
835,950,3.2992,-0.00408457,0.358935,1.00442
837,948,3.29899,-0.00403009,0.358923,1.00441
839,946,3.29923,-0.00402148,0.358464,1.00451
841,944,3.29925,-0.00457175,0.358479,1.00412
843,942,3.29868,-0.0046703,0.358905,1.0039
845,940,3.29848,-0.00475125,0.358901,1.00383
847,938,3.29863,-0.00513495,0.358902,1.00351
849,936,3.29831,-0.0052779,0.358903,1.00342
851,934,3.29884,-0.0050787,0.358454,1.0037
853,932,3.29801,-0.00579635,0.359488,1.00293
855,930,3.29821,-0.00576565,0.358847,1.00307
857,928,3.29788,-0.00629643,0.359337,1.00252
859,926,3.29797,-0.00627451,0.35889,1.00263
861,924,3.29787,-0.00633128,0.358885,1.00258
863,922,3.29913,-0.00410927,0.358361,1.00194
865,920,3.29892,-0.00428572,0.358371,1.00181
867,918,3.29903,-0.00461284,0.35837,1.00156
869,916,3.29885,-0.00480628,0.358465,1.00117
871,914,3.29901,-0.00461156,0.358384,1.00162
873,912,3.29823,-0.00526725,0.359279,1.0009
875,910,3.29848,-0.00512228,0.358837,1.00113
877,908,3.29817,-0.005695,0.359265,0.999205
879,906,3.29766,-0.00580617,0.359274,1.0005
881,904,3.29827,-0.00574107,0.358823,1.00063
883,902,3.297,-0.00637489,0.359699,0.999899
885,900,3.29878,-0.00369291,0.358744,0.999717
887,898,3.29816,-0.00427525,0.359187,0.999142
889,896,3.29861,-0.00427085,0.358749,0.99928
891,894,3.29864,-0.00479084,0.359193,0.998785
893,892,3.29862,-0.00476916,0.358761,0.998965
895,890,3.2982,-0.00481423,0.359205,0.998797
897,888,3.29853,-0.00523007,0.358752,0.998595
899,886,3.29808,-0.00531986,0.359207,0.998424
901,884,3.29784,-0.00567191,0.359199,0.998138
903,882,3.29741,-0.00591269,0.359558,0.997828
905,880,3.29726,-0.00621605,0.359641,0.997599
907,878,3.29709,-0.00642781,0.359637,0.997435
909,876,3.29695,-0.00632411,0.359641,0.997519
911,874,3.29846,-0.00377182,0.358597,0.997241
913,872,3.29859,-0.00414662,0.358685,0.996951
915,870,3.29836,-0.00424654,0.358692,0.996909
917,868,3.29846,-0.00468635,0.358688,0.996563
919,866,3.29809,-0.0046669,0.358766,0.996564
921,864,3.29772,-0.00518405,0.359127,0.996042
923,862,3.2971,-0.00534932,0.359582,0.995819
925,860,3.29711,-0.00535136,0.359585,0.99583
927,858,3.29711,-0.0059185,0.359579,0.99538
929,856,3.29711,-0.00643527,0.359588,0.995017
931,854,3.29701,-0.00642682,0.359581,0.99501
933,852,3.29807,-0.00417689,0.35908,0.994403
935,850,3.29808,-0.00421556,0.359088,0.994376
937,848,3.2973,-0.00480564,0.359537,0.99381
939,846,3.29808,-0.00474336,0.359083,0.993983
941,844,3.29735,-0.00546848,0.359532,0.993325
943,842,3.29786,-0.00516861,0.359083,0.993671
945,840,3.29708,-0.00539916,0.360211,0.993374
947,838,3.29716,-0.00574869,0.359522,0.993096
949,836,3.29704,-0.00601962,0.359538,0.992936
951,834,3.29721,-0.00641206,0.359526,0.992616
953,832,3.29676,-0.00638234,0.35952,0.992629
955,830,3.29811,-0.00406208,0.359081,0.992046
957,828,3.29788,-0.00422695,0.359039,0.991964
959,826,3.29809,-0.00471613,0.35905,0.991624
961,824,3.29791,-0.00476726,0.359047,0.991579
963,822,3.29691,-0.0051792,0.359943,0.991023
965,820,3.2972,-0.00533264,0.359488,0.991017
967,818,3.29676,-0.00584696,0.359939,0.990492
969,816,3.29718,-0.00578308,0.359476,0.990673
971,814,3.29643,-0.00589148,0.35994,0.990454
973,812,3.29647,-0.00638744,0.359923,0.990072
975,810,3.29623,-0.00648575,0.359933,0.99002
977,808,3.29803,-0.00375703,0.358985,0.989869
979,806,3.29727,-0.00422705,0.359435,0.989377
981,804,3.29762,-0.00479496,0.359442,0.988979
983,802,3.29729,-0.0050002,0.359447,0.988831
985,800,3.2973,-0.00521296,0.359442,0.988668
987,798,3.29704,-0.0053418,0.359438,0.988554
989,796,3.29671,-0.00591844,0.359892,0.988012
991,794,3.29697,-0.00581379,0.359498,0.988206
993,792,3.29597,-0.00643173,0.360335,0.987498
995,790,3.29605,-0.00658526,0.360341,0.9874
997,788,3.29782,-0.00417407,0.358892,0.987093
999,786,3.29765,-0.00407189,0.358921,0.987134
1001,784,3.29681,-0.00430904,0.35935,0.986814
1003,782,3.2971,-0.00481362,0.35936,0.986465
1005,780,3.29648,-0.00494762,0.359824,0.986243
1007,778,3.29628,-0.00543517,0.359828,0.985877
1009,776,3.2967,-0.00542447,0.359367,0.986018
1011,774,3.29601,-0.00606028,0.359811,0.985379
1013,772,3.29622,-0.00610895,0.359804,0.985326
1015,770,3.2964,-0.00644619,0.359351,0.985202
1017,768,3.29577,-0.00658095,0.359804,0.984972
1019,766,3.29716,-0.0044444,0.359204,0.984248
1021,764,3.29683,-0.00420985,0.359312,0.984434
1023,762,3.29664,-0.00476845,0.360458,0.983915
1025,760,3.29694,-0.00490137,0.359322,0.983947
1027,758,3.29572,-0.00540369,0.360242,0.983331
1029,756,3.2964,-0.00542927,0.359766,0.983431
1031,754,3.29599,-0.00605974,0.359757,0.982901
1033,752,3.29558,-0.00660295,0.360219,0.98238
1035,750,3.29584,-0.0064848,0.359753,0.982583
1037,748,3.29709,-0.00376962,0.358787,0.982344
1039,746,3.29678,-0.00442862,0.359241,0.981726
1041,744,3.29607,-0.00440832,0.359089,0.981611
1043,742,3.29637,-0.00444734,0.359238,0.981727
1045,740,3.29607,-0.00498319,0.359704,0.981222
1047,738,3.29626,-0.00562626,0.359725,0.980771
1049,736,3.29541,-0.00602595,0.360168,0.980341
1051,734,3.29594,-0.00601704,0.359705,0.980475
1053,732,3.29555,-0.00610778,0.3597,0.980368
1055,730,3.29486,-0.00669197,0.360149,0.979794
1057,728,3.29473,-0.0065409,0.360141,0.979892
1059,726,3.29643,-0.00441305,0.359191,0.979249
1061,724,3.29609,-0.00450396,0.359193,0.979182
1063,722,3.29574,-0.00513684,0.358992,0.978587
1065,720,3.29545,-0.00556316,0.360113,0.978175
1067,718,3.29556,-0.00554051,0.359653,0.978336
1069,716,3.29509,-0.00608133,0.360126,0.977837
1071,714,3.29508,-0.00612663,0.360104,0.977795
1073,712,3.29445,-0.00668921,0.36058,0.977247
1075,710,3.29619,-0.00380095,0.35916,0.977253
1077,708,3.29582,-0.00443317,0.359622,0.976906
1079,706,3.29618,-0.00438145,0.359243,0.976798
1081,704,3.29569,-0.00504569,0.359619,0.976223
1083,702,3.29512,-0.00553613,0.360086,0.975751
1085,700,3.29506,-0.00552102,0.360083,0.975749
1087,698,3.29519,-0.00611057,0.3601,0.975334
1089,696,3.29497,-0.00611241,0.360105,0.975364
1091,694,3.29611,-0.0040066,0.359634,0.974618
1093,692,3.29612,-0.00423509,0.359614,0.974385
1095,690,3.29601,-0.00428499,0.359611,0.974358
1097,688,3.29629,-0.00420329,0.359148,0.974551
1099,686,3.29531,-0.00498739,0.360081,0.97374
1101,684,3.29473,-0.00559655,0.360541,0.97316
1103,682,3.29516,-0.00551507,0.360072,0.973333
1105,680,3.29478,-0.00602599,0.360539,0.972836
1107,678,3.29481,-0.00588992,0.36007,0.973053
1109,676,3.29612,-0.00380643,0.359591,0.972272
1111,674,3.29546,-0.00432616,0.360059,0.971777
1113,672,3.29535,-0.00426915,0.360161,0.971829
1115,670,3.29544,-0.00492415,0.360075,0.971383
1117,668,3.2955,-0.00533977,0.360072,0.971038
1119,666,3.29475,-0.00544113,0.360532,0.970833
1121,664,3.29454,-0.00602617,0.360531,0.970427
1123,662,3.29484,-0.00595765,0.360072,0.970599
1125,660,3.29385,-0.00663763,0.360995,0.969846
1127,658,3.29529,-0.00376097,0.360047,0.969714
1129,656,3.29539,-0.00442774,0.360039,0.96921
1131,654,3.295,-0.00498201,0.360523,0.968716
1133,652,3.2954,-0.00475366,0.360057,0.969023
1135,650,3.29478,-0.00533097,0.360537,0.968532
1137,648,3.29464,-0.00588623,0.360538,0.96812
1139,646,3.2945,-0.00599111,0.360534,0.968014
1141,644,3.2939,-0.00658792,0.360998,0.967467
1143,642,3.29571,-0.00365531,0.35963,0.967475
1145,640,3.29522,-0.00433626,0.360043,0.966846
1147,638,3.29476,-0.00486513,0.360501,0.96631
1149,636,3.29467,-0.0049583,0.360509,0.96626
1151,634,3.29407,-0.00552726,0.360969,0.965707
1153,632,3.29403,-0.00594636,0.360985,0.965429
1155,630,3.29395,-0.00602182,0.361001,0.965455
1157,628,3.29338,-0.00649029,0.3615,0.965044
1159,626,3.29491,-0.00416925,0.360591,0.964384
1161,624,3.29437,-0.00390686,0.360627,0.964517
1163,622,3.29429,-0.00439471,0.360466,0.964105
1165,620,3.29429,-0.00504035,0.360473,0.96366
1167,618,3.29365,-0.00511038,0.360939,0.963469
1169,616,3.29347,-0.00557037,0.360931,0.963101
1171,614,3.29345,-0.00611458,0.36093,0.962714
1173,612,3.29273,-0.00624488,0.361409,0.962525
1175,610,3.2926,-0.00675102,0.361412,0.962176
1177,608,3.29432,-0.00436312,0.360465,0.96168
1179,606,3.29418,-0.00437783,0.360464,0.961697
1181,604,3.29422,-0.00491123,0.360482,0.961316
1183,602,3.2935,-0.00508118,0.360938,0.961024
1185,600,3.29302,-0.00561311,0.361408,0.960509
1187,598,3.29319,-0.00555959,0.360913,0.960628
1189,596,3.29259,-0.00627789,0.361397,0.960002
1191,594,3.29241,-0.00681511,0.361402,0.959606
1193,592,3.29393,-0.00394945,0.36044,0.959424
1195,590,3.2934,-0.00461985,0.360921,0.95883
1197,588,3.29277,-0.00516377,0.361353,0.958306
1199,586,3.29283,-0.0057403,0.361407,0.957928
1201,584,3.29235,-0.00628072,0.361896,0.957441
1203,582,3.2923,-0.00668536,0.361912,0.957192
1205,580,3.29257,-0.00663918,0.361528,0.957351
1207,578,3.29363,-0.00438987,0.360952,0.956579
1209,576,3.29349,-0.00435857,0.360942,0.956569
1211,574,3.29341,-0.00492893,0.360928,0.956141
1213,572,3.29279,-0.00503381,0.361424,0.955961
1215,570,3.29255,-0.00553063,0.361418,0.955584
1217,568,3.29199,-0.00624105,0.361988,0.954982
1219,566,3.29137,-0.00686773,0.362393,0.954437
1221,564,3.29297,-0.00444481,0.361433,0.953897
1223,562,3.29328,-0.00448174,0.360969,0.954011
1225,560,3.29257,-0.00452919,0.361417,0.953807
1227,558,3.29266,-0.00493913,0.361432,0.953547
1229,556,3.29214,-0.00572847,0.361916,0.952858
1231,554,3.29164,-0.00568282,0.361904,0.952884
1233,552,3.29106,-0.00646068,0.362392,0.952187
1235,550,3.29249,-0.00400331,0.361433,0.951679
1237,548,3.29191,-0.00455701,0.361907,0.951144
1239,546,3.29213,-0.00455944,0.36143,0.951272
1241,544,3.29191,-0.00505067,0.361435,0.950922
1243,542,3.29149,-0.00571305,0.361852,0.950304
1245,540,3.29111,-0.00588766,0.362046,0.950171
1247,538,3.29041,-0.0064727,0.362375,0.949614
1249,536,3.29153,-0.00424496,0.361918,0.948833
1251,534,3.29168,-0.00461658,0.361421,0.94866
1253,532,3.29125,-0.0052142,0.361929,0.948161
1255,530,3.2909,-0.0059434,0.362423,0.947551
1257,528,3.2911,-0.00581373,0.361928,0.947748
1259,526,3.29007,-0.00639084,0.362913,0.947123
1261,524,3.2904,-0.00696876,0.362411,0.946798
1263,522,3.29139,-0.0045722,0.361944,0.946098
1265,520,3.29119,-0.00462651,0.361948,0.946064
1267,518,3.29112,-0.00512899,0.361949,0.945727
1269,516,3.29066,-0.00577182,0.362452,0.945176
1271,514,3.29035,-0.00642472,0.362951,0.944862
1273,512,3.29046,-0.00628509,0.362459,0.944818
1275,510,3.28937,-0.00702333,0.363432,0.944046
1277,508,3.29083,-0.00467215,0.362469,0.943426
1279,506,3.29057,-0.00510773,0.362461,0.943104
1281,504,3.29011,-0.00590349,0.362466,0.942804
1283,502,3.29005,-0.00643251,0.362472,0.942186
1285,500,3.2894,-0.00643572,0.36296,0.942069
1287,498,3.29092,-0.00410149,0.362004,0.94144
1289,496,3.29025,-0.00471072,0.362509,0.940888
1291,494,3.28963,-0.0053416,0.363021,0.940359
1293,492,3.28987,-0.00586192,0.362525,0.940113
1295,490,3.28975,-0.00583391,0.362533,0.94014
1297,488,3.28928,-0.00648987,0.363029,0.939579
1299,486,3.29107,-0.00248554,0.361579,0.938901
1301,484,3.2904,-0.0031749,0.362072,0.938334
1303,482,3.28961,-0.00531049,0.363216,0.93788
1305,480,3.2895,-0.0043045,0.362578,0.937425
1307,478,3.28929,-0.00495035,0.362573,0.936967
1309,476,3.28917,-0.0049295,0.362574,0.936993
1311,474,3.28842,-0.0116037,0.363075,0.936456
1313,472,3.29028,-0.00765997,0.361621,0.935765
1315,470,3.28974,-0.00684889,0.361626,0.935037
1317,468,3.28873,-0.0089621,0.362618,0.934617
1319,466,3.28837,-0.00794701,0.362093,0.934085
1321,464,3.28857,-0.00665983,0.361076,0.933876
1323,462,3.29025,-0.0041684,0.36013,0.931898
1325,460,3.28973,-0.00923486,0.360127,0.932794
1327,458,3.28957,-0.00987884,0.360127,0.932332
1329,456,3.28874,-0.0105306,0.360621,0.931745
1331,454,3.28805,-0.0111359,0.361827,0.931203
1333,452,3.29012,-0.00710144,0.359176,0.930698
1335,450,3.28947,-0.00777532,0.359669,0.930103
1337,448,3.28906,-0.00850514,0.36016,0.929461
1339,446,3.2893,-0.00689918,0.359233,0.929483
1341,444,3.28941,-0.00597406,0.358667,0.928985
1343,442,3.28911,-0.00516563,0.358675,0.928282
1345,440,3.28844,-0.00567234,0.359171,0.927802
1347,438,3.28985,-0.00916153,0.358313,0.927368
1349,436,3.28917,-0.00992773,0.358723,0.926715
1351,434,3.28884,-0.0104853,0.358718,0.926311
1353,432,3.28804,-0.0110834,0.359209,0.925769
1355,430,3.2898,-0.00717662,0.357766,0.925046
1357,428,3.2892,-0.0078231,0.358254,0.924467
1359,426,3.28884,-0.00848705,0.358256,0.923998
1361,424,3.28902,-0.00587608,0.357265,0.923464
1363,422,3.28901,-0.0065402,0.357277,0.923036
1365,420,3.28825,-0.00714409,0.357769,0.922485
1367,418,3.28957,-0.00476196,0.357319,0.921761
1369,416,3.28939,-0.00977438,0.356827,0.921345
1371,414,3.28929,-0.0104362,0.356824,0.920886
1373,412,3.28883,-0.0090165,0.356824,0.92059
1375,410,3.2884,-0.0111296,0.357316,0.920288
1377,408,3.29029,-0.00553089,0.355388,0.919556
1379,406,3.2899,-0.00771294,0.355878,0.919208
1381,404,3.28908,-0.0084724,0.356371,0.918584
1383,402,3.28807,-0.0105736,0.357362,0.918186
1385,400,3.28842,-0.00643267,0.355212,0.917511
1387,398,3.29061,-0.00254481,0.354455,0.916794
1389,396,3.28996,-0.00319712,0.354956,0.916254
1391,394,3.28934,-0.00534654,0.355468,0.915971
1393,392,3.28863,-0.0109331,0.355474,0.915051
1395,390,3.28857,-0.0110315,0.355464,0.914978
1397,388,3.29058,-0.00552529,0.353576,0.914134
1399,386,3.28926,-0.00932098,0.355007,0.913763
1401,384,3.28894,-0.00671,0.354488,0.913043
1403,382,3.28913,-0.00587589,0.353991,0.912433
1405,380,3.28829,-0.00814313,0.354484,0.912038
1407,378,3.28772,-0.00870996,0.354975,0.911521
1409,376,3.28983,-0.00312643,0.353097,0.910508
1411,374,3.28908,-0.00528921,0.353545,0.910452
1413,372,3.28879,-0.0104541,0.353544,0.909837
1415,370,3.2885,-0.00502323,0.353552,0.909364
1417,368,3.28955,-0.00861941,0.35311,0.909
1419,366,3.28948,-0.00774859,0.352624,0.908181
1421,364,3.28874,-0.0083011,0.353098,0.907651
1423,362,3.2887,-0.00745894,0.352606,0.907049
1425,360,3.28777,-0.00956616,0.353589,0.906665
1427,358,3.28967,-0.00408959,0.351672,0.90581
1429,356,3.28897,-0.00468048,0.35216,0.905273
1431,354,3.28929,-0.00377766,0.351177,0.904826
1433,352,3.28868,-0.00435396,0.351665,0.9043
1435,350,3.28804,-0.0111536,0.351674,0.903876
1437,348,3.28958,-0.00718632,0.350734,0.90304
1439,346,3.28893,-0.00786239,0.35073,0.902582
1441,344,3.28848,-0.00754821,0.35122,0.90137
1443,342,3.2879,-0.00901332,0.351216,0.901637
1445,340,3.28812,-0.00715338,0.350721,0.900429
1447,338,3.28883,-0.00477284,0.350283,0.89969
1449,336,3.28946,-0.00321718,0.349302,0.899699
1451,334,3.28797,-0.00602023,0.350771,0.898714
1453,332,3.28812,-0.0106325,0.349784,0.898722
1455,330,3.28708,-0.0119188,0.350767,0.897615
1457,328,3.28877,-0.00882437,0.34926,0.89759
1459,326,3.28905,-0.00690129,0.348858,0.896413
1461,324,3.28772,-0.00909623,0.349839,0.895994
1463,322,3.28859,-0.00656343,0.348369,0.895467
1465,320,3.28757,-0.00865136,0.349346,0.89536
1467,318,3.28917,-0.00475194,0.347927,0.894325
1469,316,3.28895,-0.00375291,0.347927,0.893709
1471,314,3.28783,-0.00595267,0.348988,0.893275
1473,312,3.28818,-0.00506338,0.347921,0.89281
1475,310,3.2888,-0.00878932,0.347974,0.892017
1477,308,3.28844,-0.00325096,0.347974,0.891552
1479,306,3.28841,-0.00845506,0.347485,0.891057
1481,304,3.28799,-0.00803647,0.347483,0.890023
1483,302,3.28923,-0.00728496,0.347052,0.889495
1485,300,3.28919,-0.00467703,0.346561,0.888768
1487,298,3.28777,-0.00850642,0.348038,0.888464
1489,296,3.28867,-0.00432655,0.346074,0.887836
1491,294,3.28808,-0.00495414,0.346563,0.887291
1493,292,3.28891,-0.00264489,0.34613,0.886501
1495,290,3.28866,-0.00939606,0.34612,0.886128
1497,288,3.28812,-0.00442346,0.346611,0.885144
1499,286,3.28804,-0.00901773,0.345629,0.885187
1501,284,3.28739,-0.00877921,0.346117,0.883933
1503,282,3.28865,-0.00636104,0.345195,0.883309
1505,280,3.28881,-0.00535829,0.344705,0.882799
1507,278,3.2877,-0.00757254,0.345682,0.882356
1509,276,3.2878,-0.00505733,0.344705,0.881712
1511,274,3.28924,-0.00869486,0.343786,0.881217
1513,272,3.28829,-0.00947825,0.344309,0.88059
1515,270,3.28806,-0.00904671,0.344274,0.879522
1517,268,3.28714,-0.00515753,0.345258,0.879067
1519,266,3.28748,-0.00712033,0.343785,0.878372
1521,264,3.2883,-0.00781242,0.343841,0.878046
1523,262,3.28899,-0.00374486,0.34238,0.877199
1525,260,3.28748,-0.00755408,0.343838,0.876905
1527,258,3.28768,-0.00662426,0.343346,0.876343
1529,256,3.28815,-0.00476898,0.343403,0.875098
1531,254,3.28839,-0.00848989,0.342438,0.87446
1533,252,3.28791,-0.00441551,0.342951,0.874224
1535,250,3.28815,-0.00807858,0.341984,0.873595
1537,248,3.28854,-0.00888076,0.34253,0.873116
1539,246,3.2886,-0.00685149,0.342037,0.871951
1541,244,3.2883,-0.00594332,0.341538,0.871342
1543,242,3.28791,-0.00647419,0.34153,0.87096
1545,240,3.28802,-0.0055772,0.341032,0.870352
1547,238,3.28853,-0.00472897,0.341084,0.869735
1549,236,3.2883,-0.00378077,0.341078,0.869056
1551,234,3.287738,-0.010681,0.341084,0.868678
1553,232,3.28677,-0.011916,0.341565,0.867721
1555,230,3.28852,-0.00626289,0.340161,0.866502
1557,228,3.28846,-0.00849142,0.340164,0.866568
1559,226,3.28753,-0.00913256,0.340653,0.86604
1561,224,3.28748,-0.00653387,0.340178,0.86529
1563,222,3.28894,-0.0040704,0.339269,0.864697
1565,220,3.28835,-0.00469677,0.339256,0.864264
1567,218,3.2875,-0.00437638,0.339751,0.863058
1569,216,3.28713,-0.0113189,0.339754,0.862662
1571,214,3.28683,-0.0119603,0.339746,0.86223
1573,212,3.28811,-0.00937989,0.338833,0.861685
1575,210,3.28745,-0.0106709,0.339327,0.860734
1577,208,3.2871,-0.00811972,0.338835,0.859913
1579,206,3.28913,-0.00245469,0.336951,0.859015
1581,204,3.2885,-0.00475319,0.337434,0.858709
1583,202,3.28759,-0.00543492,0.337926,0.858156
1585,200,3.28708,-0.00499299,0.338013,0.857139
1587,198,3.28674,-0.0119909,0.337932,0.856705
1589,196,3.28837,-0.0063494,0.33655,0.855484
1591,194,3.28805,-0.00692802,0.336546,0.855328
1593,192,3.28743,-0.00912933,0.337021,0.855062
1595,190,3.28709,-0.00813638,0.335933,0.854499
1597,188,3.28765,-0.00630396,0.336592,0.853248
1599,186,3.28743,-0.00696082,0.336577,0.852787
1601,184,3.28705,-0.0044197,0.336086,0.851944
1603,182,3.28662,-0.0114344,0.336783,0.851525
1605,180,3.28814,-0.00792405,0.335295,0.850349
1607,178,3.28787,-0.00849108,0.335229,0.850012
1609,176,3.28741,-0.00910005,0.335231,0.849628
1611,174,3.287,-0.00971158,0.335228,0.849215
1613,172,3.28787,-0.00622831,0.334811,0.847846
1615,170,3.28753,-0.00692879,0.334795,0.847587
1617,168,3.28694,-0.0059926,0.334771,0.846605
1619,166,3.2868,-0.00971677,0.333808,0.845932
1621,164,3.28834,-0.00722339,0.332909,0.845335
1623,162,3.28798,-0.00792455,0.332899,0.844866
1625,160,3.28706,-0.00919618,0.333378,0.843914
1627,158,3.28657,-0.00986362,0.333384,0.843492
1629,156,3.28729,-0.00800374,0.333458,0.842268
1631,154,3.28761,-0.00529717,0.332501,0.841671
1633,152,3.28718,-0.00432975,0.332514,0.841014
1635,150,3.28719,-0.0112826,0.332029,0.840757
1637,148,3.28885,-0.00706869,0.330646,0.840063
1639,146,3.28783,-0.0100469,0.331612,0.839227
1641,144,3.28711,-0.00433568,0.33209,0.838655
1643,142,3.28601,-0.0113716,0.332566,0.838134
1645,140,3.28765,-0.0062524,0.331188,0.836695
1647,138,3.28777,-0.00368829,0.330213,0.835947
1649,136,3.28747,-0.00436363,0.33021,0.835492
1651,134,3.28696,-0.00500156,0.330208,0.83509
1653,132,3.28764,-0.00410089,0.330285,0.834552
1655,130,3.28717,-0.00533138,0.330781,0.833666
1657,128,3.28646,-0.0107794,0.330861,0.833019
1659,126,3.28655,-0.00808364,0.329831,0.832353
1661,124,3.28828,-0.00555834,0.328928,0.831764
1663,122,3.28779,-0.00619842,0.328937,0.831367
1665,120,3.28674,-0.00909351,0.329894,0.830556
1667,118,3.28595,-0.00981725,0.330379,0.83
1669,116,3.28765,-0.00554707,0.329004,0.829309
1671,114,3.28704,-0.00460081,0.328997,0.828613
1673,112,3.28639,-0.0107763,0.328995,0.827472
1675,110,3.28606,-0.0114091,0.328998,0.827064
1677,108,3.28572,-0.010402,0.328507,0.826478
1679,106,3.28739,-0.00624395,0.32715,0.825735
1681,104,3.28659,-0.00539704,0.327123,0.824944
1683,102,3.28601,-0.00508549,0.327138,0.823852
1685,100,3.28742,-0.0023769,0.326239,0.823343
1687,98,3.28695,-0.00953276,0.326254,0.82294
1689,96,3.28625,-0.00914517,0.325581,0.821843
1691,94,3.28571,-0.00983259,0.326234,0.82138
1693,92,3.28693,-0.00884288,0.325834,0.821025
1695,90,3.28692,-0.00790992,0.325361,0.820436
1697,88,3.28665,-0.00532479,0.324876,0.819554
1699,86,3.28641,-0.00430216,0.324399,0.818977
1701,84,3.28738,-0.00244289,0.323992,0.817835
1703,82,3.28618,-0.00482662,0.324944,0.817412
1705,80,3.28641,-0.0100803,0.323984,0.817095
1707,78,3.2856,-0.00833791,0.323989,0.81558
1709,76,3.28657,-0.00894843,0.324059,0.815402
1711,74,3.28681,-0.00624407,0.323112,0.814721
1713,72,3.28609,-0.00599087,0.32311,0.813545
1715,70,3.28583,-0.00656795,0.323107,0.81318
1717,68,3.28604,-0.00896037,0.322369,0.812279
1719,66,3.28604,-0.00857713,0.321749,0.811277
1721,64,3.28586,-0.0075997,0.321273,0.810684
1723,62,3.28475,-0.00733941,0.321748,0.809438
1725,60,3.2862,-0.00468203,0.320865,0.80891
1727,58,3.28606,-0.00373445,0.321067,0.808301
1729,56,3.28546,-0.0108399,0.320395,0.807911
1731,54,3.2845,-0.0116037,0.321545,0.80733
1733,52,3.28582,-0.00801939,0.320009,0.806111
1735,50,3.28546,-0.00870983,0.320024,0.805706
1737,48,3.2852,-0.00768127,0.319544,0.805116
1739,46,3.28479,-0.00566772,0.319067,0.803843
1741,44,3.28622,-0.00304529,0.318201,0.803311
1743,42,3.28583,-0.00369685,0.318178,0.802868
1745,40,3.28516,-0.0107772,0.318185,0.802504
1747,38,3.28394,-0.0105809,0.318661,0.801213
1749,36,3.28525,-0.00959326,0.318252,0.800854
1751,34,3.28496,-0.00858751,0.317771,0.800244
1753,32,3.28467,-0.00755162,0.31731,0.799698
1755,30,3.28389,-0.00724024,0.317304,0.798551
1757,28,3.28535,-0.0046746,0.316434,0.797969
1759,26,3.28525,-0.00370474,0.315964,0.797366
1761,24,3.28414,-0.0114933,0.316448,0.796473
1763,22,3.28361,-0.0121057,0.316447,0.79609
1765,20,3.28481,-0.00965631,0.316061,0.795371
1767,18,3.28454,-0.00860348,0.315591,0.794817
1769,16,3.28386,-0.00825668,0.316255,0.793679
1771,14,3.28328,-0.00893473,0.315586,0.793268
1773,12,3.28502,-0.00474338,0.314263,0.792501
1775,10,3.28469,-0.00363545,0.313794,0.791974
1777,8,3.28364,-0.0044156,0.314265,0.791392
1779,6,3.28294,-0.0121709,0.314261,0.790599
1781,4,3.28412,-0.0080021,0.312824,0.789725
1782,3,3.28409,-0.00700579,0.312943,0.789129