File: hust_correlation_analysis/matrices/HUST_6-3_cycle_feature_matrix.csv
cycle_number,rul,voltage,current,capacity,charge_capacity
1,1806,3.32349,0.0288637,0.271273,1.02902
3,1804,3.30392,-0.0128909,0.288206,0.996119
5,1802,3.30507,-0.0166979,0.288815,0.999425
7,1800,3.30841,-0.013151,0.286585,1.00236
9,1798,3.30865,-0.0144965,0.286673,1.00461
11,1796,3.30875,-0.0157164,0.28633,1.00666
13,1794,3.30989,-0.0190012,0.286074,1.00851
15,1792,3.31109,-0.0169277,0.284777,1.01048
17,1790,3.31085,-0.0187632,0.284886,1.01192
19,1788,3.31269,-0.016712,0.283609,1.01365
21,1786,3.31415,-0.01602,0.282766,1.01448
23,1784,3.3132,-0.0179251,0.283311,1.0159
25,1782,3.31436,-0.0129959,0.281863,1.0159
27,1780,3.31384,-0.0178439,0.282479,1.01643
29,1778,3.31343,-0.0171894,0.282056,1.01699
31,1776,3.3147,-0.0169679,0.281221,1.01754
33,1774,3.31583,-0.0163637,0.280808,1.01807
35,1772,3.31606,-0.01574,0.280398,1.01863
37,1770,3.31549,-0.0164705,0.28081,1.01803
39,1768,3.3156,-0.0158304,0.280397,1.01859
41,1766,3.31672,-0.01574,0.279986,1.01888
43,1764,3.31774,-0.0150471,0.279577,1.01945
45,1762,3.31754,-0.0149025,0.279167,1.01975
47,1760,3.31638,-0.0158596,0.280342,1.01881
49,1758,3.31673,-0.0157462,0.279575,1.01909
51,1756,3.31729,-0.0156783,0.279166,1.01936
53,1754,3.31751,-0.0151709,0.279522,1.01963
55,1752,3.31776,-0.0155998,0.279161,1.0194
57,1750,3.31684,-0.0163608,0.279164,1.01902
59,1748,3.31709,-0.016394,0.279163,1.01901
61,1746,3.3172,-0.0163504,0.279163,1.01904
63,1744,3.31686,-0.0168956,0.279163,1.01876
65,1742,3.31655,-0.0170381,0.279161,1.01868
67,1740,3.3165,-0.0170045,0.279517,1.0187
69,1738,3.31724,-0.0169734,0.278754,1.01894
71,1736,3.31655,-0.0170819,0.27916,1.01867
73,1734,3.3169,-0.0175695,0.278753,1.01865
75,1732,3.31633,-0.0176216,0.279159,1.01839
77,1730,3.31797,-0.015094,0.27779,1.01779
79,1728,3.31785,-0.0146242,0.277789,1.01802
81,1726,3.31819,-0.0156819,0.277385,1.01774
83,1724,3.31808,-0.016412,0.277792,1.01714
85,1722,3.31868,-0.0163281,0.277386,1.01721
87,1720,3.31883,-0.0161774,0.276979,1.01772
89,1718,3.31747,-0.0169778,0.277789,1.01685
91,1716,3.31745,-0.0170225,0.277785,1.01682
93,1714,3.31761,-0.0169979,0.277785,1.01684
95,1712,3.31733,-0.0177183,0.278545,1.01625
97,1710,3.31746,-0.0176112,0.277786,1.01652
99,1708,3.31711,-0.0176752,0.27819,1.01627
101,1706,3.31893,-0.0152672,0.276822,1.01561
103,1704,3.31923,-0.0150328,0.276417,1.01595
105,1702,3.31894,-0.0157402,0.276825,1.01539
107,1700,3.31812,-0.0164852,0.277229,1.01478
109,1698,3.31816,-0.016397,0.276821,1.01505
111,1696,3.31821,-0.0164458,0.276822,1.01502
113,1694,3.31828,-0.0163448,0.276818,1.01507
115,1692,3.31827,-0.0170006,0.277222,1.0145
117,1690,3.31778,-0.0170438,0.277226,1.01449
119,1688,3.31747,-0.0171655,0.277222,1.01441
121,1686,3.31716,-0.0176991,0.277224,1.01416
123,1684,3.31778,-0.0176717,0.277224,1.01417
125,1682,3.31931,-0.0145367,0.276256,1.01363
127,1680,3.31872,-0.0152072,0.276259,1.01329
129,1678,3.31853,-0.0152703,0.27626,1.01327
131,1676,3.31899,-0.0158479,0.276258,1.01298
133,1674,3.31914,-0.0157784,0.27626,1.01301
135,1672,3.31914,-0.0164828,0.27626,1.01267
137,1670,3.31791,-0.0165869,0.276666,1.01238
139,1668,3.31864,-0.0164525,0.276256,1.01268
141,1666,3.31877,-0.0163966,0.276256,1.0127
143,1664,3.31841,-0.0170237,0.276665,1.01216
145,1662,3.31768,-0.0171071,0.276663,1.0121
147,1660,3.31685,-0.0178517,0.277067,1.01148
149,1658,3.31723,-0.0178614,0.27707,1.0115
151,1656,3.31765,-0.0178086,0.276994,1.01154
153,1654,3.3191,-0.0146367,0.275698,1.01125
155,1652,3.31923,-0.0152131,0.275697,1.01094
157,1650,3.31886,-0.0152561,0.275697,1.01092
159,1648,3.31903,-0.01585,0.275698,1.01064
161,1646,3.31863,-0.0159382,0.276106,1.01037
163,1644,3.31851,-0.01651,0.276106,1.01008
165,1642,3.31818,-0.0166936,0.276519,1.01001
167,1640,3.31811,-0.0165431,0.27595,1.01007
169,1638,3.31837,-0.017161,0.276202,1.00975
171,1636,3.31776,-0.0172597,0.276516,1.00948
173,1634,3.31795,-0.0171277,0.276105,1.00978
175,1632,3.31783,-0.0172459,0.276514,1.00947
177,1630,3.31767,-0.0178823,0.276517,1.00924
179,1628,3.31711,-0.0179028,0.276927,1.00893
181,1626,3.31888,-0.0148286,0.275546,1.00857
183,1624,3.31952,-0.0151468,0.275137,1.00865
185,1622,3.31881,-0.0153948,0.275547,1.00829
187,1620,3.31898,-0.0152345,0.275548,1.00838
189,1618,3.31934,-0.0159798,0.275545,1.00799
191,1616,3.31893,-0.0158969,0.275643,1.00803
193,1614,3.3184,-0.015962,0.275957,1.00778
195,1612,3.31827,-0.0166718,0.275957,1.00743
197,1610,3.31787,-0.016672,0.275959,1.00743
199,1608,3.31831,-0.0166655,0.275957,1.00769
201,1606,3.31805,-0.0176293,0.27637,1.00674
203,1604,3.31725,-0.0173844,0.27637,1.00685
205,1602,3.31699,-0.0173515,0.27637,1.00686
207,1600,3.3178,-0.0172733,0.276312,1.00714
209,1598,3.31791,-0.0178854,0.27637,1.0066
211,1596,3.31698,-0.0179917,0.27678,1.00631
213,1594,3.31639,-0.0180649,0.276998,1.00627
215,1592,3.31904,-0.014738,0.274985,1.00626
217,1590,3.31868,-0.0154144,0.2754,1.00572
219,1588,3.319,-0.0153993,0.2754,1.00571
221,1586,3.31839,-0.015358,0.2754,1.00573
223,1584,3.31803,-0.0161362,0.275812,1.00511
225,1582,3.31798,-0.0161619,0.275812,1.00511
227,1580,3.31783,-0.0161017,0.275811,1.00514
229,1578,3.31796,-0.0160285,0.275812,1.00518
231,1576,3.3178,-0.0166774,0.275813,1.00485
233,1574,3.31765,-0.0168029,0.275812,1.00478
235,1572,3.31698,-0.0174641,0.276225,1.00424
237,1570,3.31769,-0.0173915,0.275811,1.00451
239,1568,3.31768,-0.0173521,0.27581,1.00452
241,1566,3.31708,-0.0174706,0.276226,1.00423
243,1564,3.31665,-0.0181269,0.276739,1.00368
245,1562,3.31631,-0.0181181,0.276639,1.00227
247,1560,3.31644,-0.0181011,0.276636,1.00367
249,1558,3.31651,-0.0181031,0.276851,1.00366
251,1556,3.31604,-0.018232,0.277051,1.00337
253,1554,3.31614,-0.0181088,0.276634,1.00366
255,1552,3.31548,-0.0181265,0.277468,1.00317
257,1550,3.31749,-0.0147815,0.275662,1.00315
259,1548,3.31526,-0.0180234,0.27746,1.0032
261,1546,3.31635,-0.0150466,0.276492,1.00253
263,1544,3.31661,-0.0154898,0.276487,1.00232
265,1542,3.31633,-0.0162821,0.276494,1.00194
267,1540,3.31643,-0.0162838,0.276492,1.00194
269,1538,3.31648,-0.0162592,0.276492,1.00196
271,1536,3.31653,-0.0162469,0.27649,1.00058
273,1534,3.31631,-0.0162539,0.276489,1.00195
275,1532,3.31567,-0.0171053,0.276909,1.00129
277,1530,3.31569,-0.016912,0.276489,1.00162
279,1528,3.31631,-0.0169388,0.276488,1.00162
281,1526,3.31636,-0.0168629,0.276975,1.00167
283,1524,3.31529,-0.0176466,0.276912,1.00105
285,1522,3.31573,-0.0182962,0.276493,1.00096
287,1520,3.31478,-0.0184272,0.27691,1.00067
289,1518,3.3157,-0.0181774,0.276072,1.00126
291,1516,3.3161,-0.0181231,0.276074,1.00128
293,1514,3.3178,-0.0156977,0.275516,1.00012
295,1512,3.31749,-0.0156023,0.275096,1.00039
297,1510,3.31662,-0.0156833,0.275515,1.00011
299,1508,3.31666,-0.0163336,0.275516,0.999805
301,1506,3.31683,-0.0163502,0.275516,0.999802
303,1504,3.31737,-0.0163086,0.275514,0.999815
305,1502,3.31699,-0.0162403,0.275513,0.999839
307,1500,3.3169,-0.0169249,0.275515,0.999512
309,1498,3.31568,-0.0171006,0.275935,0.999192
311,1496,3.31582,-0.0177622,0.275937,0.99889
313,1494,3.31665,-0.0176656,0.275514,0.999163
315,1492,3.3172,-0.0176462,0.275519,0.999187
317,1490,3.31727,-0.0175135,0.275098,0.999475
319,1488,3.31518,-0.0184145,0.276352,0.998326
321,1486,3.31588,-0.0183587,0.275931,0.998584
323,1484,3.31569,-0.0184089,0.275933,0.998559
325,1482,3.31582,-0.0183364,0.275931,0.998591
327,1480,3.31721,-0.015072,0.274951,0.998051
329,1478,3.31779,-0.0155806,0.274885,0.998039
331,1476,3.31662,-0.0158386,0.275371,0.997437
333,1474,3.31714,-0.0157403,0.275169,0.997496
335,1472,3.31766,-0.0163379,0.274536,0.997684
337,1470,3.31641,-0.0165099,0.275377,0.997123
339,1468,3.31689,-0.0164418,0.274957,0.997407
341,1466,3.31667,-0.016944,0.274955,0.997155
343,1464,3.31628,-0.0171373,0.275378,0.995471
345,1462,3.31666,-0.0170727,0.27544,0.997083
347,1460,3.31701,-0.0170544,0.274957,0.997115
349,1458,3.31668,-0.0170233,0.274955,0.997113
351,1456,3.3162,-0.017693,0.275374,0.996562
353,1454,3.31599,-0.0177825,0.27537,0.996495
355,1452,3.31556,-0.0177444,0.275373,0.996521
357,1450,3.31581,-0.0177391,0.27537,0.996528
359,1448,3.31575,-0.0184856,0.275792,0.995924
361,1446,3.3161,-0.0184269,0.275372,0.996192
363,1444,3.3179,-0.0156874,0.273976,0.995637
365,1442,3.317,-0.0158842,0.274396,0.995296
367,1440,3.31688,-0.0158103,0.274884,0.995358
369,1438,3.31786,-0.0163773,0.273979,0.995146
371,1436,3.31801,-0.0163498,0.273976,0.995321
373,1434,3.31747,-0.0164839,0.274398,0.995025
375,1432,3.31694,-0.0163474,0.274397,0.995091
377,1430,3.31599,-0.0165622,0.274819,0.994755
379,1428,3.31644,-0.0171474,0.274817,0.994464
381,1426,3.31652,-0.0171642,0.274815,0.994711
383,1424,3.31662,-0.0171555,0.274817,0.994463
385,1422,3.31621,-0.0171699,0.274796,0.99446
387,1420,3.31666,-0.0178651,0.27482,0.994136
389,1418,3.31542,-0.0179299,0.275242,0.993863
391,1416,3.31604,-0.0184561,0.274818,0.993843
393,1414,3.31643,-0.0185179,0.274817,0.99381
395,1412,3.31655,-0.0184942,0.274818,0.993824
397,1410,3.31612,-0.0184393,0.274818,0.993855
399,1408,3.31734,-0.0152085,0.27384,0.993287
401,1406,3.3175,-0.015837,0.273839,0.992985
403,1404,3.31679,-0.0159205,0.274261,0.992699
405,1402,3.31831,-0.0157877,0.273417,0.993244
407,1400,3.31745,-0.0158164,0.273839,0.992984
409,1398,3.31687,-0.0165648,0.27426,0.992636
411,1396,3.31637,-0.0166956,0.274259,0.992331
413,1394,3.31701,-0.0165274,0.273838,0.992645
415,1392,3.31727,-0.016552,0.27384,0.99266
417,1390,3.31777,-0.0170819,0.273839,0.992392
419,1388,3.31701,-0.0172129,0.274477,0.992099
421,1386,3.31657,-0.017219,0.274259,0.992095
423,1384,3.31674,-0.0179356,0.274745,0.991743
425,1382,3.3157,-0.0179036,0.274683,0.991525
427,1380,3.3162,-0.0179159,0.27426,0.991747
429,1378,3.31623,-0.017842,0.274352,0.990371
431,1376,3.31656,-0.0177943,0.274258,0.991799
433,1374,3.31605,-0.0185889,0.27468,0.991193
435,1372,3.31526,-0.0187386,0.275106,0.990873
437,1370,3.31518,-0.0186412,0.274681,0.991155
439,1368,3.3175,-0.0152969,0.273277,0.990867
441,1366,3.31759,-0.0158954,0.273279,0.990591
443,1364,3.31717,-0.015927,0.274056,0.990348
445,1362,3.3176,-0.01589,0.273281,0.990616
447,1360,3.31712,-0.0166306,0.273702,0.990005
449,1358,3.31718,-0.0166752,0.273704,0.99
451,1356,3.317,-0.016593,0.273707,0.990057
453,1354,3.31749,-0.01654,0.273281,0.990298
455,1352,3.3167,-0.017233,0.273703,0.989729
457,1350,3.31619,-0.0173359,0.274127,0.989449
459,1348,3.31589,-0.0173615,0.274127,0.989434
461,1346,3.31673,-0.017284,0.2737,0.989687
463,1344,3.31604,-0.0179968,0.274218,0.989122
465,1342,3.31666,-0.0178274,0.273389,0.989431
467,1340,3.3165,-0.0180019,0.274131,0.989127
469,1338,3.31642,-0.0186516,0.27434,0.98882
471,1336,3.31517,-0.0187938,0.274555,0.988523
473,1334,3.31557,-0.0187122,0.274132,0.988799
475,1332,3.31731,-0.0157312,0.273344,0.988091
477,1330,3.31576,-0.0192432,0.274127,0.988538
479,1328,3.3177,-0.016017,0.273141,0.987933
481,1326,3.3179,-0.0160269,0.272811,0.988161
483,1324,3.3169,-0.0159325,0.27314,0.987952
485,1322,3.3167,-0.0160063,0.273627,0.987919
487,1320,3.31704,-0.0166293,0.273141,0.987629
489,1318,3.31643,-0.0167027,0.273567,0.987369
491,1316,3.31644,-0.0166713,0.273565,0.987368
493,1314,3.31608,-0.0167012,0.273567,0.987364
495,1312,3.31613,-0.0167769,0.273567,0.987335
497,1310,3.31604,-0.0173767,0.273567,0.987035
499,1308,3.31622,-0.0174036,0.273566,0.987026
501,1306,3.31604,-0.0173595,0.273566,0.98705
503,1304,3.31647,-0.0173335,0.273567,0.98706
505,1302,3.31554,-0.0181638,0.273993,0.986424
507,1300,3.31501,-0.018156,0.274481,0.986437
509,1298,3.31417,-0.0183054,0.274419,0.985913
511,1296,3.31505,-0.0181895,0.273989,0.986414
513,1294,3.31543,-0.0188303,0.273988,0.986097
515,1292,3.31562,-0.0187391,0.273989,0.986148
517,1290,3.3153,-0.018764,0.273988,0.986123
519,1288,3.31506,-0.0187908,0.273987,0.985942
521,1286,3.31663,-0.0161992,0.273006,0.98522
523,1284,3.31657,-0.0161565,0.273009,0.985252
525,1282,3.31687,-0.0160352,0.272582,0.985543
527,1280,3.31652,-0.0167921,0.273104,0.98496
529,1278,3.31666,-0.0167385,0.273498,0.984963
531,1276,3.31629,-0.0167266,0.273007,0.984983
533,1274,3.31583,-0.0175688,0.273434,0.984337
535,1272,3.31582,-0.0173414,0.273006,0.984688
537,1270,3.31572,-0.0175793,0.273435,0.984339
539,1268,3.31636,-0.0173848,0.273004,0.984654
541,1266,3.31602,-0.0175703,0.273432,0.984336
543,1264,3.31539,-0.0181705,0.273435,0.984058
545,1262,3.3149,-0.0183412,0.273861,0.983726
547,1260,3.31438,-0.0183629,0.273862,0.983724
549,1258,3.3146,-0.0189482,0.273863,0.983459
551,1256,3.31535,-0.0188949,0.273434,0.983722
553,1254,3.31788,-0.015444,0.272018,0.983457
555,1252,3.31674,-0.0161434,0.272449,0.982888
557,1250,3.31676,-0.0161647,0.272449,0.982876
559,1248,3.31632,-0.0162243,0.272446,0.982832
561,1246,3.31618,-0.0169859,0.272873,0.982235
563,1244,3.31688,-0.0168379,0.272445,0.982543
565,1242,3.31695,-0.0167859,0.272443,0.982561
567,1240,3.31581,-0.0168941,0.272875,0.98227
569,1238,3.31594,-0.0168162,0.272441,0.982541
571,1236,3.31493,-0.0178786,0.273298,0.981557
573,1234,3.31541,-0.0176213,0.272871,0.981898
575,1232,3.31628,-0.0176123,0.272443,0.982173
577,1230,3.31591,-0.0182936,0.272874,0.981623
579,1228,3.31577,-0.0182724,0.272876,0.981635
581,1226,3.31533,-0.0190158,0.273307,0.981055
583,1224,3.31518,-0.0188564,0.272873,0.981356
585,1222,3.31475,-0.0190071,0.273302,0.981045
587,1220,3.31461,-0.0191312,0.273303,0.980981
589,1218,3.31651,-0.0162334,0.271883,0.980443
591,1216,3.31688,-0.0161979,0.271881,0.98045
593,1214,3.31691,-0.0162413,0.271881,0.980431
595,1212,3.31653,-0.0162308,0.271879,0.980432
597,1210,3.31547,-0.0171027,0.272744,0.979544
599,1208,3.31583,-0.017033,0.272311,0.979813
601,1206,3.31633,-0.0169542,0.272527,0.979876
603,1204,3.31645,-0.0169485,0.272315,0.979878
605,1202,3.3154,-0.0176091,0.272746,0.979325
607,1200,3.31588,-0.017654,0.272315,0.979545
609,1198,3.31516,-0.0184203,0.272749,0.978949
611,1196,3.31455,-0.0184648,0.273179,0.978695
613,1194,3.31498,-0.0183732,0.272746,0.978973
615,1192,3.31519,-0.0190681,0.272744,0.97864
617,1190,3.31457,-0.0191221,0.273098,0.978378
619,1188,3.31512,-0.0190508,0.272837,0.978654
621,1186,3.31621,-0.0158509,0.271755,0.978012
623,1184,3.31616,-0.0163948,0.271758,0.977762
625,1182,3.31671,-0.0163721,0.271755,0.977757
627,1180,3.31642,-0.0163989,0.27176,0.977766
629,1178,3.31627,-0.0169475,0.271763,0.977517
631,1176,3.31556,-0.0170712,0.272192,0.977215
633,1174,3.31579,-0.0169427,0.271759,0.977516
635,1172,3.31577,-0.0174119,0.272194,0.977062
637,1170,3.31442,-0.0178581,0.272624,0.976613
639,1168,3.31476,-0.0178073,0.272191,0.976873
641,1166,3.31619,-0.0129012,0.271092,0.976449
643,1164,3.31569,-0.0184718,0.272194,0.976563
645,1162,3.3153,-0.0183845,0.272189,0.976639
647,1160,3.31593,-0.0140164,0.271528,0.975696
649,1158,3.31498,-0.0135501,0.271525,0.975904
651,1156,3.3156,-0.0144058,0.27174,0.975514
653,1154,3.31634,-0.0160717,0.271205,0.975556
655,1152,3.3152,-0.0142828,0.27127,0.975569
657,1150,3.31469,-0.0150453,0.271963,0.974976
659,1148,3.31501,-0.0149966,0.271528,0.97523
661,1146,3.31604,-0.0123151,0.270536,0.974325
663,1144,3.31598,-0.0121975,0.270532,0.974378
665,1142,3.3159,-0.0122536,0.270531,0.974358
667,1140,3.31644,-0.0122864,0.270532,0.974347
669,1138,3.31689,-0.0121468,0.270094,0.974638
671,1136,3.3163,-0.0128999,0.270532,0.974053
673,1134,3.31572,-0.0133381,0.270967,0.973611
675,1132,3.31458,-0.018298,0.272069,0.974021
677,1130,3.31558,-0.0136069,0.270963,0.973469
679,1128,3.31524,-0.0137382,0.27096,0.973406
681,1126,3.31474,-0.0192343,0.272067,0.973591
683,1124,3.3138,-0.0196703,0.272504,0.973149
685,1122,3.31579,-0.0165679,0.271077,0.972685
687,1120,3.31469,-0.0166628,0.271866,0.972376
689,1118,3.31546,-0.0165096,0.271072,0.972695
691,1116,3.31514,-0.0166109,0.271074,0.972642
693,1114,3.31493,-0.0153498,0.270491,0.97266
695,1112,3.31624,-0.0123624,0.270397,0.971647
697,1110,3.31468,-0.0180374,0.271507,0.97175
699,1108,3.31467,-0.0180458,0.271509,0.971743
701,1106,3.31457,-0.0181195,0.271506,0.970226
703,1104,3.315,-0.017942,0.271279,0.972017
705,1102,3.31493,-0.0186468,0.271506,0.971456
707,1100,3.3141,-0.0187641,0.271944,0.971154
709,1098,3.31407,-0.0194175,0.271942,0.970852
711,1096,3.31363,-0.0195407,0.271942,0.970788
713,1094,3.31286,-0.0195018,0.272383,0.970829
715,1092,3.31535,-0.0159076,0.270511,0.970558
717,1090,3.31539,-0.01673,0.27095,0.969953
719,1088,3.3149,-0.0166594,0.270953,0.96999
721,1086,3.31531,-0.0173821,0.27095,0.969638
723,1084,3.3152,-0.017203,0.270511,0.969968
725,1082,3.31459,-0.0173755,0.270945,0.969631
727,1080,3.31389,-0.0181121,0.271386,0.969058
729,1078,3.31434,-0.0180962,0.270945,0.969306
731,1076,3.31459,-0.0180376,0.270945,0.96934
733,1074,3.31531,-0.0181071,0.270943,0.969293
735,1072,3.31424,-0.0187852,0.271385,0.968761
737,1070,3.31398,-0.0188872,0.271386,0.968705
739,1068,3.31326,-0.0195482,0.271827,0.968169
741,1066,3.31327,-0.0199438,0.271828,0.967993
743,1064,3.31602,-0.0162543,0.269952,0.968016
745,1062,3.31445,-0.0149463,0.270711,0.967568
747,1060,3.31523,-0.0167199,0.270389,0.96756
749,1058,3.31495,-0.0173935,0.270599,0.967244
751,1056,3.31404,-0.0175208,0.270829,0.966935
753,1054,3.31433,-0.0179252,0.270831,0.966767
755,1052,3.31448,-0.0181403,0.270387,0.96689
757,1050,3.31443,-0.0180782,0.270386,0.966922
759,1048,3.31388,-0.0189773,0.271269,0.966035
761,1046,3.31392,-0.0188991,0.270828,0.966311
763,1044,3.31326,-0.019059,0.271269,0.965989
765,1042,3.31318,-0.0196505,0.271269,0.965726
767,1040,3.31299,-0.0196216,0.271263,0.965717
769,1038,3.3134,-0.0195683,0.270821,0.966215
771,1036,3.31303,-0.01955,0.271263,0.965742
773,1034,3.31554,-0.0168003,0.269822,0.965095
775,1032,3.3148,-0.0168586,0.270264,0.964815
777,1030,3.31408,-0.0168449,0.270265,0.964774
779,1028,3.31406,-0.0175653,0.270268,0.964496
781,1026,3.31486,-0.017404,0.269824,0.96481
783,1024,3.31485,-0.0182542,0.270265,0.964181
785,1022,3.31357,-0.0182834,0.270708,0.963933
787,1020,3.31315,-0.0190866,0.270708,0.963561
789,1018,3.31329,-0.0191016,0.271204,0.963558
791,1016,3.31309,-0.0191115,0.270708,0.963556
793,1014,3.31312,-0.0196905,0.270707,0.963295
795,1012,3.31325,-0.0195022,0.270797,0.962067
797,1010,3.31258,-0.0198158,0.271154,0.962994
799,1008,3.31429,-0.0168425,0.269712,0.962436
801,1006,3.31333,-0.0170299,0.270155,0.962102
803,1004,3.31373,-0.0176857,0.270154,0.961805
805,1002,3.31357,-0.0177106,0.270152,0.961792
807,1000,3.31369,-0.0176536,0.270159,0.961838
809,998,3.31386,-0.0180495,0.270156,0.961651
811,996,3.31344,-0.0184246,0.270155,0.961474
813,994,3.31276,-0.0191747,0.270599,0.960888
815,992,3.31242,-0.019199,0.270602,0.96107
817,990,3.31271,-0.0191389,0.270151,0.961137
819,988,3.31344,-0.0197499,0.27015,0.960858
821,986,3.31254,-0.0198191,0.270598,0.96059
823,984,3.31498,-0.0169333,0.269151,0.959967
825,982,3.31365,-0.0170043,0.269683,0.959691
827,980,3.31376,-0.0171413,0.269593,0.959622
829,978,3.31344,-0.0177462,0.269593,0.959364
831,976,3.31395,-0.0177882,0.269596,0.959348
833,974,3.31416,-0.01754,0.269147,0.959938
835,972,3.3137,-0.018397,0.269597,0.95907
837,970,3.31316,-0.0184301,0.269594,0.95904
839,968,3.31267,-0.0193768,0.270042,0.958371
841,966,3.3127,-0.019289,0.27004,0.958413
843,964,3.31328,-0.0191706,0.26959,0.958697
845,962,3.31298,-0.0192708,0.270247,0.958416
847,960,3.31172,-0.0200681,0.270486,0.957794
849,958,3.31154,-0.0200466,0.270485,0.957808
851,956,3.31406,-0.0171086,0.269032,0.957206
853,954,3.31374,-0.0171738,0.269033,0.957177
855,952,3.31311,-0.0179302,0.269484,0.95662
857,950,3.31346,-0.0178903,0.269484,0.956629
859,948,3.3147,-0.0131353,0.268344,0.956038
861,946,3.31326,-0.0186269,0.269485,0.956309
863,944,3.31255,-0.0193917,0.269932,0.955703
865,942,3.31216,-0.0194434,0.269932,0.95568
867,940,3.31254,-0.0193176,0.269481,0.955979
869,938,3.31215,-0.0201392,0.26993,0.955364
871,936,3.31248,-0.0201018,0.269929,0.955372
873,934,3.31414,-0.0171194,0.268471,0.954786
875,932,3.31354,-0.0172476,0.268923,0.954475
877,930,3.313,-0.0172822,0.268921,0.954467
879,928,3.31348,-0.0180633,0.268921,0.954117
881,926,3.31359,-0.0179458,0.268922,0.954175
883,924,3.31259,-0.0188014,0.269374,0.953551
885,922,3.31312,-0.0186747,0.268924,0.953856
887,920,3.31172,-0.0196464,0.269827,0.952933
889,918,3.31205,-0.019456,0.269587,0.953264
891,916,3.31227,-0.0202084,0.269076,0.952919
893,914,3.31263,-0.0201602,0.269377,0.952957
895,912,3.31405,-0.0172771,0.268369,0.952068
897,910,3.31336,-0.017268,0.268366,0.952065
899,908,3.31328,-0.0173325,0.268364,0.950521
901,906,3.31253,-0.0181518,0.269024,0.95141
903,904,3.31326,-0.0180433,0.268364,0.951712
905,902,3.31284,-0.0188699,0.268816,0.951092
907,900,3.3126,-0.0187788,0.268814,0.951126
909,898,3.31235,-0.0187724,0.268757,0.951142
911,896,3.31168,-0.0196256,0.269269,0.950514
913,894,3.311,-0.0204572,0.269814,0.949908
915,892,3.31145,-0.0203083,0.26927,0.950204
917,890,3.31357,-0.0166241,0.26781,0.949928
919,888,3.31324,-0.0175127,0.268263,0.949285
921,886,3.3128,-0.0173853,0.268263,0.949336
923,884,3.31293,-0.0181468,0.268262,0.949003
925,882,3.31202,-0.0183016,0.268715,0.948676
927,880,3.3108,-0.0190566,0.269175,0.948103
929,878,3.31171,-0.018979,0.268715,0.948369
931,876,3.31167,-0.0189055,0.268717,0.948419
933,874,3.31196,-0.0197812,0.268716,0.948024
935,872,3.31105,-0.0195697,0.268712,0.948351
937,870,3.31053,-0.0204972,0.269169,0.947456
939,868,3.3105,-0.0205497,0.269172,0.946125
941,866,3.31176,-0.0175881,0.268159,0.946554
943,864,3.31259,-0.0174458,0.267699,0.946856
945,862,3.31188,-0.0182013,0.268158,0.946285
947,860,3.31198,-0.0182356,0.26837,0.946282
949,858,3.31166,-0.0189308,0.268156,0.945954
951,856,3.31162,-0.0190084,0.268154,0.945912
953,854,3.31031,-0.0199733,0.269078,0.945011
955,852,3.31052,-0.0197662,0.268618,0.945349
957,850,3.31073,-0.0198536,0.268615,0.945307
959,848,3.31045,-0.0205246,0.268614,0.945008
961,846,3.31289,-0.0168051,0.267143,0.944704
963,844,3.3125,-0.0175913,0.267601,0.944118
965,842,3.31261,-0.0175313,0.267141,0.944384
967,840,3.311,-0.0184553,0.268059,0.943468
969,838,3.3109,-0.0184252,0.268058,0.943489
971,836,3.31175,-0.0184455,0.267598,0.943735
973,834,3.31056,-0.0190874,0.268145,0.943206
975,832,3.31119,-0.0192187,0.26806,0.943161
977,830,3.3104,-0.0200012,0.268523,0.942567
979,828,3.31031,-0.0198481,0.267724,0.942872
981,826,3.30906,-0.0211874,0.268985,0.941791
983,824,3.31092,-0.0170745,0.267505,0.941646
985,822,3.31132,-0.0178386,0.267508,0.941326
987,820,3.31117,-0.0176852,0.267041,0.941624
989,818,3.31122,-0.0184292,0.267502,0.941043
991,816,3.31077,-0.0183903,0.267505,0.941064
993,814,3.31039,-0.0194023,0.267967,0.940383
995,812,3.31062,-0.0192525,0.268005,0.940688
997,810,3.30948,-0.0202196,0.268431,0.939772
999,808,3.30912,-0.0202411,0.268431,0.939765
1001,806,3.30921,-0.0208969,0.268431,0.939482
1003,804,3.31118,-0.0151081,0.266786,0.939481
1005,802,3.31098,-0.0162231,0.267254,0.938758
1007,800,3.311784,-0.0182437,0.266951,0.938698
1009,798,3.31123,-0.0185226,0.266949,0.938576
1011,796,3.31092,-0.0186035,0.266947,0.938527
1013,794,3.3104,-0.0194051,0.26762,0.937933
1015,792,3.30982,-0.0194117,0.26741,0.937928
1017,790,3.30938,-0.0202548,0.267876,0.937314
1019,788,3.30954,-0.0201206,0.267408,0.937613
1021,786,3.30924,-0.020938,0.267874,0.937005
1023,784,3.3111,-0.017141,0.266386,0.936697
1025,782,3.31029,-0.0179746,0.266852,0.936094
1027,780,3.31081,-0.0179403,0.266386,0.936351
1029,778,3.30946,-0.0188735,0.267318,0.935442
1031,776,3.30964,-0.0187689,0.266853,0.935741
1033,774,3.31091,-0.0138697,0.26613,0.934854
1035,772,3.30981,-0.020302,0.267324,0.934863
1037,770,3.31111,-0.0145169,0.266131,0.934579
1039,768,3.30979,-0.0205984,0.267321,0.934716
1041,766,3.30906,-0.0210131,0.267323,0.934538
1043,764,3.31044,-0.0180568,0.266297,0.933611
1045,762,3.30987,-0.0180635,0.266297,0.933593
1047,760,3.30993,-0.0189135,0.266767,0.932986
1049,758,3.30923,-0.018892,0.266766,0.932992
1051,756,3.30921,-0.0196225,0.266763,0.932667
1053,754,3.30973,-0.0195746,0.266762,0.932683
1055,752,3.30949,-0.0196772,0.26676,0.93263
1057,750,3.30939,-0.0203825,0.266761,0.932336
1059,748,3.30861,-0.0211538,0.26723,0.931747
1061,746,3.30773,-0.0213608,0.267704,0.931409
1063,744,3.3099,-0.0182077,0.266209,0.930812
1065,742,3.30954,-0.0182368,0.266209,0.930792
1067,740,3.30983,-0.0190168,0.266412,0.930456
1069,738,3.30957,-0.0189183,0.266207,0.930506
1071,736,3.30932,-0.0198189,0.266682,0.92988
1073,734,3.3088,-0.0197836,0.26668,0.929886
1075,732,3.30815,-0.0204864,0.266888,0.929592
1077,730,3.30834,-0.020602,0.266289,0.929533
1079,728,3.30758,-0.0213102,0.267152,0.928984
1081,726,3.30879,-0.0183898,0.266127,0.928018
1083,724,3.30969,-0.0183079,0.265651,0.9283
1085,722,3.30911,-0.0190884,0.266126,0.927732
1087,720,3.30909,-0.0191741,0.26621,0.92769
1089,718,3.31045,-0.0140767,0.264921,0.925853
1091,716,3.30996,-0.014357,0.264917,0.926952
1093,714,3.30782,-0.02075,0.266606,0.926777
1095,712,3.3085,-0.015255,0.265391,0.926325
1097,710,3.30765,-0.0161423,0.26587,0.925688
1099,708,3.30782,-0.0161147,0.265868,0.925706
1101,706,3.30805,-0.0167363,0.265391,0.925695
1103,704,3.3105,-0.0136859,0.264359,0.924765
1105,702,3.30912,-0.0195544,0.265576,0.925067
1107,700,3.30822,-0.0204026,0.26605,0.924454
1109,698,3.30824,-0.0208509,0.266052,0.924257
1111,696,3.30762,-0.0208,0.266048,0.924283
1113,694,3.30695,-0.0215653,0.266048,0.92395
1115,692,3.30821,-0.0185977,0.265498,0.922739
1117,690,3.30775,-0.0186066,0.265499,0.922736
1119,688,3.30808,-0.0194337,0.265496,0.922388
1121,686,3.30916,-0.0138977,0.264629,0.921926
1123,684,3.30933,-0.0145978,0.264276,0.92164
1125,682,3.30933,-0.0146186,0.264273,0.92163
1127,680,3.30934,-0.0153125,0.264276,0.921336
1129,678,3.30818,-0.0154174,0.264754,0.92104
1131,676,3.30779,-0.0162241,0.264754,0.920688
1133,674,3.30698,-0.0170514,0.265234,0.92009
1135,672,3.30804,-0.0193903,0.264942,0.919919
1137,670,3.30739,-0.0195197,0.265506,0.919611
1139,668,3.30703,-0.0203113,0.264936,0.919257
1141,666,3.30764,-0.0202425,0.264937,0.919541
1143,664,3.30703,-0.0211093,0.26542,0.918935
1145,662,3.3066,-0.0210939,0.265419,0.918943
1147,660,3.30691,-0.0218221,0.265625,0.918625
1149,658,3.30833,-0.0187026,0.264385,0.917712
1151,656,3.30775,-0.018748,0.264384,0.917687
1153,654,3.30771,-0.0195366,0.264589,0.917364
1155,652,3.30642,-0.0205672,0.265357,0.916431
1157,650,3.30712,-0.0208575,0.26487,0.916556
1159,648,3.30674,-0.0208097,0.26487,0.916583
1161,646,3.30537,-0.0213123,0.265352,0.916107
1163,644,3.30548,-0.0220693,0.265352,0.914571
1165,642,3.30784,-0.0180446,0.263827,0.915493
1167,640,3.30797,-0.0187599,0.264031,0.915191
1169,638,3.30829,-0.0195973,0.263827,0.91484
1171,636,3.30665,-0.0205745,0.264798,0.913908
1173,634,3.30631,-0.0206373,0.264796,0.913887
1175,632,3.30582,-0.0213524,0.264796,0.913586
1177,630,3.30532,-0.0213778,0.264793,0.913561
1179,628,3.30464,-0.0222849,0.265282,0.912924
1181,626,3.30673,-0.0190162,0.263753,0.912297
1183,624,3.30676,-0.0190606,0.263831,0.910796
1185,622,3.30611,-0.0198957,0.264245,0.911695
1187,620,3.3074,-0.0205713,0.263757,0.911676
1189,618,3.30635,-0.0206955,0.264247,0.91138
1191,616,3.30606,-0.0214001,0.264246,0.911086
1193,614,3.30523,-0.0223423,0.264734,0.910429
1195,612,3.30725,-0.0190225,0.263205,0.908301
1197,610,3.30668,-0.0191004,0.263199,0.90978
1199,608,3.3064,-0.0199856,0.263691,0.909153
1201,606,3.30536,-0.0208511,0.264183,0.908536
1203,604,3.30571,-0.0208579,0.263691,0.908791
1205,602,3.30489,-0.0216874,0.264697,0.908188
1207,600,3.30428,-0.0216001,0.264179,0.908226
1209,598,3.30447,-0.0223996,0.264181,0.907898
1211,596,3.30671,-0.0192816,0.263138,0.906935
1213,594,3.30695,-0.0200125,0.263136,0.906623
1215,592,3.30617,-0.0200884,0.263652,0.90523
1217,590,3.30548,-0.0209224,0.26363,0.906005
1219,588,3.30428,-0.0218709,0.264126,0.905357
1221,586,3.30394,-0.0226588,0.264127,0.905031
1223,584,3.30634,-0.018604,0.262583,0.904699
1225,582,3.30623,-0.0193775,0.262587,0.904387
1227,580,3.30531,-0.0201803,0.263075,0.903784
1229,578,3.30535,-0.0202624,0.263078,0.903758
1231,576,3.30406,-0.0211657,0.263777,0.903123
1233,574,3.30395,-0.021958,0.263573,0.902801
1235,572,3.30469,-0.0218543,0.263073,0.902915
1237,570,3.30651,-0.0192827,0.262525,0.901634
1239,568,3.30668,-0.019381,0.262025,0.901855
1241,566,3.3052,-0.0203291,0.262523,0.901189
1243,564,3.30431,-0.0211929,0.26302,0.900586
1245,562,3.30373,-0.0220178,0.263021,0.900247
1247,560,3.30357,-0.0220735,0.262604,0.900223
1249,558,3.30321,-0.0230367,0.263519,0.89957
1251,556,3.30497,-0.0195591,0.261971,0.898989
1253,554,3.30426,-0.0205601,0.262468,0.898315
1255,552,3.30425,-0.0205295,0.262467,0.898329
1257,550,3.30361,-0.0213037,0.262468,0.898009
1259,548,3.30328,-0.0223337,0.262972,0.897343
1261,546,3.30358,-0.0230464,0.263047,0.897059
1263,544,3.30539,-0.0196513,0.261416,0.896417
1265,542,3.30479,-0.0206355,0.261919,0.89577
1267,540,3.30389,-0.0206159,0.261918,0.895774
1269,538,3.30449,-0.0213762,0.262273,0.895467
1271,536,3.30335,-0.0223465,0.26242,0.894812
1273,534,3.30178,-0.0233074,0.262929,0.894164
1275,532,3.30408,-0.0198809,0.261366,0.893518
1277,530,3.3034,-0.020806,0.261875,0.89289
1279,528,3.3031,-0.0186632,0.261364,0.892827
1281,526,3.30307,-0.028028,0.261367,0.892516
1283,524,3.30288,-0.0203364,0.261364,0.89215
1285,522,3.30131,-0.023409,0.262382,0.891596
1287,520,3.30418,-0.0264306,0.260308,0.890888
1289,518,3.30484,-0.0227961,0.259298,0.89047
1291,516,3.3039,-0.0255163,0.260304,0.890061
1293,514,3.30418,-0.019345,0.258792,0.889726
1295,512,3.30228,-0.0254646,0.260303,0.888876
1297,510,3.30505,-0.0190631,0.258238,0.888503
1299,508,3.30441,-0.0198726,0.258235,0.88818
1301,506,3.30393,-0.0209239,0.2583,0.887485
1303,504,3.30345,-0.0216455,0.258733,0.887192
1305,502,3.3023,-0.0203761,0.258735,0.886506
1307,500,3.30131,-0.0213294,0.259239,0.885861
1309,498,3.30374,-0.0265517,0.257671,0.885217
1311,496,3.30455,-0.0177964,0.257168,0.885527
1313,494,3.3035,-0.0273316,0.257672,0.884919
1315,492,3.30272,-0.0265075,0.257673,0.88405
1317,490,3.30434,-0.018716,0.255853,0.883349
1319,488,3.30436,-0.0153122,0.255357,0.882583
1321,486,3.30314,-0.0182872,0.256201,0.882317
1323,484,3.30595,-0.0127155,0.253789,0.881598
1325,482,3.30452,-0.0135669,0.254285,0.880997
1327,480,3.30409,-0.0144089,0.254282,0.880658
1329,478,3.30398,-0.0230663,0.254281,0.880658
1331,476,3.30253,-0.0244407,0.254779,0.879852
1333,474,3.30222,-0.0183765,0.255796,0.879744
1335,472,3.30395,-0.015036,0.254208,0.878569
1337,470,3.30334,-0.0197307,0.255032,0.878871
1339,468,3.30512,-0.0187796,0.252705,0.87794
1341,466,3.30446,-0.0236356,0.253461,0.877558
1343,464,3.30478,-0.0222376,0.252959,0.877164
1345,462,3.3034,-0.0231063,0.253524,0.876553
1347,460,3.30408,-0.018144,0.252626,0.875395
1349,458,3.30398,-0.0167455,0.252126,0.875014
1351,456,3.30271,-0.0178011,0.252627,0.874333
1353,454,3.30227,-0.0184092,0.252624,0.874093
1355,452,3.30377,-0.0129281,0.25105,0.873032
1357,450,3.30393,-0.0138241,0.251049,0.872691
1359,448,3.30403,-0.0234114,0.251046,0.8726
1361,446,3.30359,-0.0238007,0.251046,0.872218
1363,444,3.3025,-0.0246622,0.251538,0.871604
1365,442,3.30507,-0.0189243,0.249464,0.8709
1367,440,3.30454,-0.0176955,0.249465,0.870179
1369,438,3.30306,-0.0232351,0.250309,0.869938
1371,436,3.30234,-0.0222782,0.25046,0.869071
1373,434,3.30194,-0.0186838,0.249958,0.868336
1375,432,3.30258,-0.023506,0.250222,0.868243
1377,430,3.30281,-0.0220976,0.249725,0.86786
1379,428,3.30213,-0.0252099,0.250223,0.867583
1381,426,3.30301,-0.0173868,0.248872,0.866568
1383,424,3.30322,-0.0155195,0.248375,0.866373
1385,422,3.30357,-0.027896,0.248641,0.865574
1387,420,3.30367,-0.0243507,0.247646,0.865044
1389,418,3.30158,-0.0274086,0.248639,0.864554
1391,416,3.30402,-0.0239356,0.247405,0.863907
1393,414,3.30167,-0.0231812,0.247785,0.863085
1395,412,3.30309,-0.0258513,0.247557,0.862907
1397,410,3.30229,-0.0266864,0.247554,0.862576
1399,408,3.30093,-0.0299062,0.24855,0.86201
1401,406,3.30356,-0.0264598,0.246967,0.861336
1403,404,3.30361,-0.020532,0.245971,0.860542
1405,402,3.30391,-0.0213976,0.245968,0.860201
1407,400,3.3025,-0.0208847,0.245968,0.859203
1409,398,3.30161,-0.0219357,0.24646,0.858527
1411,396,3.30335,-0.0206663,0.245377,0.857954
1413,394,3.30269,-0.0282986,0.245376,0.85725
1415,392,3.30226,-0.0202848,0.245374,0.856894
1417,390,3.30066,-0.030151,0.246384,0.856303
1419,388,3.30103,-0.0310176,0.245874,0.855982
1421,386,3.30333,-0.0257079,0.244285,0.854803
1423,384,3.30285,-0.026173,0.244285,0.854631
1425,382,3.30418,-0.0184527,0.242416,0.85378
1427,380,3.30229,-0.0219215,0.243298,0.853183
1429,378,3.30264,-0.0252773,0.242414,0.852209
1431,376,3.30309,-0.0193991,0.2422,0.851868
1433,374,3.30166,-0.0227111,0.243186,0.851277
1435,372,3.30163,-0.0212345,0.242689,0.85089
1437,370,3.30389,-0.0176476,0.241101,0.850247
1439,368,3.30319,-0.0277417,0.241774,0.849585
1441,366,3.3024,-0.0194424,0.241589,0.849301
1443,364,3.30288,-0.0270257,0.241098,0.848915
1445,362,3.30168,-0.028048,0.241589,0.848273
1447,360,3.30392,-0.0232175,0.239996,0.846884
1449,358,3.30255,-0.0241283,0.240488,0.846279
1451,356,3.30119,-0.0273078,0.240691,0.846026
1453,354,3.30119,-0.0237823,0.240488,0.845211
1455,352,3.30044,-0.0268713,0.240982,0.845001
1457,350,3.30301,-0.0233188,0.239389,0.844338
1459,348,3.30222,-0.0219382,0.239387,0.84366
1461,346,3.30223,-0.020482,0.239074,0.843274
1463,344,3.30256,-0.0280992,0.238403,0.842886
1465,342,3.30417,-0.0231555,0.236812,0.841539
1467,340,3.30289,-0.0242088,0.237299,0.84088
1469,338,3.30154,-0.0251852,0.237786,0.840247
1471,336,3.30114,-0.0284493,0.238277,0.839972
1473,334,3.29968,-0.0294592,0.239227,0.839337
1475,332,3.30215,-0.0258002,0.237169,0.838696
1477,330,3.30245,-0.0243427,0.236675,0.838299
1479,328,3.30231,-0.0252592,0.236673,0.837958
1481,326,3.30131,-0.02387,0.236672,0.83728
1483,324,3.30347,-0.0188105,0.235074,0.836184
1485,322,3.30307,-0.028897,0.235073,0.835628
1487,320,3.30155,-0.0299792,0.23556,0.834748
1489,318,3.30074,-0.0218635,0.236051,0.834293
1491,316,3.30277,-0.0181369,0.234452,0.833904
1493,314,3.30246,-0.0281958,0.234454,0.833389
1495,312,3.30261,-0.0267803,0.233961,0.832975
1497,310,3.30166,-0.0286388,0.23445,0.832033
1499,308,3.3009,-0.0272982,0.234449,0.831327
1501,306,3.30408,-0.0187835,0.231874,0.830586
1503,304,3.30352,-0.0290297,0.231871,0.830213
1505,302,3.30207,-0.0207793,0.232355,0.829581
1507,300,3.30083,-0.024221,0.233328,0.828986
1509,298,3.30282,-0.0191535,0.23205,0.827641
1511,296,3.30222,-0.0191782,0.231723,0.827638
1513,294,3.30211,-0.020039,0.231725,0.827368
1515,292,3.30087,-0.0310817,0.23221,0.826437
1517,290,3.30175,-0.0273246,0.231231,0.825925
1519,288,3.30264,-0.0261469,0.2306,0.825037
1521,286,3.30276,-0.0246952,0.23011,0.824632
1523,284,3.30194,-0.0234006,0.230112,0.823906
1525,282,3.301,-0.0253327,0.2306,0.822952
1527,280,3.30164,-0.0241356,0.229965,0.822052
1529,278,3.3023,-0.0239741,0.229474,0.822381
1531,276,3.30219,-0.0210939,0.228988,0.821294
1533,274,3.30165,-0.0314162,0.228991,0.820972
1535,272,3.30122,-0.0316222,0.228986,0.820893
1537,270,3.30313,-0.0286101,0.227863,0.819723
1539,268,3.303875,-0.0247267,0.226892,0.819246
1541,266,3.30122,-0.0292284,0.228344,0.818042
1543,264,3.30059,-0.0291991,0.22834,0.818049
1545,262,3.30217,-0.0265699,0.227215,0.816728
1547,260,3.30218,-0.0274371,0.227212,0.816431
1549,258,3.30163,-0.023628,0.227227,0.815656
1551,256,3.30134,-0.0284551,0.227211,0.816071
1553,254,3.30129,-0.0229806,0.226239,0.814966
1555,252,3.30358,-0.0288912,0.225107,0.813971
1557,250,3.30209,-0.0296411,0.225104,0.813704
1559,248,3.30131,-0.0308365,0.225588,0.813029
1561,246,3.301,-0.0316776,0.225588,0.812733
1563,244,3.30168,-0.0292292,0.22494,0.811084
1565,242,3.30194,-0.0195085,0.224455,0.811422
1567,240,3.30206,-0.0285592,0.224456,0.810408
1569,238,3.30292,-0.0248805,0.223469,0.80982
1571,236,3.30358,-0.0180078,0.222027,0.809468
1573,234,3.30307,-0.0237944,0.222723,0.809145
1575,232,3.30352,-0.0298125,0.221872,0.80828
1577,230,3.30247,-0.0214703,0.222349,0.807601
1579,228,3.30034,-0.0248389,0.223307,0.807062
1581,226,3.30297,-0.0211236,0.221686,0.806387
1583,224,3.30306,-0.0220677,0.221686,0.806064
1585,222,3.30226,-0.0206302,0.221682,0.805371
1587,220,3.30142,-0.0238975,0.222163,0.805153
1589,218,3.30135,-0.0297127,0.221843,0.804349
1591,216,3.30311,-0.0269881,0.220539,0.803059
1593,214,3.30259,-0.02534,0.220056,0.802699
1595,212,3.30165,-0.0263798,0.220537,0.80207
1597,210,3.30118,-0.0273821,0.220535,0.800476
1599,208,3.30138,-0.0213226,0.219524,0.80075
1601,206,3.3006,-0.0246264,0.220005,0.80053
1603,204,3.30452,-0.0155534,0.217417,0.800096
1605,202,3.30395,-0.0151361,0.217421,0.798824
1607,200,3.30308,-0.0255198,0.217416,0.798571
1609,198,3.30202,-0.0267422,0.217892,0.797885
1611,196,3.30527,-0.0179568,0.215309,0.797078
1613,194,3.30379,-0.0188972,0.215778,0.796471
1615,192,3.3022,-0.0247475,0.21673,0.796316
1617,190,3.30266,-0.0210146,0.216252,0.795478
1619,188,3.30078,-0.0267991,0.217205,0.795338
1621,186,3.30347,-0.0205619,0.215566,0.794532
1623,184,3.30437,-0.0165977,0.214614,0.793819
1625,182,3.30268,-0.0226525,0.215642,0.79361
1627,180,3.30349,-0.0213767,0.214956,0.792719
1629,178,3.30187,-0.0200886,0.215557,0.792063
1631,176,3.30251,-0.0306552,0.214956,0.791694
1633,174,3.30032,-0.0270262,0.21639,0.791178
1635,172,3.30264,-0.0177048,0.214394,0.790633
1637,170,3.30132,-0.019294,0.21487,0.789813
1639,168,3.30147,-0.0279971,0.214395,0.789297
1641,166,3.30349,-0.0217746,0.213245,0.788233
1643,164,3.30526,-0.0150544,0.210873,0.788037
1645,162,3.30363,-0.0161603,0.211337,0.787371
1647,160,3.30276,-0.0245152,0.212624,0.786914
1649,158,3.3019,-0.0236264,0.212622,0.785536
1651,156,3.30167,-0.0245831,0.212619,0.785679
1653,154,3.30024,-0.0295884,0.213569,0.785842
1655,152,3.30014,-0.0279411,0.213091,0.785475
1657,150,3.30302,-0.0225926,0.211598,0.78411
1659,148,3.30301,-0.0201813,0.210977,0.784016
1661,146,3.30145,-0.0317413,0.211447,0.78317
1663,144,3.30228,-0.0304107,0.210974,0.782686
1665,142,3.29994,-0.0339624,0.211918,0.782151
1667,140,3.3016,-0.0302457,0.210747,0.781163
1669,138,3.30167,-0.0287209,0.210272,0.780738
1671,136,3.30066,-0.0298385,0.210745,0.780099
1673,134,3.29998,-0.0232306,0.211218,0.779673
1675,132,3.29895,-0.0344733,0.211697,0.779228
1677,130,3.30249,-0.0254223,0.209096,0.778422
1679,128,3.30207,-0.026351,0.209096,0.778122
1681,126,3.30219,-0.0246658,0.208621,0.777763
1683,124,3.30163,-0.0306726,0.208153,0.776947
1685,122,3.30314,-0.0194231,0.207441,0.776048
1687,120,3.30207,-0.0202922,0.207439,0.775755
1689,118,3.30111,-0.0315516,0.20791,0.775075
1691,116,3.30109,-0.0224676,0.20791,0.774766
1693,114,3.29923,-0.0234715,0.208377,0.774145
1695,112,3.30257,-0.0296234,0.206749,0.773477
1697,110,3.30217,-0.030452,0.206722,0.773205
1699,108,3.30104,-0.0216006,0.207193,0.772523
1701,106,3.30175,-0.030054,0.206718,0.772143
1703,104,3.30059,-0.0285239,0.206717,0.771443
1705,102,3.30257,-0.0271695,0.205557,0.770847
1707,100,3.30233,-0.0231189,0.205061,0.770055
1709,98,3.29995,-0.0294202,0.206474,0.769555
1711,96,3.30038,-0.0278593,0.206,0.76915
1713,94,3.29957,-0.0286997,0.205999,0.768879
1715,92,3.30197,-0.0250025,0.205102,0.767845
1717,90,3.30195,-0.0232716,0.20434,0.767515
1719,88,3.30041,-0.0269586,0.205284,0.766954
1721,86,3.30183,-0.0327806,0.203869,0.766815
1723,84,3.30248,-0.0267998,0.202757,0.765709
1725,82,3.30248,-0.0304209,0.203146,0.765081
1727,80,3.30298,-0.0261947,0.202209,0.763263
1729,78,3.30121,-0.0304056,0.203138,0.763874
1731,76,3.29969,-0.0315885,0.203606,0.763215
1733,74,3.30045,-0.0247056,0.202199,0.762663
1735,72,3.30027,-0.0261956,0.20297,0.761893
1737,70,3.30165,-0.0244084,0.201467,0.76145
1739,68,3.30021,-0.0282683,0.202405,0.760849
1741,66,3.2998,-0.0292261,0.202403,0.760551
1743,64,3.29958,-0.0275163,0.201933,0.760191
1745,62,3.30251,-0.0210594,0.200263,0.759102
1747,60,3.30217,-0.0321179,0.200262,0.758862
1749,58,3.30083,-0.0331091,0.20075,0.758553
1751,56,3.30109,-0.0291287,0.199794,0.757703
1753,54,3.30386,-0.022389,0.197669,0.756985
1755,52,3.30141,-0.0287931,0.199053,0.7565
1757,50,3.30163,-0.0271478,0.198587,0.756105
1759,48,3.3008,-0.0256631,0.198585,0.755376
1761,46,3.29942,-0.0319339,0.199514,0.755227
1763,44,3.30139,-0.0279458,0.198304,0.754255
1765,42,3.30215,-0.0236595,0.197374,0.753788
1767,40,3.29984,-0.0301016,0.19877,0.753304
1769,38,3.30024,-0.0284154,0.198301,0.752923
1771,36,3.30049,-0.0268153,0.198116,0.752514
1773,34,3.30323,-0.0226295,0.196157,0.751886
1775,32,3.30271,-0.0210386,0.196155,0.751191
1777,30,3.30129,-0.0327205,0.196617,0.750504
1779,28,3.30137,-0.0232373,0.196618,0.750222
1781,26,3.29946,-0.0347612,0.197079,0.749592
1783,24,3.30298,-0.0290346,0.194937,0.748533
1785,22,3.30149,-0.0290789,0.195409,0.748229
1787,20,3.3003,-0.0313485,0.195859,0.747244
1789,18,3.29973,-0.0340395,0.196323,0.747317
1791,16,3.29873,-0.0335144,0.196321,0.746291
1793,14,3.3007,-0.0319584,0.195101,0.745745
1795,12,3.30138,-0.0266953,0.19417,0.745557
1797,10,3.30032,-0.0303006,0.194633,0.74535
1799,8,3.29967,-0.0287845,0.194642,0.74462
1801,6,3.29934,-0.0325725,0.195096,0.744373
1803,4,3.30106,-0.0284581,0.193867,0.743404
1804,3,3.30135,-0.0267424,0.193398,0.743015