File: hust_correlation_analysis/matrices/HUST_8-6_cycle_feature_matrix.csv
cycle_number,rul,voltage,current,capacity,charge_capacity
1,2367,3.31943,-0.00691503,0.302159,1.05207
4,2364,3.30698,-0.00882143,0.306706,1.04601
7,2361,3.30596,-0.010025,0.307109,1.04511
10,2358,3.30839,-0.00759129,0.305449,1.04477
13,2355,3.30826,-0.00821462,0.30545,1.04441
16,2352,3.30786,-0.00941668,0.305858,1.04353
19,2349,3.30768,-0.00996765,0.305852,1.04322
22,2346,3.30758,-0.0106073,0.305862,1.04288
25,2343,3.30913,-0.00820306,0.304908,1.04232
28,2340,3.30961,-0.00825643,0.304193,1.04248
31,2337,3.30887,-0.00885538,0.304596,1.04166
34,2334,3.30876,-0.00937631,0.304587,1.0416
37,2331,3.30888,-0.0100056,0.304587,1.04123
40,2328,3.30859,-0.0100024,0.304584,1.04122
43,2325,3.30809,-0.0106717,0.304996,1.04064
46,2322,3.30884,-0.0121551,0.304443,1.04063
49,2319,3.30977,-0.00824283,0.30333,1.04028
52,2316,3.30796,-0.0133396,0.304734,1.03993
55,2313,3.30918,-0.00888583,0.303738,1.03972
58,2310,3.30961,-0.0109437,0.303783,1.03936
61,2307,3.30944,-0.0109651,0.303645,1.03936
64,2304,3.30851,-0.0104242,0.304148,1.03862
67,2301,3.30935,-0.0116311,0.3036,1.03878
70,2298,3.30888,-0.0125317,0.303897,1.03827
73,2295,3.30978,-0.00814249,0.302905,1.03802
76,2292,3.31042,-0.00830028,0.3025,1.03816
79,2289,3.30982,-0.00897618,0.302908,1.03757
82,2286,3.31025,-0.00890147,0.302788,1.03779
85,2283,3.31031,-0.0106982,0.302652,1.0374
88,2280,3.3102,-0.0110917,0.302652,1.03742
91,2277,3.30973,-0.0112757,0.302647,1.03706
94,2274,3.31065,-0.00742156,0.301945,1.0365
97,2271,3.30911,-0.0106813,0.302904,1.03659
100,2268,3.31074,-0.00775504,0.301757,1.03635
103,2265,3.31036,-0.00825686,0.301946,1.03628
106,2262,3.31029,-0.00866985,0.302063,1.0356
109,2259,3.30936,-0.0128652,0.302766,1.03598
112,2256,3.31043,-0.0086005,0.301945,1.03582
115,2253,3.31008,-0.00895752,0.302065,1.03544
118,2250,3.31072,-0.00953069,0.301659,1.03532
121,2247,3.31039,-0.00962015,0.30207,1.03508
124,2244,3.31019,-0.0101518,0.301721,1.03478
127,2241,3.3098,-0.0101313,0.302061,1.03476
130,2238,3.31103,-0.00716244,0.301111,1.03453
133,2235,3.31068,-0.0119297,0.301524,1.03459
136,2232,3.3109,-0.00772846,0.301107,1.0342
139,2229,3.31111,-0.00805395,0.300816,1.0338
142,2226,3.31067,-0.0128267,0.301532,1.03412
145,2223,3.31098,-0.00833475,0.30083,1.0339
148,2220,3.3106,-0.00900955,0.301231,1.03331
151,2217,3.31042,-0.00897772,0.301234,1.03333
154,2214,3.31043,-0.00898848,0.301235,1.03333
157,2211,3.31063,-0.00961569,0.301233,1.03297
160,2208,3.31061,-0.00954113,0.301239,1.03302
163,2205,3.31103,-0.00956833,0.301245,1.03321
166,2202,3.31019,-0.0103103,0.301239,1.03259
169,2199,3.30952,-0.0102303,0.301658,1.03246
172,2196,3.31015,-0.0100746,0.301243,1.03273
175,2193,3.30995,-0.0107182,0.301246,1.03238
178,2190,3.30955,-0.0108049,0.301244,1.03232
181,2187,3.31218,-0.00775371,0.299587,1.03233
184,2184,3.31084,-0.00846109,0.300406,1.03152
187,2181,3.31135,-0.00835808,0.29999,1.03176
190,2178,3.31138,-0.00834497,0.299992,1.03178
193,2175,3.31032,-0.012804,0.301091,1.0318
196,2172,3.311,-0.00904861,0.3004,1.03117
199,2169,3.31137,-0.0089618,0.299986,1.0314
202,2166,3.31135,-0.00896712,0.299986,1.0314
205,2163,3.31075,-0.00962287,0.300489,1.03083
208,2160,3.31137,-0.00949532,0.299983,1.03111
211,2157,3.31093,-0.00955647,0.299986,1.03107
214,2154,3.31036,-0.00962889,0.300494,1.03084
217,2151,3.3109,-0.0101839,0.299996,1.03073
220,2148,3.31058,-0.0101211,0.299985,1.03075
223,2145,3.31008,-0.0102973,0.300401,1.03046
226,2142,3.31044,-0.0101683,0.29998,1.0307
229,2139,3.3115,-0.00749915,0.299431,1.03005
232,2136,3.31023,-0.0120262,0.300539,1.03005
235,2133,3.31072,-0.00742388,0.299839,1.02988
238,2130,3.31095,-0.0117805,0.300526,1.03032
241,2127,3.30992,-0.0122686,0.300521,1.02984
244,2124,3.3104,-0.0123025,0.300123,1.03006
247,2121,3.31019,-0.0129679,0.300538,1.0295
250,2118,3.31,-0.0129834,0.300535,1.02947
253,2115,3.30988,-0.0130119,0.300528,1.02944
256,2112,3.30996,-0.012991,0.300114,1.02965
259,2109,3.3097,-0.0136048,0.300126,1.02933
262,2106,3.3115,-0.0111508,0.299287,1.0288
265,2103,3.31128,-0.0111823,0.298813,1.02879
268,2100,3.31193,-0.0110788,0.298765,1.02905
271,2097,3.3115,-0.0117393,0.29888,1.02846
274,2094,3.31146,-0.0117318,0.298879,1.02847
277,2091,3.31154,-0.011788,0.298883,1.02845
280,2088,3.31127,-0.0117762,0.298877,1.02845
283,2085,3.31111,-0.0124085,0.298885,1.02811
286,2082,3.31167,-0.0129862,0.298593,1.0278
289,2079,3.31233,-0.0081488,0.297889,1.02776
292,2076,3.31156,-0.0125508,0.298474,1.02821
295,2073,3.31096,-0.0129362,0.298469,1.02799
298,2070,3.31117,-0.0128388,0.298467,1.02804
301,2067,3.31058,-0.0135455,0.298872,1.02743
304,2064,3.3102,-0.0136847,0.298884,1.02714
307,2061,3.31258,-0.0111847,0.297636,1.02686
310,2058,3.3112,-0.0096029,0.298175,1.02692
313,2055,3.31212,-0.0111264,0.297633,1.02689
316,2052,3.31206,-0.0117723,0.297637,1.02652
319,2049,3.31185,-0.0105641,0.297883,1.0249
322,2046,3.31271,-0.0116995,0.297232,1.02703
325,2043,3.31191,-0.011781,0.297634,1.02652
328,2040,3.31204,-0.0123477,0.297631,1.02621
331,2037,3.31268,-0.00775206,0.29652,1.02622
334,2034,3.31283,-0.00844055,0.296646,1.02568
337,2031,3.31241,-0.00848274,0.296638,1.02562
340,2028,3.31211,-0.0132355,0.297347,1.02572
343,2025,3.31282,-0.00905077,0.296641,1.02529
346,2022,3.31113,-0.0135479,0.297639,1.02551
349,2019,3.31181,-0.0135079,0.297226,1.02573
352,2016,3.31255,-0.00965465,0.29664,1.02495
355,2013,3.3124,-0.00965986,0.296645,1.02498
358,2010,3.31258,-0.0102725,0.296648,1.02464
361,2007,3.31236,-0.0102228,0.296641,1.02465
364,2004,3.31217,-0.010517,0.296647,1.02449
367,2001,3.31194,-0.0108269,0.296637,1.02428
370,1998,3.3119,-0.0108894,0.296646,1.02427
373,1995,3.31168,-0.0108567,0.296725,1.02426
376,1992,3.31316,-0.00850172,0.295899,1.0235
379,1989,3.31351,-0.00839204,0.295397,1.02373
382,1986,3.31363,-0.0084149,0.295405,1.02375
385,1983,3.31373,-0.0090089,0.295401,1.02341
388,1980,3.31336,-0.00905789,0.295403,1.02336
391,1977,3.31325,-0.00907577,0.295402,1.02338
394,1974,3.31391,-0.00890115,0.294987,1.02364
397,1971,3.31203,-0.0141634,0.296513,1.02306
400,1968,3.31294,-0.00970849,0.295402,1.02326
403,1965,3.31299,-0.00971621,0.295409,1.02303
406,1962,3.31301,-0.010254,0.295404,1.02271
409,1959,3.31221,-0.0103694,0.295812,1.02245
412,1956,3.31231,-0.0108396,0.295815,1.02219
415,1953,3.31299,-0.010817,0.295406,1.02238
418,1950,3.31257,-0.0108587,0.295403,1.02235
421,1947,3.31398,-0.00850442,0.294563,1.02154
424,1944,3.31462,-0.00840318,0.294162,1.02181
427,1941,3.31456,-0.00841407,0.294159,1.02181
430,1938,3.31404,-0.00904001,0.29457,1.02126
433,1935,3.31412,-0.00897887,0.294157,1.02147
436,1932,3.31409,-0.00910326,0.294162,1.0214
439,1929,3.31363,-0.00905733,0.294566,1.02143
442,1926,3.31312,-0.00970999,0.29456,1.02085
445,1923,3.31346,-0.00970039,0.294558,1.02085
448,1920,3.31322,-0.00962028,0.294564,1.02091
451,1917,3.31326,-0.0100333,0.294556,1.02066
454,1914,3.31343,-0.0102767,0.294309,1.02071
457,1911,3.31369,-0.0102567,0.294153,1.02073
460,1908,3.31327,-0.0109211,0.294551,1.02013
463,1905,3.31284,-0.0108639,0.294557,1.02016
466,1902,3.31338,-0.0108552,0.294141,1.02034
469,1899,3.31389,-0.0123478,0.293899,1.02036
472,1896,3.31435,-0.00852347,0.293308,1.01954
475,1893,3.3141,-0.00855647,0.293315,1.01955
478,1890,3.31421,-0.00913629,0.293315,1.01922
481,1887,3.31443,-0.00909888,0.293312,1.01922
484,1884,3.31406,-0.0091117,0.29331,1.01919
487,1881,3.31346,-0.0142401,0.294015,1.01908
490,1878,3.31465,-0.009656,0.292902,1.01908
493,1875,3.31464,-0.00968043,0.29291,1.01909
496,1872,3.31421,-0.0103463,0.29331,1.01851
499,1869,3.31392,-0.0102915,0.293607,1.01857
502,1866,3.31446,-0.0102358,0.292908,1.01877
505,1863,3.31353,-0.0109458,0.293312,1.01817
508,1860,3.31318,-0.0108707,0.29342,1.01818
511,1857,3.31368,-0.0108844,0.292896,1.01836
514,1854,3.31347,-0.0112539,0.293711,1.01797
517,1851,3.31411,-0.0131055,0.292944,1.01759
520,1848,3.31498,-0.0084488,0.292068,1.01763
523,1845,3.3154,-0.00910476,0.292362,1.01728
526,1842,3.31566,-0.00906413,0.29167,1.0175
529,1839,3.31496,-0.0096651,0.292067,1.01693
532,1836,3.31485,-0.00969852,0.291724,1.01691
535,1833,3.31503,-0.00963216,0.292153,1.01695
538,1830,3.31521,-0.00963415,0.291664,1.01714
541,1827,3.31453,-0.00974396,0.292065,1.01689
544,1824,3.31437,-0.0103567,0.292078,1.01659
547,1821,3.31459,-0.010343,0.292084,1.0166
550,1818,3.31411,-0.0109139,0.292486,1.01609
553,1815,3.31379,-0.0109587,0.292475,1.01603
556,1812,3.31571,-0.00848398,0.291233,1.01547
559,1809,3.31615,-0.00840361,0.290829,1.01572
562,1806,3.31587,-0.00843695,0.29083,1.0157
565,1803,3.31601,-0.00848814,0.290834,1.01569
568,1800,3.31605,-0.00906157,0.290837,1.01536
571,1797,3.31599,-0.00906057,0.290834,1.01536
574,1794,3.31516,-0.00917533,0.291238,1.0151
577,1791,3.31562,-0.00968638,0.290837,1.01501
580,1788,3.31549,-0.00971293,0.290843,1.0148
583,1785,3.31546,-0.010224,0.290834,1.01469
586,1782,3.31453,-0.0103713,0.291245,1.01443
589,1779,3.31491,-0.0103463,0.290991,1.0144
592,1776,3.31484,-0.0109007,0.291241,1.01413
595,1773,3.31522,-0.0108121,0.290842,1.01437
598,1770,3.31676,-0.00786803,0.289598,1.01408
601,1767,3.31697,-0.00845899,0.289594,1.01373
604,1764,3.31719,-0.00842715,0.289878,1.0135
607,1761,3.31639,-0.00850004,0.289991,1.01352
610,1758,3.31651,-0.00852533,0.289593,1.0137
613,1755,3.31686,-0.00904418,0.289739,1.01314
616,1752,3.31658,-0.0090422,0.28959,1.0134
619,1749,3.31587,-0.00914482,0.289992,1.01314
622,1746,3.31554,-0.00974371,0.289994,1.01254
625,1743,3.31568,-0.00976971,0.289991,1.01278
628,1740,3.31575,-0.00971325,0.289871,1.01429
631,1737,3.31546,-0.010259,0.289988,1.01249
634,1734,3.31555,-0.0103882,0.290277,1.01241
637,1731,3.31559,-0.0104401,0.289988,1.01237
640,1728,3.31594,-0.0103472,0.289579,1.01261
643,1725,3.31538,-0.0109885,0.289993,1.01208
646,1722,3.31744,-0.00855285,0.288743,1.01148
649,1719,3.31768,-0.00858048,0.288747,1.01147
652,1716,3.31749,-0.00846006,0.288343,1.01032
655,1713,3.31739,-0.00847271,0.288345,1.01171
658,1710,3.31709,-0.00912329,0.288749,1.01117
661,1707,3.31711,-0.00900769,0.288745,1.00978
664,1704,3.31673,-0.00911999,0.288751,1.01119
667,1701,3.31654,-0.00972343,0.288899,1.01084
670,1698,3.31724,-0.00965687,0.288352,1.01106
673,1695,3.31653,-0.0103626,0.288755,1.01047
676,1692,3.31635,-0.0103312,0.288749,1.009
679,1689,3.31607,-0.0103283,0.288899,1.01047
682,1686,3.31632,-0.0103077,0.288754,1.0105
685,1683,3.31619,-0.0108428,0.288734,1.01163
688,1680,3.31587,-0.0110545,0.289143,1.00985
691,1677,3.31646,-0.0109742,0.288736,1.01006
694,1674,3.318,-0.00806806,0.287508,1.0083
697,1671,3.31781,-0.00856222,0.287506,1.00951
700,1668,3.31786,-0.00851839,0.287504,1.00954
703,1665,3.31767,-0.00914109,0.287506,1.00917
706,1662,3.31775,-0.00916048,0.28751,1.00917
709,1659,3.31692,-0.00914294,0.287897,1.00745
712,1656,3.31764,-0.00917566,0.287497,1.00913
715,1653,3.31774,-0.00970162,0.287491,1.00881
718,1650,3.31749,-0.00974875,0.2875,1.0088
721,1647,3.31712,-0.0103544,0.287987,1.00827
724,1644,3.31726,-0.0103768,0.287499,1.00693
727,1641,3.31773,-0.0102982,0.287105,1.00868
730,1638,3.31719,-0.01094,0.2875,1.00811
733,1635,3.31639,-0.0109594,0.287897,1.0079
736,1632,3.31692,-0.0110171,0.287494,1.00806
739,1629,3.31858,-0.00789204,0.286256,1.00788
742,1626,3.31842,-0.00858213,0.286258,1.00626
745,1623,3.31833,-0.00852052,0.286249,1.00748
748,1620,3.31818,-0.0085295,0.286251,1.00747
751,1617,3.31811,-0.00916259,0.286643,1.00691
754,1614,3.31772,-0.00923809,0.286644,1.00685
757,1611,3.31773,-0.00922851,0.286645,1.0083
760,1608,3.31792,-0.00979875,0.286649,1.00657
763,1605,3.31766,-0.00982512,0.286661,1.00683
766,1602,3.3171,-0.0106221,0.287049,1.0045
769,1599,3.31749,-0.0104268,0.286648,1.00621
772,1596,3.31754,-0.0103836,0.286647,1.00622
775,1593,3.31748,-0.0110474,0.286646,1.00581
778,1590,3.31666,-0.0111273,0.287048,1.0056
781,1587,3.31716,-0.0110572,0.286644,1.00582
784,1584,3.31905,-0.0084813,0.285402,1.00531
787,1581,3.31877,-0.00852399,0.28541,1.00531
790,1578,3.31857,-0.00918707,0.285806,1.00447
793,1575,3.31857,-0.00910983,0.285811,1.00479
796,1572,3.31862,-0.00918861,0.285816,1.00475
799,1569,3.31785,-0.0098728,0.286214,1.00417
802,1566,3.31826,-0.00983125,0.285812,1.00437
805,1563,3.31854,-0.00976339,0.285903,1.00419
808,1560,3.31829,-0.00977589,0.285813,1.00441
811,1557,3.31762,-0.010458,0.286209,1.00381
814,1554,3.3182,-0.0103963,0.28581,1.00405
817,1551,3.31791,-0.0110001,0.286222,1.00353
820,1548,3.31748,-0.0110934,0.286216,1.00327
823,1545,3.31915,-0.00794449,0.284573,1.00346
826,1542,3.31962,-0.00850767,0.284572,1.00313
829,1539,3.31965,-0.00862728,0.284585,1.00299
832,1536,3.31886,-0.00917758,0.284961,1.00254
835,1533,3.31882,-0.00919405,0.284969,1.00254
838,1530,3.31928,-0.00918978,0.284572,1.00274
841,1527,3.31875,-0.00981291,0.284971,1.00219
844,1524,3.31881,-0.00976839,0.284574,1.0024
847,1521,3.31864,-0.0104004,0.284961,1.00183
850,1518,3.31826,-0.0104581,0.284966,1.0018
853,1515,3.31807,-0.0104735,0.284955,1.00176
856,1512,3.31809,-0.0110854,0.284959,1.0014
859,1509,3.31818,-0.0110827,0.285111,1.00142
862,1506,3.31985,-0.00796207,0.283415,1.00122
865,1503,3.31943,-0.00866819,0.284119,1.00063
868,1500,3.32003,-0.00860143,0.283721,1.00085
871,1497,3.31928,-0.00927302,0.284119,1.00028
874,1494,3.31904,-0.00925188,0.284119,1.0003
877,1491,3.31981,-0.00914297,0.28371,1.00051
880,1488,3.31917,-0.00985304,0.284121,0.999948
883,1485,3.31901,-0.0105141,0.284533,0.999431
886,1482,3.31896,-0.0104374,0.284124,0.999621
889,1479,3.31915,-0.0104263,0.284123,0.999631
892,1476,3.31849,-0.0111282,0.284528,0.999046
895,1473,3.31793,-0.0111184,0.284518,0.999031
898,1470,3.32053,-0.0079909,0.282872,0.999007
901,1467,3.31981,-0.00863252,0.283271,0.998423
904,1464,3.31956,-0.0085922,0.283271,0.998458
907,1461,3.31957,-0.00925588,0.28368,0.997931
910,1458,3.31977,-0.00915166,0.283276,0.998154
913,1455,3.31906,-0.00984644,0.283673,0.997553
916,1452,3.31958,-0.00984702,0.28327,0.997728
919,1449,3.31919,-0.0104545,0.283672,0.997202
922,1446,3.31853,-0.0105234,0.284159,0.996988
925,1443,3.31856,-0.0105376,0.283674,0.997148
928,1440,3.31872,-0.0104569,0.283666,0.997184
931,1437,3.31832,-0.0111441,0.284078,0.996627
934,1434,3.32017,-0.0080182,0.28243,0.996592
937,1431,3.31992,-0.00860138,0.282831,0.996083
940,1428,3.3204,-0.00859113,0.282438,0.996274
943,1425,3.31916,-0.00928364,0.283236,0.995512
946,1422,3.31921,-0.00990995,0.283229,0.995129
949,1419,3.31928,-0.00995263,0.283234,0.995131
952,1416,3.31879,-0.00997124,0.283237,0.995117
955,1413,3.319,-0.0106047,0.283235,0.994753
958,1410,3.31895,-0.0105428,0.28324,0.994807
961,1407,3.31831,-0.0111825,0.283641,0.994249
964,1404,3.31856,-0.0111603,0.28323,0.994417
967,1401,3.32013,-0.0085388,0.281985,0.993915
970,1398,3.32031,-0.00863773,0.281984,0.993849
973,1395,3.31944,-0.00872767,0.282791,0.99361
976,1392,3.31958,-0.00942849,0.282389,0.993224
979,1389,3.3196,-0.00989233,0.282395,0.992967
982,1386,3.31944,-0.00988742,0.282393,0.993226
985,1383,3.3194,-0.00992586,0.282385,0.992932
988,1380,3.31958,-0.00991012,0.28239,0.992939
991,1377,3.31867,-0.0106061,0.282786,0.992337
994,1374,3.31901,-0.0105935,0.282379,0.992521
997,1371,3.31849,-0.0112046,0.28278,0.991986
1000,1368,3.32039,-0.00811285,0.281538,0.991734
1003,1365,3.31956,-0.00880721,0.281942,0.991165
1006,1362,3.31975,-0.00939904,0.281937,0.990811
1009,1359,3.32017,-0.0093071,0.281533,0.990817
1012,1356,3.31927,-0.00942373,0.281941,0.990792
1015,1353,3.31932,-0.0100749,0.281937,0.990419
1018,1350,3.31935,-0.010001,0.282215,0.990448
1021,1347,3.31912,-0.0105739,0.281933,0.990122
1024,1344,3.31882,-0.0107142,0.281933,0.990042
1027,1341,3.31854,-0.0113303,0.282341,0.989523
1030,1338,3.31903,-0.0111847,0.281939,0.989782
1033,1335,3.31977,-0.00877351,0.281418,0.988782
1036,1332,3.32022,-0.00879222,0.281088,0.988938
1039,1329,3.32054,-0.00874021,0.280686,0.989143
1042,1326,3.3199,-0.00936868,0.281087,0.9886
1045,1323,3.31976,-0.0093349,0.281085,0.988615
1048,1320,3.31955,-0.0100631,0.281486,0.988036
1051,1317,3.31943,-0.0101049,0.281494,0.988021
1054,1314,3.31938,-0.0100045,0.281093,0.988249
1057,1311,3.31889,-0.0106964,0.281498,0.987685
1060,1308,3.3192,-0.0106662,0.281494,0.987688
1063,1305,3.31866,-0.0113479,0.281489,0.987292
1066,1302,3.31799,-0.0113771,0.281896,0.987094
1069,1299,3.32024,-0.00819331,0.280238,0.987043
1072,1296,3.31966,-0.00883224,0.280641,0.986497
1075,1293,3.31934,-0.00954321,0.281052,0.985934
1078,1290,3.31949,-0.00943823,0.280644,0.98616
1081,1287,3.3195,-0.00942504,0.280647,0.986177
1084,1284,3.31936,-0.0101028,0.280643,0.985784
1087,1281,3.31845,-0.0108333,0.281052,0.985195
1090,1278,3.31877,-0.0107731,0.28105,0.985233
1093,1275,3.31861,-0.0107491,0.281049,0.985239
1096,1272,3.31837,-0.0114223,0.281053,0.984855
1099,1269,3.32043,-0.00823067,0.279397,0.984833
1102,1266,3.32017,-0.00882482,0.279803,0.984327
1105,1263,3.3203,-0.00882418,0.279807,0.984331
1108,1260,3.31998,-0.00939509,0.279802,0.983987
1111,1257,3.31968,-0.0101908,0.280207,0.983362
1114,1254,3.31957,-0.0101716,0.280206,0.983352
1117,1251,3.31926,-0.0106765,0.280203,0.983063
1120,1248,3.31903,-0.0107932,0.280203,0.982983
1123,1245,3.3192,-0.0113376,0.280202,0.982684
1126,1242,3.32091,-0.00823051,0.278957,0.982442
1129,1239,3.3202,-0.00892226,0.279362,0.981874
1132,1236,3.31986,-0.00891523,0.279361,0.981858
1135,1233,3.31986,-0.00955435,0.279922,0.981338
1138,1230,3.31997,-0.00947738,0.279362,0.981535
1141,1227,3.31928,-0.0101255,0.279761,0.980973
1144,1224,3.31956,-0.0102227,0.279363,0.981122
1147,1221,3.31955,-0.0101855,0.279363,0.981135
1150,1218,3.31884,-0.0109122,0.27977,0.980552
1153,1215,3.31861,-0.0114634,0.279766,0.980222
1156,1212,3.3201,-0.00813856,0.27843,0.980279
1159,1209,3.32094,-0.00888209,0.278509,0.979646
1162,1206,3.3199,-0.00886559,0.278918,0.97948
1165,1203,3.32045,-0.00946589,0.278512,0.979318
1168,1200,3.32037,-0.00944238,0.278512,0.979319
1171,1197,3.31932,-0.0102919,0.279325,0.978475
1174,1194,3.31897,-0.0102086,0.279322,0.978531
1177,1191,3.31912,-0.0100779,0.278911,0.978768
1180,1188,3.31943,-0.0107871,0.278914,0.978365
1183,1185,3.31863,-0.0109279,0.279319,0.978094
1186,1182,3.31943,-0.0107549,0.278497,0.978521
1189,1179,3.31931,-0.0114543,0.278577,0.977948
1192,1176,3.32072,-0.00819602,0.277654,0.977757
1195,1173,3.32012,-0.00895727,0.278055,0.977143
1198,1170,3.32027,-0.00958693,0.278055,0.976793
1201,1167,3.31975,-0.00962222,0.278465,0.976597
1204,1164,3.31917,-0.0102609,0.278872,0.976299
1207,1161,3.31925,-0.0102892,0.278472,0.976239
1210,1158,3.31941,-0.0108608,0.278464,0.975881
1213,1155,3.31919,-0.0109348,0.278462,0.975838
1216,1152,3.31911,-0.0109138,0.278459,0.975833
1219,1149,3.31926,-0.0115136,0.278456,0.975485
1222,1146,3.32091,-0.00838717,0.277198,0.975203
1225,1143,3.32004,-0.00906663,0.277607,0.974637
1228,1140,3.31993,-0.0090537,0.277612,0.974659
1231,1137,3.31985,-0.00966582,0.277612,0.974308
1234,1134,3.31959,-0.0102021,0.277606,0.97399
1237,1131,3.31947,-0.010263,0.277602,0.973938
1240,1128,3.31917,-0.0109418,0.27801,0.972036
1243,1125,3.31923,-0.00928828,0.277598,0.973214
1246,1122,3.31886,-0.00996593,0.277598,0.972826
1249,1119,3.3182,-0.0116641,0.277444,0.972944
1252,1116,3.3202,-0.0122748,0.276347,0.971886
1255,1113,3.32017,-0.013876,0.276343,0.972247
1258,1110,3.31974,-0.0145916,0.276758,0.971681
1261,1107,3.32024,-0.0144753,0.276344,0.971903
1264,1104,3.31971,-0.0135375,0.276347,0.971158
1267,1101,3.31933,-0.0135249,0.276287,0.971175
1270,1098,3.31892,-0.014236,0.27675,0.970588
1273,1095,3.31872,-0.0142399,0.276748,0.970577
1276,1092,3.31848,-0.0148832,0.27675,0.970228
1279,1089,3.31869,-0.0148831,0.276754,0.970225
1282,1086,3.32113,-0.00896137,0.2747,0.96939
1285,1083,3.32008,-0.0112927,0.275499,0.968965
1288,1080,3.31975,-0.0112944,0.275499,0.96894
1291,1077,3.31964,-0.0103007,0.275502,0.96826
1294,1074,3.31925,-0.0126211,0.275903,0.968022
1297,1071,3.31976,-0.0108857,0.275092,0.96809
1300,1068,3.31949,-0.0093274,0.2751,0.967758
1303,1065,3.31973,-0.00984266,0.274695,0.967601
1306,1062,3.3205,-0.00905455,0.274652,0.96673
1309,1059,3.32045,-0.0073295,0.274303,0.966614
1312,1056,3.32031,-0.00803571,0.274244,0.966205
1315,1053,3.32038,-0.0144803,0.273842,0.966423
1318,1050,3.32023,-0.0134771,0.27384,0.965715
1321,1047,3.3192,-0.0158331,0.274643,0.965284
1324,1044,3.31909,-0.0158697,0.274652,0.965295
1327,1041,3.31983,-0.0141595,0.273851,0.965357
1330,1038,3.32102,-0.011666,0.273008,0.964564
1333,1035,3.31992,-0.0106288,0.272899,0.96406
1336,1032,3.32115,-0.00958763,0.272199,0.963532
1339,1029,3.3203,-0.00967377,0.272597,0.963304
1342,1026,3.3202,-0.0120253,0.273001,0.964546
1345,1023,3.32061,-0.0119035,0.272593,0.963297
1348,1020,3.31957,-0.0109308,0.272994,0.962386
1351,1017,3.32016,-0.0109334,0.272594,0.962572
1354,1014,3.32103,-0.00679583,0.271748,0.961432
1357,1011,3.32091,-0.00799297,0.271748,0.960764
1360,1008,3.32093,-0.0137677,0.27119,0.961297
1363,1005,3.32031,-0.0145563,0.271733,0.960685
1366,1002,3.32056,-0.0144749,0.271327,0.960901
1369,999,3.31965,-0.0135884,0.271723,0.95993
1372,996,3.31932,-0.0142469,0.271722,0.959551
1375,993,3.32003,-0.014166,0.271321,0.959767
1378,990,3.31907,-0.0149703,0.272131,0.958983
1381,987,3.3215,-0.0106069,0.270074,0.958468
1384,984,3.32079,-0.0106794,0.270471,0.958243
1387,981,3.32028,-0.0113248,0.270465,0.957864
1390,978,3.32037,-0.0113154,0.270469,0.957877
1393,975,3.31984,-0.0119795,0.270864,0.957306
1396,972,3.3203,-0.0119247,0.270466,0.957504
1399,969,3.31951,-0.0110533,0.270468,0.956994
1402,966,3.31904,-0.0116231,0.270867,0.956229
1405,963,3.32135,-0.0083673,0.269219,0.956207
1408,960,3.32058,-0.00909151,0.269633,0.955655
1411,957,3.32105,-0.00802605,0.269148,0.955157
1414,954,3.31977,-0.00877659,0.270022,0.954606
1417,951,3.3206,-0.00859049,0.26922,0.954809
1420,948,3.3187,-0.016077,0.270025,0.95396
1423,945,3.31872,-0.0165941,0.270022,0.953653
1426,942,3.32068,-0.0117586,0.26837,0.953237
1429,939,3.32021,-0.0123246,0.268373,0.952912
1432,936,3.32052,-0.0129411,0.26836,0.95254
1435,933,3.31959,-0.0104361,0.268441,0.951418
1438,930,3.32046,-0.0102336,0.267572,0.951863
1441,927,3.31932,-0.0110795,0.268364,0.951029
1444,924,3.31918,-0.0110044,0.268362,0.951068
1447,921,3.31849,-0.011776,0.268761,0.950458
1450,918,3.31949,-0.00999537,0.268363,0.95053
1453,915,3.32034,-0.00740779,0.266697,0.949728
1456,912,3.31943,-0.00983086,0.267903,0.949304
1459,909,3.31957,-0.00876575,0.267498,0.948786
1462,906,3.31921,-0.0104914,0.267908,0.948936
1465,903,3.3194,-0.0143514,0.267106,0.948248
1468,900,3.31862,-0.0166542,0.267506,0.948093
1471,897,3.3201,-0.0124397,0.266724,0.946955
1474,894,3.32011,-0.0140826,0.266655,0.947314
1477,891,3.32051,-0.0129988,0.266248,0.94679
1480,888,3.31932,-0.013117,0.26665,0.946568
1483,885,3.31926,-0.0127622,0.266656,0.9455
1486,882,3.31831,-0.0144766,0.267058,0.945645
1489,879,3.32083,-0.00844939,0.265004,0.94474
1492,876,3.32011,-0.0091578,0.265397,0.94417
1495,873,3.31966,-0.0082347,0.265407,0.943418
1498,870,3.31972,-0.0098651,0.265405,0.94378
1501,867,3.3197,-0.0135811,0.264605,0.943172
1504,864,3.31844,-0.00958329,0.265803,0.942485
1507,861,3.3181,-0.0168194,0.265801,0.942153
1510,858,3.31883,-0.0142388,0.264826,0.941552
1513,855,3.3193,-0.0130791,0.264544,0.94089
1516,852,3.31914,-0.013785,0.264549,0.940512
1519,849,3.31918,-0.0120949,0.26415,0.940324
1522,846,3.31892,-0.0127418,0.264152,0.939972
1525,843,3.31791,-0.0135686,0.264555,0.939356
1528,840,3.32067,-0.00911437,0.262897,0.938665
1531,837,3.31896,-0.00995158,0.264095,0.936465
1534,834,3.31894,-0.0104436,0.263695,0.93759
1537,831,3.31871,-0.0104853,0.26368,0.937499
1540,828,3.31856,-0.00950186,0.263182,0.936951
1543,825,3.31812,-0.0118882,0.264145,0.93657
1546,822,3.31952,-0.0141691,0.262427,0.935838
1549,819,3.31962,-0.00753334,0.262423,0.935818
1552,816,3.31893,-0.014902,0.262818,0.935246
1555,813,3.31857,-0.0155257,0.262821,0.934909
1558,810,3.3184,-0.0155886,0.262808,0.93483
1561,807,3.31788,-0.0151956,0.26281,0.933792
1564,804,3.31924,-0.01265,0.261963,0.932989
1567,801,3.31912,-0.00985689,0.26183,0.93213
1570,798,3.31884,-0.0131998,0.261957,0.932678
1573,795,3.31825,-0.0122101,0.261956,0.931934
1576,792,3.31785,-0.0111982,0.261956,0.931213
1579,789,3.31771,-0.0119242,0.261953,0.930807
1582,786,3.31904,-0.00933514,0.261102,0.930006
1585,783,3.31906,-0.00992889,0.261102,0.929695
1588,780,3.31819,-0.00898029,0.2611,0.928924
1591,777,3.31845,-0.00951759,0.261097,0.92862
1594,774,3.31727,-0.0102941,0.261504,0.928041
1597,771,3.31951,-0.0125679,0.259843,0.927314
1600,768,3.31851,-0.0150942,0.260639,0.926871
1603,765,3.31815,-0.0157389,0.260644,0.926534
1606,762,3.3175,-0.0147302,0.260641,0.925795
1609,759,3.3172,-0.0153663,0.260245,0.925441
1612,756,3.31877,-0.0110173,0.259394,0.924515
1615,753,3.31854,-0.011613,0.259392,0.924188
1618,750,3.31851,-0.0106471,0.259398,0.923619
1621,747,3.31738,-0.0113326,0.259782,0.92287
1624,744,3.31742,-0.0119635,0.259777,0.922509
1627,741,3.3184,-0.00937537,0.259187,0.921684
1630,738,3.31845,-0.00825189,0.258515,0.921178
1633,735,3.31876,-0.00823549,0.258125,0.921368
1636,732,3.31714,-0.0164512,0.258918,0.920266
1639,729,3.31724,-0.0104182,0.258925,0.919879
1642,726,3.31814,-0.0144908,0.25806,0.919118
1645,723,3.31792,-0.0134933,0.258326,0.918374
1648,720,3.31752,-0.0141319,0.258063,0.918038
1651,717,3.31699,-0.0130892,0.258059,0.917304
1654,714,3.31676,-0.0137381,0.258052,0.916941
1657,711,3.31809,-0.00943839,0.256805,0.915949
1660,708,3.31777,-0.0101314,0.256801,0.915572
1663,705,3.3176,-0.0124242,0.257196,0.915447
1666,702,3.31654,-0.0131946,0.257992,0.914843
1669,699,3.31832,-0.00704577,0.255935,0.913713
1672,696,3.31785,-0.0145003,0.255939,0.913386
1675,693,3.31747,-0.0151351,0.255927,0.913044
1678,690,3.31723,-0.0147498,0.255928,0.911956
1681,687,3.31675,-0.0165861,0.256323,0.912084
1684,684,3.3175,-0.0147155,0.25586,0.910687
1687,681,3.31745,-0.0135412,0.255464,0.910211
1690,678,3.31682,-0.014315,0.255864,0.909642
1693,675,3.31557,-0.0151038,0.25626,0.909285
1696,672,3.31582,-0.0138874,0.255859,0.908575
1699,669,3.31783,-0.00932918,0.25447,0.907856
1702,666,3.31705,-0.010155,0.254601,0.907246
1705,663,3.3167,-0.010806,0.254594,0.906879
1708,660,3.31668,-0.00970568,0.254196,0.906358
1711,657,3.31742,-0.00776395,0.253728,0.904981
1714,654,3.31668,-0.00852248,0.254135,0.904416
1717,651,3.31625,-0.0160855,0.254131,0.904088
1720,648,3.31585,-0.0167782,0.254144,0.903762
1723,645,3.3174,-0.0123782,0.252878,0.902748
1726,642,3.31735,-0.0147934,0.253272,0.902594
1729,639,3.31693,-0.015421,0.253269,0.902252
1732,636,3.31583,-0.0133457,0.253666,0.900776
1735,633,3.315,-0.0140475,0.253665,0.900487
1738,630,3.31701,-0.0113416,0.252403,0.899618
1741,627,3.31667,-0.0103048,0.252006,0.899052
1744,624,3.31606,-0.00982221,0.251993,0.897991
1747,621,3.31605,-0.0105446,0.251997,0.897635
1750,618,3.31708,-0.00792119,0.251137,0.896794
1753,615,3.31594,-0.0155222,0.251531,0.896309
1756,612,3.31561,-0.0151835,0.251538,0.89522
1759,609,3.31517,-0.0177161,0.251945,0.895024
1762,606,3.31645,-0.0113976,0.250677,0.893861
1765,603,3.31633,-0.0138275,0.250673,0.893716
1768,600,3.31635,-0.0143592,0.250266,0.893602
1771,597,3.31539,-0.0141674,0.250672,0.892269
1774,594,3.31735,-0.00793804,0.248761,0.891251
1777,591,3.31687,-0.00847385,0.249019,0.890824
1780,588,3.31595,-0.0118864,0.249812,0.889986
1783,585,3.31498,-0.0106954,0.2498,0.889279
1786,582,3.3171,-0.00785555,0.248537,0.888715
1789,579,3.31628,-0.0156453,0.248938,0.888165
1792,576,3.31604,-0.00932521,0.248928,0.887762
1795,573,3.31505,-0.0170997,0.249593,0.887231
1798,570,3.31671,-0.0131227,0.247667,0.885976
1801,567,3.31593,-0.0140111,0.248064,0.885767
1804,564,3.31561,-0.0128445,0.24767,0.885022
1807,561,3.31457,-0.0143933,0.248465,0.883873
1810,558,3.31651,-0.00966181,0.246801,0.883163
1813,555,3.31628,-0.0103697,0.246799,0.8828
1816,552,3.31543,-0.0112124,0.247199,0.882203
1819,549,3.31438,-0.0177953,0.247454,0.881183
1822,546,3.31653,-0.00785282,0.245929,0.880596
1825,543,3.31584,-0.0105531,0.246726,0.880142
1828,540,3.31473,-0.0166391,0.246722,0.879394
1831,537,3.31477,-0.015367,0.246323,0.878936
1834,534,3.31679,-0.0114435,0.24466,0.878054
1837,531,3.31575,-0.014118,0.245452,0.877372
1840,528,3.31517,-0.0129871,0.245575,0.876657
1843,525,3.315,-0.0117831,0.24505,0.876151
1846,522,3.3167,-0.00890431,0.24378,0.87559
1849,519,3.31539,-0.0123902,0.244978,0.874579
1852,516,3.31446,-0.0132351,0.245375,0.873956
1855,513,3.31465,-0.0119926,0.244975,0.873501
1858,510,3.31608,-0.00796973,0.243713,0.872246
1861,507,3.31503,-0.0159405,0.244373,0.871683
1864,504,3.3145,-0.0166659,0.244106,0.8713
1867,501,3.31426,-0.017365,0.244103,0.870947
1870,498,3.31573,-0.0152556,0.243231,0.869792
1873,495,3.31569,-0.00878069,0.243227,0.869415
1876,492,3.3142,-0.0150424,0.243628,0.868437
1879,489,3.31402,-0.014576,0.243226,0.867563
1882,486,3.31531,-0.0118399,0.242362,0.86653
1885,483,3.31523,-0.0124978,0.242367,0.866448
1888,480,3.31422,-0.0132355,0.242755,0.865881
1891,477,3.3139,-0.0109949,0.242371,0.864652
1894,474,3.3144,-0.00991246,0.241679,0.864267
1897,471,3.3153,-0.0106099,0.241488,0.863888
1900,468,3.31434,-0.00962645,0.241479,0.863081
1903,465,3.31315,-0.0183767,0.241876,0.862179
1906,462,3.31523,-0.0135727,0.24021,0.861445
1909,459,3.31499,-0.014297,0.240211,0.86109
1912,456,3.31403,-0.014013,0.240615,0.8598
1915,453,3.31561,-0.0111264,0.239343,0.859206
1918,450,3.31507,-0.00887267,0.238944,0.857924
1921,447,3.31468,-0.00958338,0.238944,0.857588
1924,444,3.31423,-0.0102981,0.238943,0.857231
1927,441,3.31546,-0.0136159,0.237673,0.855904
1930,438,3.31464,-0.014332,0.238064,0.855373
1933,435,3.31512,-0.0114355,0.236968,0.854787
1936,432,3.31416,-0.0157997,0.23818,0.854646
1939,429,3.31305,-0.0183755,0.238853,0.854095
1942,426,3.31488,-0.0136805,0.237582,0.853305
1945,423,3.31426,-0.0133021,0.237975,0.852207
1948,420,3.31363,-0.0141226,0.237978,0.851637
1951,417,3.31292,-0.0167027,0.238372,0.851465
1954,414,3.31466,-0.0101525,0.236695,0.85025
1957,411,3.31404,-0.0115597,0.237094,0.849183
1960,408,3.31373,-0.0122173,0.237089,0.849052
1963,405,3.31274,-0.0149725,0.237886,0.84863
1966,402,3.31455,-0.0100902,0.236207,0.847864
1969,399,3.31378,-0.0108707,0.236603,0.847304
1972,396,3.31324,-0.0105122,0.236605,0.846206
1975,393,3.31257,-0.0187285,0.236612,0.845868
1978,390,3.31385,-0.0158417,0.235729,0.84505
1981,387,3.3138,-0.0146517,0.235331,0.844524
1984,384,3.31306,-0.0161315,0.235724,0.843629
1987,381,3.31284,-0.0167351,0.235723,0.843334
1990,378,3.31417,-0.0139447,0.234847,0.842483
1993,375,3.31309,-0.0147611,0.235242,0.841907
1996,372,3.31271,-0.0143483,0.235244,0.840827
1999,369,3.31256,-0.0131902,0.234843,0.840288
2002,366,3.31446,-0.0102091,0.233569,0.839975
2005,363,3.31323,-0.00994065,0.233967,0.838382
2008,360,3.31289,-0.0106051,0.233967,0.838062
2011,357,3.31451,-0.015109,0.232801,0.837492
2014,354,3.31407,-0.0157967,0.232686,0.837171
2017,351,3.31321,-0.0174193,0.233083,0.836212
2020,348,3.31267,-0.0143874,0.232684,0.835281
2023,345,3.31444,-0.0113504,0.231406,0.834707
2026,342,3.31405,-0.0109426,0.231404,0.833624
2029,339,3.31354,-0.0136021,0.2318,0.833461
2032,336,3.31275,-0.0125377,0.2318,0.83268
2035,333,3.31422,-0.00948624,0.230917,0.831925
2038,330,3.31382,-0.0102375,0.230916,0.83158
2041,327,3.31316,-0.0110863,0.231315,0.831002
2044,324,3.3124,-0.0107994,0.231315,0.829862
2047,321,3.31199,-0.0114371,0.231315,0.829557
2050,318,3.31373,-0.0159375,0.230032,0.829014
2053,315,3.31287,-0.0168054,0.230429,0.828429
2056,312,3.31206,-0.0183612,0.230827,0.827517
2059,309,3.31361,-0.0134487,0.229542,0.826528
2062,306,3.31358,-0.0122335,0.22914,0.825991
2065,303,3.31291,-0.0137491,0.229536,0.825099
2068,300,3.31229,-0.0164942,0.229941,0.824927
2071,297,3.31396,-0.00963035,0.228258,0.823741
2074,294,3.31316,-0.0104139,0.228652,0.82318
2077,291,3.31323,-0.00994802,0.228254,0.822306
2080,288,3.31223,-0.0127199,0.229046,0.821921
2083,285,3.31122,-0.011628,0.229045,0.821137
2086,282,3.31295,-0.0162656,0.227764,0.820388
2089,279,3.31301,-0.0157026,0.227366,0.819739
2092,276,3.31211,-0.0165878,0.227762,0.819152
2095,273,3.3134,-0.0135789,0.226875,0.81835
2098,270,3.31282,-0.0131847,0.226871,0.817243
2101,267,3.31284,-0.0119524,0.226471,0.816715
2104,264,3.31232,-0.014642,0.226977,0.816559
2107,261,3.31112,-0.0155281,0.227262,0.815966
2110,258,3.31329,-0.0104138,0.225579,0.815219
2113,255,3.3125,-0.0112591,0.225974,0.814641
2116,252,3.31225,-0.0100486,0.225576,0.814093
2119,249,3.31132,-0.0193803,0.225976,0.813211
2122,246,3.31279,-0.0164011,0.22509,0.8124
2125,243,3.31228,-0.0159562,0.22509,0.811338
2128,240,3.31215,-0.0166855,0.225087,0.810986
2131,237,3.31115,-0.0175773,0.225481,0.810394
2134,234,3.31308,-0.0124815,0.223799,0.80962
2137,231,3.31306,-0.0111633,0.223399,0.809122
2140,228,3.3121,-0.0140376,0.224191,0.808725
2143,225,3.31116,-0.0149299,0.224696,0.808129
2146,222,3.31275,-0.0107097,0.223305,0.806784
2149,219,3.31282,-0.00937632,0.222915,0.806328
2152,216,3.31254,-0.0101327,0.223149,0.805964
2155,213,3.31177,-0.0117345,0.223311,0.805073
2158,210,3.31262,-0.016527,0.222415,0.804262
2161,207,3.31233,-0.0172695,0.222413,0.803913
2164,204,3.31232,-0.0160014,0.222013,0.803389
2167,201,3.31131,-0.0188811,0.222804,0.803003
2170,198,3.31278,-0.0145648,0.221513,0.801661
2173,195,3.3121,-0.0134081,0.221517,0.80091
2176,192,3.31181,-0.0142034,0.221516,0.800563
2179,189,3.31097,-0.0150798,0.221917,0.799987
2182,186,3.31328,-0.00868099,0.219835,0.798682
2185,183,3.31243,-0.00948024,0.220228,0.798144
2188,180,3.31218,-0.0102406,0.220227,0.797789
2191,177,3.31181,-0.0109706,0.220228,0.797477
2194,174,3.31299,-0.00790992,0.219333,0.796635
2197,171,3.31228,-0.0154104,0.21933,0.795561
2200,168,3.31102,-0.0183263,0.220122,0.795179
2203,165,3.31076,-0.0191154,0.220117,0.794813
2206,162,3.31027,-0.0159428,0.219722,0.793863
2209,159,3.31253,-0.0127619,0.218441,0.793305
2212,156,3.31155,-0.0143245,0.218835,0.792435
2215,153,3.31258,-0.0092458,0.217235,0.791604
2218,150,3.31184,-0.0080342,0.217234,0.790861
2221,147,3.31259,-0.0174232,0.217148,0.790233
2224,144,3.31205,-0.0103217,0.21754,0.789654
2227,141,3.31115,-0.0191159,0.217539,0.789308
2230,138,3.31054,-0.0179361,0.217537,0.78854
2233,135,3.31262,-0.0146859,0.216243,0.787963
2236,132,3.31154,-0.0176461,0.217029,0.787576
2239,129,3.31135,-0.0164467,0.216589,0.787021
2242,126,3.3122,-0.0120141,0.215429,0.785967
2245,123,3.31213,-0.0107169,0.215036,0.785195
2248,120,3.31188,-0.0136765,0.215743,0.784796
2251,117,3.31116,-0.0125926,0.21574,0.783984
2254,114,3.31092,-0.0132043,0.215739,0.783718
2257,111,3.31324,-0.00797982,0.214056,0.78292
2260,108,3.31163,-0.00979009,0.214942,0.781748
2263,105,3.31081,-0.0185899,0.214839,0.781445
2266,102,3.3106,-0.0193444,0.214838,0.781118
2269,99,3.31222,-0.0162372,0.213939,0.780304
2272,96,3.3119,-0.0149938,0.213545,0.779749
2275,93,3.31123,-0.0144799,0.213545,0.778687
2278,90,3.31092,-0.0152969,0.213544,0.778337
2281,87,3.31139,-0.0121917,0.212709,0.777515
2284,84,3.31159,-0.0110069,0.212642,0.776737
2287,81,3.31168,-0.00969337,0.212249,0.776471
2290,78,3.31108,-0.012524,0.21264,0.776087
2293,75,3.31033,-0.0114218,0.212638,0.775277
2296,72,3.31163,-0.0170951,0.211737,0.774179
2299,69,3.31284,-0.0138163,0.210504,0.773627
2302,66,3.3105,-0.0187742,0.212129,0.773277
2305,63,3.311,-0.0156344,0.211286,0.772465
2308,60,3.31099,-0.0143309,0.21089,0.771938
2311,57,3.31324,-0.0109374,0.209594,0.771416
2314,54,3.31237,-0.010673,0.209821,0.770236
2317,51,3.31177,-0.00943526,0.209589,0.769477
2320,48,3.31,-0.0142568,0.210829,0.769387
2323,45,3.31116,-0.0109473,0.209586,0.768821
2326,42,3.31254,-0.00780042,0.208679,0.767998
2329,39,3.31191,-0.00664151,0.208679,0.767211
2332,36,3.3117,-0.00732028,0.208676,0.766914
2335,33,3.31106,-0.00827271,0.208676,0.766522
2338,30,3.31262,-0.0119255,0.207383,0.765229
2341,27,3.3124,-0.0126896,0.207383,0.764916
2344,24,3.3116,-0.0115769,0.207385,0.764103
2347,21,3.31129,-0.012311,0.207381,0.763793
2350,18,3.31048,-0.0131407,0.20786,0.763235
2353,15,3.31275,-0.00978598,0.206463,0.762658
2356,12,3.31028,-0.0148551,0.208107,0.762299
2359,9,3.31083,-0.00954069,0.20685,0.761284
2362,6,3.31058,-0.0103366,0.207236,0.760952
2365,3,3.31137,-0.0090399,0.206421,0.760402