File: hust_correlation_analysis/matrices/HUST_7-2_cycle_feature_matrix.csv
cycle_number,rul,voltage,current,capacity,charge_capacity
1,2032,3.32386,0.00744738,0.261618,1.01614
3,2030,3.30534,-0.0210417,0.276876,0.996508
5,2028,3.30702,-0.0179134,0.274986,0.998983
7,2026,3.30857,-0.0186105,0.274741,1.00165
9,2024,3.30996,-0.0178406,0.273425,1.00282
11,2022,3.31048,-0.0183141,0.273201,1.00554
13,2020,3.31111,-0.0174925,0.272333,1.00646
15,2018,3.31167,-0.0169453,0.271906,1.00699
17,2016,3.31266,-0.0168108,0.271053,1.00761
19,2014,3.31405,-0.0160775,0.270206,1.00847
21,2012,3.3139,-0.0159784,0.26979,1.00881
23,2010,3.3142,-0.0161522,0.269787,1.00874
25,2008,3.31416,-0.016821,0.26979,1.00872
27,2006,3.31578,-0.0160565,0.269054,1.00935
29,2004,3.31434,-0.0166777,0.268945,1.00907
31,2002,3.31636,-0.0167079,0.268524,1.00932
33,2000,3.31471,-0.0166087,0.268514,1.00934
35,1998,3.31627,-0.0166142,0.268093,1.00956
37,1996,3.31563,-0.0173437,0.268089,1.00924
39,1994,3.31548,-0.0172776,0.268089,1.00927
41,1992,3.31492,-0.0171657,0.268084,1.00931
43,1990,3.31619,-0.0178836,0.268085,1.00899
45,1988,3.3157,-0.0145539,0.267014,1.00838
47,1986,3.31731,-0.0152015,0.267012,1.00809
49,1984,3.31654,-0.0153025,0.267007,1.00802
51,1982,3.31671,-0.0152199,0.267459,1.00805
53,1980,3.31553,-0.0160123,0.267424,1.00745
55,1978,3.31599,-0.016643,0.267423,1.00717
57,1976,3.31591,-0.0168095,0.267832,1.0071
59,1974,3.31549,-0.0167519,0.267425,1.00711
61,1972,3.31545,-0.0174388,0.267424,1.00682
63,1970,3.31465,-0.0180921,0.267841,1.00627
65,1968,3.31586,-0.0179842,0.267422,1.0066
67,1966,3.31666,-0.0147667,0.266357,1.00592
69,1964,3.31646,-0.0154237,0.266015,1.00563
71,1962,3.31659,-0.0160971,0.266766,1.00506
73,1960,3.3164,-0.0162262,0.266774,1.00502
75,1958,3.31534,-0.0167787,0.267186,1.00449
77,1956,3.31603,-0.0169484,0.267183,1.00441
79,1954,3.31501,-0.0174342,0.267181,1.00445
81,1952,3.31591,-0.0176318,0.267182,1.00413
83,1950,3.31412,-0.0178263,0.267609,1.00377
85,1948,3.31747,-0.0148419,0.265708,1.00359
87,1946,3.31652,-0.0154881,0.266127,1.00305
89,1944,3.31702,-0.0155614,0.266087,1.003
91,1942,3.31541,-0.0162391,0.266537,1.00244
93,1940,3.31677,-0.0161339,0.266119,1.00274
95,1938,3.31606,-0.0169144,0.266535,1.00212
97,1936,3.31577,-0.0169801,0.266538,1.00209
99,1934,3.31552,-0.0168291,0.26664,1.00215
101,1932,3.31539,-0.017688,0.266952,1.00149
103,1930,3.31457,-0.0175537,0.266951,1.00155
105,1928,3.3154,-0.0178302,0.266954,1.00142
107,1926,3.31367,-0.0184101,0.267377,1.00093
109,1924,3.31758,-0.014902,0.265465,1.00093
111,1922,3.3159,-0.0156092,0.26589,1.00037
113,1920,3.31617,-0.0164103,0.266316,0.999775
115,1918,3.31561,-0.0163374,0.266318,0.999811
117,1916,3.31586,-0.0164036,0.266313,0.999773
119,1914,3.31479,-0.0170539,0.266731,0.999206
121,1912,3.3158,-0.017094,0.26631,0.99945
123,1910,3.31468,-0.0171598,0.266669,0.999156
125,1908,3.31487,-0.0177258,0.266727,0.998885
127,1906,3.31477,-0.0176509,0.266728,0.998922
129,1904,3.31449,-0.0177783,0.266726,0.998855
131,1902,3.31408,-0.0183803,0.267146,0.998319
133,1900,3.31377,-0.0185195,0.267255,0.998267
135,1898,3.31523,-0.0156847,0.266079,0.997436
137,1896,3.31584,-0.0158512,0.266083,0.997372
139,1894,3.31468,-0.0164452,0.266509,0.996858
141,1892,3.31542,-0.0163186,0.266082,0.997175
143,1890,3.31519,-0.0163658,0.266082,0.997147
145,1888,3.3145,-0.0171059,0.266501,0.996556
147,1886,3.31486,-0.0170301,0.2665,0.99657
149,1884,3.31358,-0.0171194,0.26692,0.996237
151,1882,3.31417,-0.0177886,0.266925,0.995745
153,1880,3.3136,-0.0178512,0.267319,0.995902
155,1878,3.31456,-0.017746,0.2665,0.996264
157,1876,3.31283,-0.0185234,0.267348,0.995359
159,1874,3.31433,-0.0184408,0.266926,0.995686
161,1872,3.31461,-0.0150475,0.265839,0.995029
163,1870,3.31604,-0.0158611,0.265848,0.994722
165,1868,3.31414,-0.01558,0.265855,0.994861
167,1866,3.31543,-0.0165002,0.266688,0.9942
169,1864,3.31435,-0.0166144,0.26628,0.994149
171,1862,3.3145,-0.0165469,0.266277,0.994176
173,1860,3.31452,-0.0172062,0.266275,0.993886
175,1858,3.31427,-0.0173945,0.266707,0.993535
177,1856,3.31386,-0.0171696,0.266274,0.993891
179,1854,3.31393,-0.0174187,0.266705,0.993516
181,1852,3.31346,-0.0179419,0.266702,0.993275
183,1850,3.31362,-0.0179904,0.266699,0.99325
185,1848,3.31253,-0.0179128,0.267132,0.993025
187,1846,3.31295,-0.0186907,0.267133,0.992664
189,1844,3.31272,-0.0186009,0.26713,0.992495
191,1842,3.31445,-0.0151271,0.265617,0.992384
193,1840,3.31467,-0.0158162,0.266046,0.991833
195,1838,3.31418,-0.0158617,0.266052,0.99181
197,1836,3.31401,-0.0158398,0.266048,0.991826
199,1834,3.31464,-0.0165019,0.265668,0.991546
201,1832,3.31423,-0.0165303,0.266046,0.991517
203,1830,3.31355,-0.0165201,0.266047,0.991532
205,1828,3.31411,-0.0173576,0.266477,0.99089
207,1826,3.31277,-0.0172934,0.266474,0.990897
209,1824,3.31401,-0.0175049,0.266942,0.990835
211,1822,3.31227,-0.0180728,0.266905,0.990304
213,1820,3.31404,-0.0181227,0.266475,0.990557
215,1818,3.31205,-0.018126,0.266901,0.990266
217,1816,3.3123,-0.0180555,0.266899,0.988926
219,1814,3.31294,-0.0187368,0.266903,0.990014
221,1812,3.3115,-0.018814,0.267338,0.989709
223,1810,3.31258,-0.0186187,0.266896,0.990056
225,1808,3.31165,-0.018623,0.267318,0.989721
227,1806,3.31427,-0.0154885,0.265814,0.989256
229,1804,3.31339,-0.016008,0.265807,0.989031
231,1802,3.31433,-0.0160971,0.265813,0.989013
233,1800,3.31355,-0.0160037,0.265807,0.989051
235,1798,3.31349,-0.0168487,0.266243,0.988406
237,1796,3.31288,-0.0167553,0.266248,0.988468
239,1794,3.31322,-0.0168183,0.266245,0.988435
241,1792,3.31217,-0.0174614,0.266676,0.987879
243,1790,3.31264,-0.0175296,0.266678,0.987851
245,1788,3.31228,-0.0174632,0.266681,0.987887
247,1786,3.31194,-0.0173748,0.267014,0.987938
249,1784,3.31284,-0.0181846,0.266683,0.987613
251,1782,3.31161,-0.0182169,0.266684,0.987592
253,1780,3.31287,-0.0183288,0.267019,0.987547
255,1778,3.31161,-0.0189067,0.266684,0.987293
257,1776,3.31266,-0.0189996,0.266679,0.98724
259,1774,3.31099,-0.0189748,0.267121,0.98699
261,1772,3.31141,-0.0190172,0.267457,0.986975
263,1770,3.31354,-0.0154114,0.265583,0.986624
265,1768,3.31264,-0.0161187,0.266014,0.986037
267,1766,3.31389,-0.0159818,0.265978,0.986343
269,1764,3.31221,-0.0159908,0.266002,0.986031
271,1762,3.31322,-0.0161051,0.266003,0.985972
273,1760,3.3123,-0.0160977,0.265989,0.985959
275,1758,3.31226,-0.0164784,0.266437,0.985532
277,1756,3.31209,-0.0161998,0.266418,0.985611
279,1754,3.31208,-0.0163919,0.266415,0.985497
281,1752,3.31189,-0.0167165,0.266427,0.985401
283,1750,3.31081,-0.0172035,0.266598,0.984877
285,1748,3.31155,-0.0176095,0.266871,0.985016
287,1746,3.311,-0.017719,0.266872,0.984721
289,1744,3.31196,-0.0176211,0.266428,0.985031
291,1742,3.31154,-0.0176143,0.26653,0.985033
293,1740,3.3112,-0.0178011,0.266869,0.984685
295,1738,3.31096,-0.0183097,0.266863,0.984458
297,1736,3.31044,-0.0186063,0.267306,0.984063
299,1734,3.30984,-0.0183856,0.267305,0.984152
301,1732,3.3104,-0.0185642,0.267302,0.984075
303,1730,3.31025,-0.0191282,0.267312,0.983865
305,1728,3.31272,-0.0155523,0.265344,0.983837
307,1726,3.31254,-0.0162818,0.265792,0.983289
309,1724,3.31204,-0.0162489,0.265785,0.983294
311,1722,3.31226,-0.016424,0.265791,0.983214
313,1720,3.31224,-0.0168571,0.26579,0.983059
315,1718,3.31197,-0.0170958,0.265788,0.982941
317,1716,3.31172,-0.0168563,0.265785,0.983037
319,1714,3.31185,-0.0169933,0.265787,0.983196
321,1712,3.31211,-0.0175865,0.265786,0.982753
323,1710,3.31076,-0.0177951,0.266223,0.982351
325,1708,3.31173,-0.0178264,0.266222,0.982352
327,1706,3.31066,-0.0178779,0.266221,0.982311
329,1704,3.31061,-0.0186488,0.266668,0.981743
331,1702,3.3109,-0.0184939,0.26623,0.982089
333,1700,3.31053,-0.0184469,0.26623,0.982125
335,1698,3.31103,-0.0191108,0.266339,0.981865
337,1696,3.31069,-0.019133,0.266239,0.981873
339,1694,3.31341,-0.0156104,0.264706,0.981512
341,1692,3.31191,-0.0162769,0.26514,0.980944
343,1690,3.31304,-0.0164885,0.265139,0.980842
345,1688,3.31163,-0.0162587,0.265133,0.980917
347,1686,3.31208,-0.0163476,0.265104,0.98087
349,1684,3.31226,-0.016993,0.265574,0.980338
351,1682,3.31143,-0.0170064,0.26557,0.980318
353,1680,3.31174,-0.0169096,0.265566,0.980337
355,1678,3.31132,-0.0170986,0.265574,0.980284
357,1676,3.31122,-0.017212,0.26557,0.980225
359,1674,3.31089,-0.0178979,0.266017,0.979691
361,1672,3.31071,-0.0180515,0.26602,0.979628
363,1670,3.31097,-0.0176645,0.265582,0.98011
365,1668,3.31067,-0.0186219,0.266427,0.979407
367,1666,3.310654,-0.0186387,0.266024,0.979408
369,1664,3.31027,-0.0186376,0.266122,0.979165
371,1662,3.3106,-0.0187184,0.266019,0.97937
373,1660,3.30989,-0.0194143,0.266469,0.978806
375,1658,3.30927,-0.0193912,0.266462,0.978806
377,1656,3.310778,-0.0193233,0.266022,0.979127
379,1654,3.30965,-0.019238,0.266013,0.979138
381,1652,3.31282,-0.0157439,0.264477,0.978766
383,1650,3.31172,-0.0165473,0.264924,0.978164
385,1648,3.31163,-0.0164729,0.26492,0.978192
387,1646,3.31145,-0.0163589,0.264916,0.978225
389,1644,3.31105,-0.0172917,0.26537,0.977583
391,1642,3.31166,-0.0170437,0.265033,0.97799
393,1640,3.31138,-0.0171156,0.26493,0.977971
395,1638,3.31152,-0.0180515,0.265375,0.977303
397,1636,3.31075,-0.0179031,0.265372,0.977355
399,1634,3.31065,-0.0179564,0.265364,0.977309
401,1632,3.31119,-0.017804,0.265368,0.977402
403,1630,3.31027,-0.0180196,0.265693,0.977273
405,1628,3.31142,-0.0186397,0.265368,0.977029
407,1626,3.30962,-0.0187872,0.265807,0.976683
409,1624,3.31019,-0.0187723,0.265808,0.97669
411,1622,3.30991,-0.0188455,0.265813,0.976674
413,1620,3.30888,-0.0194521,0.266245,0.976112
415,1618,3.31049,-0.019514,0.26578,0.976389
417,1616,3.30894,-0.0193925,0.266151,0.976454
419,1614,3.31254,-0.015961,0.264263,0.976025
421,1612,3.31087,-0.0166069,0.264718,0.975516
423,1610,3.3115,-0.016756,0.264719,0.975454
425,1608,3.31096,-0.0164651,0.264712,0.975564
427,1606,3.31128,-0.0172636,0.264716,0.975245
429,1604,3.31133,-0.0173184,0.264713,0.975214
431,1602,3.31092,-0.0173018,0.264718,0.975227
433,1600,3.31077,-0.0173904,0.264817,0.975189
435,1598,3.31068,-0.0180204,0.265163,0.974652
437,1596,3.31001,-0.0179562,0.265158,0.97467
439,1594,3.31135,-0.0178496,0.264714,0.975005
441,1592,3.30989,-0.0180955,0.265156,0.974599
443,1590,3.31123,-0.0180248,0.264711,0.974918
445,1588,3.31002,-0.018767,0.265157,0.974331
447,1586,3.3099,-0.0187094,0.265161,0.974376
449,1584,3.31051,-0.0187138,0.265164,0.974391
451,1582,3.30918,-0.0195261,0.265613,0.973777
453,1580,3.30999,-0.0196344,0.265618,0.973748
455,1578,3.30875,-0.0195542,0.265616,0.973766
457,1576,3.31148,-0.0158951,0.264063,0.97344
459,1574,3.31166,-0.0164017,0.264064,0.973235
461,1572,3.31038,-0.0166144,0.26491,0.972826
463,1570,3.31179,-0.0166111,0.264056,0.97163
465,1568,3.31026,-0.0166724,0.264498,0.972797
467,1566,3.31073,-0.0167296,0.264597,0.972765
469,1564,3.31083,-0.017396,0.264495,0.972477
471,1562,3.31008,-0.0173105,0.264492,0.972499
473,1560,3.31075,-0.0175074,0.264496,0.972441
475,1558,3.30997,-0.0183014,0.264956,0.971872
477,1556,3.30965,-0.0183365,0.264957,0.971874
479,1554,3.31015,-0.0181288,0.264955,0.971949
481,1552,3.3095,-0.0187585,0.265362,0.971692
483,1550,3.31025,-0.0188893,0.264959,0.971655
485,1548,3.30953,-0.018981,0.264963,0.971622
487,1546,3.30925,-0.0188989,0.264962,0.971659
489,1544,3.30954,-0.0196324,0.265407,0.971078
491,1542,3.30851,-0.0196388,0.265407,0.971066
493,1540,3.31007,-0.0196427,0.264955,0.971353
495,1538,3.30832,-0.0197593,0.265403,0.971
497,1536,3.31129,-0.016156,0.263843,0.970644
499,1534,3.31004,-0.0167176,0.264293,0.970105
501,1532,3.31112,-0.0167285,0.263842,0.970392
503,1530,3.31062,-0.0166884,0.263842,0.969116
505,1528,3.31097,-0.016778,0.26385,0.97039
507,1526,3.31002,-0.0176041,0.264401,0.969781
509,1524,3.31052,-0.0174186,0.264302,0.969867
511,1522,3.30974,-0.0174247,0.264301,0.969859
513,1520,3.31106,-0.0181536,0.264298,0.969559
515,1518,3.30904,-0.0182841,0.264745,0.969199
517,1516,3.31029,-0.0183526,0.264286,0.969426
519,1514,3.3095,-0.0181753,0.264286,0.969495
521,1512,3.30968,-0.0180834,0.264278,0.969357
523,1510,3.30953,-0.0190415,0.264728,0.968845
525,1508,3.30898,-0.01888,0.264731,0.96891
527,1506,3.30864,-0.0191023,0.264729,0.968807
529,1504,3.30924,-0.0189888,0.264728,0.968855
531,1502,3.30826,-0.0190035,0.264722,0.969086
533,1500,3.30946,-0.0198647,0.264731,0.968507
535,1498,3.30768,-0.0198617,0.26518,0.96822
537,1496,3.30844,-0.0197151,0.264727,0.968553
539,1494,3.31137,-0.016074,0.263638,0.968203
541,1492,3.30966,-0.0168295,0.263616,0.967601
543,1490,3.31065,-0.017063,0.263617,0.967514
545,1488,3.30975,-0.0168062,0.263607,0.967594
547,1486,3.30997,-0.0168628,0.263611,0.967577
549,1484,3.31061,-0.0175372,0.26361,0.967305
551,1482,3.30897,-0.0177405,0.264472,0.966937
553,1480,3.30947,-0.0176884,0.264063,0.966947
555,1478,3.30927,-0.0176281,0.264063,0.966971
557,1476,3.30885,-0.0182828,0.264058,0.966709
559,1474,3.30972,-0.0183763,0.26406,0.966663
561,1472,3.30863,-0.0183721,0.264062,0.966663
563,1470,3.30914,-0.0184707,0.264064,0.966647
565,1468,3.30913,-0.0190107,0.264063,0.966444
567,1466,3.3085,-0.0190844,0.264172,0.966429
569,1464,3.30927,-0.0191135,0.264073,0.966432
571,1462,3.3081,-0.0198204,0.26452,0.965841
573,1460,3.30781,-0.0198503,0.264527,0.965842
575,1458,3.30845,-0.0197799,0.264524,0.965881
577,1456,3.30766,-0.0198744,0.264522,0.965813
579,1454,3.30995,-0.017061,0.2634,0.964799
581,1452,3.30969,-0.0168755,0.263407,0.964893
583,1450,3.30903,-0.0168126,0.263398,0.964889
585,1448,3.31055,-0.0169186,0.262952,0.965162
587,1446,3.3087,-0.0177962,0.263863,0.964237
589,1444,3.30917,-0.0177486,0.263404,0.964538
591,1442,3.3095,-0.0176793,0.263412,0.964599
593,1440,3.30866,-0.0185092,0.263868,0.963978
595,1438,3.30938,-0.0183291,0.263409,0.964343
597,1436,3.30864,-0.0184931,0.263871,0.964008
599,1434,3.30804,-0.0191504,0.263868,0.96374
601,1432,3.30948,-0.0193081,0.26387,0.963677
603,1430,3.30784,-0.0193045,0.263865,0.963668
605,1428,3.30845,-0.0194009,0.263863,0.96386
607,1426,3.3081,-0.0191922,0.263863,0.963699
609,1424,3.30751,-0.0201135,0.26432,0.963046
611,1422,3.30782,-0.0201338,0.264792,0.963028
613,1420,3.30732,-0.0201308,0.264318,0.963043
615,1418,3.30662,-0.020085,0.264311,0.963038
617,1416,3.31044,-0.0170166,0.26274,0.962427
619,1414,3.30876,-0.0170227,0.262736,0.962399
621,1412,3.30961,-0.0172289,0.262743,0.96215
623,1410,3.30878,-0.0177,0.263199,0.961868
625,1408,3.30863,-0.0176907,0.263207,0.961911
627,1406,3.30954,-0.0178065,0.26275,0.962152
629,1404,3.30879,-0.0186087,0.263209,0.961553
631,1402,3.30816,-0.0185611,0.263214,0.961586
633,1400,3.30954,-0.0186199,0.263206,0.961542
635,1398,3.30772,-0.0185938,0.263204,0.961541
637,1396,3.30888,-0.0187204,0.263203,0.961492
639,1394,3.3077,-0.01935,0.263662,0.960935
641,1392,3.30772,-0.0194002,0.263659,0.960924
643,1390,3.30791,-0.0195337,0.263656,0.960862
645,1388,3.30754,-0.020219,0.263658,0.960591
647,1386,3.30658,-0.0202734,0.264116,0.960272
649,1384,3.30795,-0.0201707,0.263651,0.960599
651,1382,3.3092,-0.0164011,0.262558,0.960276
653,1380,3.30929,-0.0173777,0.262542,0.959598
655,1378,3.30906,-0.017044,0.262538,0.959743
657,1376,3.3091,-0.0172798,0.262553,0.959684
659,1374,3.30914,-0.0178903,0.262546,0.959419
661,1372,3.30834,-0.0178842,0.263009,0.959154
663,1370,3.30783,-0.0179349,0.263003,0.959109
665,1368,3.30876,-0.0188176,0.263001,0.958763
667,1366,3.30776,-0.0187187,0.262999,0.958784
669,1364,3.30758,-0.0188452,0.263001,0.958744
671,1362,3.30815,-0.0186127,0.262997,0.958821
673,1360,3.30702,-0.0196789,0.263462,0.958125
675,1358,3.30705,-0.0196132,0.263457,0.958145
677,1356,3.30719,-0.0195609,0.263453,0.958148
679,1354,3.30649,-0.0194333,0.263455,0.958202
681,1352,3.30751,-0.0203593,0.263458,0.957847
683,1350,3.30666,-0.0201876,0.263452,0.957896
685,1348,3.3084,-0.0163703,0.261864,0.957789
687,1346,3.30991,-0.0171548,0.261875,0.957278
689,1344,3.30791,-0.0173271,0.262335,0.956916
691,1342,3.30908,-0.0172449,0.261871,0.957229
693,1340,3.3086,-0.0179287,0.262329,0.956671
695,1338,3.30814,-0.018039,0.262338,0.956646
697,1336,3.30811,-0.0181117,0.262331,0.9566
699,1334,3.30832,-0.0179935,0.262331,0.956647
701,1332,3.30698,-0.0188547,0.262793,0.956016
703,1330,3.30882,-0.0188674,0.26233,0.956307
705,1328,3.30685,-0.0188539,0.262791,0.95602
707,1326,3.30774,-0.0196608,0.262793,0.955691
709,1324,3.3074,-0.0195863,0.262887,0.955725
711,1322,3.30734,-0.0197183,0.2628,0.955689
713,1320,3.30653,-0.0196462,0.262887,0.955688
715,1318,3.30848,-0.0195181,0.262322,0.956032
717,1316,3.30612,-0.0203573,0.262786,0.955405
719,1314,3.30725,-0.0205124,0.262791,0.955352
721,1312,3.3061,-0.0203866,0.26325,0.955117
723,1310,3.30837,-0.0176472,0.261761,0.954343
725,1308,3.30834,-0.0174548,0.261657,0.954407
727,1306,3.30831,-0.0174584,0.261659,0.954403
729,1304,3.30794,-0.0173206,0.261659,0.954463
731,1302,3.30874,-0.0181362,0.261652,0.954128
733,1300,3.30741,-0.0182269,0.262121,0.953808
735,1298,3.30715,-0.0182001,0.262116,0.954052
737,1296,3.30814,-0.018111,0.261649,0.954126
739,1294,3.30692,-0.0190273,0.262113,0.953475
741,1292,3.30712,-0.0190163,0.262116,0.953486
743,1290,3.30741,-0.0189698,0.262116,0.953511
745,1288,3.307,-0.0197285,0.262116,0.95321
747,1286,3.30614,-0.0199836,0.262581,0.952808
749,1284,3.30741,-0.0195145,0.262113,0.953297
751,1282,3.30563,-0.0205568,0.262989,0.952601
753,1280,3.30679,-0.0206577,0.262586,0.952402
755,1278,3.30582,-0.0205416,0.262581,0.952601
757,1276,3.30582,-0.0205283,0.26258,0.952614
759,1274,3.30865,-0.0174961,0.26098,0.951933
761,1272,3.30816,-0.017416,0.260981,0.951955
763,1270,3.30741,-0.0173682,0.260981,0.951976
765,1268,3.30886,-0.0175345,0.260985,0.951929
767,1266,3.30725,-0.0182877,0.261442,0.951563
769,1264,3.30731,-0.018335,0.261441,0.951314
771,1262,3.30782,-0.0183139,0.261438,0.951307
773,1260,3.30714,-0.0191179,0.261445,0.950999
775,1258,3.30658,-0.0191224,0.261914,0.950724
777,1256,3.30744,-0.0189284,0.261449,0.951112
779,1254,3.30651,-0.0199032,0.261922,0.950456
781,1252,3.30637,-0.0200684,0.261921,0.95039
783,1250,3.30651,-0.0199039,0.261917,0.95045
785,1248,3.30594,-0.0206849,0.261914,0.950126
787,1246,3.30605,-0.0207866,0.261921,0.950107
789,1244,3.30627,-0.0205495,0.261919,0.950204
791,1242,3.30726,-0.0169012,0.260787,0.949471
793,1240,3.30755,-0.0177343,0.261115,0.949143
795,1238,3.30813,-0.0175434,0.260787,0.94923
797,1236,3.30664,-0.0174849,0.260786,0.949253
799,1234,3.30798,-0.0185418,0.261113,0.948845
801,1232,3.3066,-0.0183298,0.261248,0.948627
803,1230,3.30731,-0.0183777,0.260792,0.948696
805,1228,3.3069,-0.0192991,0.261254,0.948269
807,1226,3.30657,-0.0192472,0.261364,0.948318
809,1224,3.30631,-0.0191706,0.261259,0.948328
811,1222,3.30697,-0.0200714,0.261261,0.947985
813,1220,3.30646,-0.0199259,0.261256,0.948031
815,1218,3.30563,-0.0198706,0.261254,0.948038
817,1216,3.307,-0.0200551,0.261259,0.947995
819,1214,3.30491,-0.0208407,0.261727,0.947393
821,1212,3.30527,-0.0207833,0.261724,0.947406
823,1210,3.30809,-0.0176144,0.260118,0.946783
825,1208,3.30759,-0.0175919,0.260119,0.946795
827,1206,3.30719,-0.0174861,0.260595,0.946809
829,1204,3.30793,-0.0176529,0.260115,0.946755
831,1202,3.30686,-0.0185164,0.26058,0.94611
833,1200,3.30633,-0.0185875,0.260584,0.946083
835,1198,3.3077,-0.0184509,0.260098,0.946383
837,1196,3.30614,-0.0185787,0.260564,0.946033
839,1194,3.30619,-0.0192662,0.260659,0.94576
841,1192,3.30699,-0.0194332,0.260567,0.945706
843,1190,3.30579,-0.0193067,0.260565,0.945747
845,1188,3.30559,-0.0202121,0.260691,0.94512
847,1186,3.30607,-0.0202283,0.261533,0.945155
849,1184,3.30528,-0.0208983,0.261052,0.944893
851,1182,3.30516,-0.0208607,0.261043,0.944901
853,1180,3.30574,-0.0208817,0.26105,0.944945
855,1178,3.30728,-0.016981,0.25944,0.944539
857,1176,3.3071,-0.0176512,0.259431,0.944271
859,1174,3.30837,-0.0177681,0.259837,0.944224
861,1172,3.30675,-0.0177538,0.259432,0.944233
863,1170,3.30703,-0.0185985,0.2599,0.943612
865,1168,3.30706,-0.0183627,0.260211,0.943418
867,1166,3.30652,-0.0187367,0.259899,0.94353
869,1164,3.30625,-0.0186543,0.259902,0.943595
871,1162,3.30678,-0.0193954,0.259891,0.943285
873,1160,3.3055,-0.0196207,0.260375,0.942922
875,1158,3.30527,-0.0201367,0.260367,0.942713
877,1156,3.306292,-0.0203271,0.260859,0.942668
879,1154,3.30484,-0.0202041,0.260386,0.942752
881,1152,3.30543,-0.0210362,0.260381,0.942425
883,1150,3.30562,-0.0211023,0.260384,0.942408
885,1148,3.30511,-0.0209559,0.260376,0.942445
887,1146,3.30657,-0.0178601,0.259235,0.941468
889,1144,3.30745,-0.0179849,0.259236,0.941433
891,1142,3.30661,-0.0179432,0.259648,0.941453
893,1140,3.3063,-0.0186017,0.25924,0.94119
895,1138,3.30748,-0.0187992,0.259238,0.941123
897,1136,3.30549,-0.0186806,0.259705,0.940842
899,1134,3.30626,-0.018595,0.259231,0.941175
901,1132,3.30623,-0.0196534,0.259804,0.940495
903,1130,3.30568,-0.0195289,0.259712,0.94055
905,1128,3.30529,-0.0195917,0.259708,0.940511
907,1126,3.306,-0.0203095,0.259698,0.94023
909,1124,3.30554,-0.0202249,0.259705,0.940271
911,1122,3.30482,-0.0203811,0.259712,0.94023
913,1120,3.30516,-0.0214193,0.260185,0.939541
915,1118,3.30425,-0.0210835,0.260177,0.93964
917,1116,3.30416,-0.0211687,0.260172,0.939588
919,1114,3.30661,-0.0173634,0.258544,0.939159
921,1112,3.30705,-0.0179231,0.258552,0.938966
923,1110,3.30607,-0.0180116,0.258548,0.938927
925,1108,3.30654,-0.0181174,0.25855,0.93887
927,1106,3.30677,-0.0188094,0.258601,0.938639
929,1104,3.30533,-0.0188729,0.25903,0.938318
931,1102,3.30592,-0.0199052,0.259041,0.937978
933,1100,3.30583,-0.0196046,0.259038,0.938084
935,1098,3.30497,-0.0206375,0.259519,0.937415
937,1096,3.30468,-0.0206262,0.259525,0.937429
939,1094,3.30587,-0.0204305,0.258696,0.937791
941,1092,3.30429,-0.0212307,0.259517,0.937181
943,1090,3.30456,-0.0213021,0.259516,0.937151
945,1088,3.30486,-0.0213485,0.259514,0.937128
947,1086,3.30644,-0.0172254,0.25827,0.93681
949,1084,3.30576,-0.0182574,0.258361,0.936122
951,1082,3.30719,-0.0181481,0.257885,0.936473
953,1080,3.30542,-0.0182222,0.258361,0.936136
955,1078,3.30553,-0.0188987,0.258358,0.935882
957,1076,3.30615,-0.0189473,0.258362,0.935881
959,1074,3.30505,-0.0198718,0.258848,0.935229
961,1072,3.30537,-0.0196893,0.258366,0.93561
963,1070,3.30593,-0.0198484,0.258367,0.93557
965,1068,3.30492,-0.0205852,0.258854,0.935008
967,1066,3.30424,-0.0207068,0.25918,0.934967
969,1064,3.30507,-0.0215268,0.258863,0.93467
971,1062,3.30459,-0.0213551,0.258857,0.934723
973,1060,3.30395,-0.0213614,0.258859,0.934738
975,1058,3.30622,-0.0183906,0.257704,0.933682
977,1056,3.30699,-0.0180927,0.257226,0.9341
979,1054,3.3057,-0.0182999,0.257708,0.933551
981,1052,3.30559,-0.0190999,0.257703,0.933408
983,1050,3.30664,-0.0189706,0.257699,0.933455
985,1048,3.30509,-0.0190369,0.257694,0.933418
987,1046,3.30516,-0.0198485,0.258272,0.932827
989,1044,3.30524,-0.0199412,0.25818,0.932792
991,1042,3.30487,-0.0198717,0.258182,0.932649
993,1040,3.30388,-0.0207964,0.258662,0.932159
995,1038,3.30506,-0.0208119,0.258182,0.93247
997,1036,3.30467,-0.020703,0.258186,0.932522
999,1034,3.30315,-0.0215685,0.258664,0.932136
1001,1032,3.30443,-0.0217278,0.258662,0.931842
1003,1030,3.30527,-0.0183604,0.257997,0.930929
1005,1028,3.30604,-0.0183691,0.257031,0.931237
1007,1026,3.30556,-0.0183885,0.257022,0.931217
1009,1024,3.30615,-0.0191919,0.257503,0.93062
1011,1022,3.30444,-0.0192277,0.257503,0.930457
1013,1020,3.30486,-0.0192633,0.257499,0.930573
1015,1018,3.30586,-0.0198905,0.257502,0.93035
1017,1016,3.30334,-0.020113,0.257984,0.929949
1019,1014,3.30469,-0.0209952,0.257982,0.929631
1021,1012,3.30409,-0.0209725,0.25798,0.929633
1023,1010,3.30413,-0.0211067,0.257983,0.929576
1025,1008,3.30285,-0.0209193,0.257972,0.929602
1027,1006,3.3043,-0.0218305,0.257967,0.929276
1029,1004,3.30329,-0.0215542,0.257962,0.929365
1031,1002,3.30536,-0.0175788,0.256332,0.929002
1033,1000,3.30563,-0.0185922,0.25681,0.928313
1035,998,3.30503,-0.0183488,0.256411,0.928401
1037,996,3.30504,-0.0194394,0.256811,0.927995
1039,994,3.30459,-0.0193615,0.256813,0.92802
1041,992,3.30547,-0.0194058,0.256805,0.928001
1043,990,3.30387,-0.0201207,0.25729,0.927433
1045,988,3.30369,-0.0202374,0.257607,0.927387
1047,986,3.30514,-0.0200264,0.256802,0.927762
1049,984,3.3035,-0.0210359,0.257284,0.927082
1051,982,3.30347,-0.0210312,0.257285,0.927087
1053,980,3.30374,-0.0211216,0.257281,0.927046
1055,978,3.30306,-0.021963,0.257758,0.926411
1057,976,3.30246,-0.0218933,0.25776,0.926417
1059,974,3.30528,-0.0178481,0.255636,0.926384
1061,972,3.30587,-0.0184692,0.25661,0.925855
1063,970,3.30409,-0.0185529,0.256122,0.925828
1065,968,3.30495,-0.0194518,0.256123,0.9255
1067,966,3.30505,-0.0194247,0.256123,0.925505
1069,964,3.30401,-0.020317,0.256613,0.924893
1071,962,3.30376,-0.0202085,0.256609,0.924926
1073,960,3.30397,-0.0203351,0.256605,0.92487
1075,958,3.30352,-0.0210629,0.257091,0.924298
1077,956,3.3027,-0.0209021,0.256605,0.924647
1079,954,3.30409,-0.0212535,0.256603,0.924531
1081,952,3.30298,-0.0219099,0.257084,0.923975
1083,950,3.30234,-0.0220946,0.25709,0.923909
1085,948,3.3047,-0.0179834,0.255435,0.923545
1087,946,3.30539,-0.0186631,0.255438,0.923301
1089,944,3.30395,-0.0188988,0.255929,0.922913
1091,942,3.3037,-0.0194821,0.256417,0.922704
1093,940,3.30473,-0.0197329,0.255935,0.922648
1095,938,3.30407,-0.020353,0.255945,0.922447
1097,936,3.30371,-0.0203529,0.255939,0.922448
1099,934,3.30384,-0.0205387,0.255944,0.922373
1101,932,3.30343,-0.0212495,0.256419,0.921785
1103,930,3.30256,-0.0212736,0.25642,0.921771
1105,928,3.30288,-0.0220672,0.256417,0.921474
1107,926,3.30309,-0.0221703,0.256423,0.921458
1109,924,3.30221,-0.0220955,0.256414,0.921457
1111,922,3.30387,-0.0188209,0.255248,0.920701
1113,920,3.30426,-0.0189164,0.255242,0.920428
1115,918,3.30431,-0.0187807,0.255243,0.920475
1117,916,3.30356,-0.0196534,0.25533,0.920151
1119,914,3.30354,-0.0196836,0.255241,0.920143
1121,912,3.30438,-0.0204246,0.255233,0.919658
1123,910,3.30278,-0.0207101,0.255731,0.919689
1125,908,3.30271,-0.0213545,0.255732,0.919235
1127,906,3.30329,-0.0214241,0.255733,0.91921
1129,904,3.30303,-0.0213796,0.255737,0.919242
1131,902,3.30186,-0.0224082,0.256231,0.918577
1133,900,3.3016,-0.0225237,0.256232,0.918536
1135,898,3.3048,-0.0189683,0.254567,0.917951
1137,896,3.3039,-0.0188712,0.254565,0.917971
1139,894,3.30367,-0.0189132,0.254565,0.917958
1141,892,3.30449,-0.0199168,0.254563,0.917598
1143,890,3.30373,-0.0196262,0.254567,0.917709
1145,888,3.303,-0.0207137,0.255054,0.917001
1147,886,3.3024,-0.0207205,0.255051,0.91699
1149,884,3.30367,-0.0207101,0.25505,0.917
1151,882,3.30179,-0.021554,0.255544,0.916379
1153,880,3.30224,-0.0215467,0.255056,0.916698
1155,878,3.30243,-0.021534,0.255039,0.91665
1157,876,3.30217,-0.0222851,0.25563,0.916103
1159,874,3.30354,-0.0182,0.253875,0.915714
1161,872,3.30328,-0.0191471,0.254356,0.915033
1163,870,3.30411,-0.0189825,0.253867,0.9154
1165,868,3.30318,-0.0199059,0.254361,0.915
1167,866,3.30256,-0.0198837,0.25437,0.914801
1169,864,3.30291,-0.0204224,0.254364,0.914597
1171,862,3.30357,-0.0207788,0.254365,0.914477
1173,860,3.30163,-0.0209777,0.254866,0.91411
1175,858,3.30207,-0.0217498,0.254866,0.913627
1177,856,3.30141,-0.0217179,0.254862,0.91383
1179,854,3.30244,-0.0225357,0.254862,0.913537
1181,852,3.30101,-0.0224634,0.254856,0.913549
1183,850,3.30336,-0.0193584,0.253678,0.91248
1185,848,3.30349,-0.0193165,0.254169,0.912493
1187,846,3.30329,-0.0191718,0.253624,0.912531
1189,844,3.30264,-0.0200735,0.253683,0.912228
1191,842,3.30297,-0.0200783,0.253678,0.912223
1193,840,3.30254,-0.0210315,0.254174,0.911575
1195,838,3.30221,-0.0209374,0.254587,0.91162
1197,836,3.30166,-0.0217916,0.25418,0.911311
1199,834,3.30186,-0.0220099,0.254181,0.911244
1201,832,3.30244,-0.0218583,0.254269,0.911301
1203,830,3.30058,-0.0227379,0.254673,0.910645
1205,828,3.30345,-0.0192961,0.252984,0.909981
1207,826,3.30337,-0.019355,0.252986,0.909965
1209,824,3.3035,-0.0193394,0.25298,0.909954
1211,822,3.30239,-0.0203329,0.253974,0.909295
1213,820,3.30176,-0.0202818,0.253483,0.909311
1215,818,3.30334,-0.0203035,0.252985,0.909616
1217,816,3.30214,-0.0209576,0.253477,0.909057
1219,814,3.30127,-0.021156,0.253478,0.908994
1221,812,3.30181,-0.0220476,0.253481,0.908687
1223,810,3.30171,-0.0220234,0.253482,0.908697
1225,808,3.301,-0.0228483,0.25399,0.908122
1227,806,3.30314,-0.0185577,0.252302,0.907763
1229,804,3.30221,-0.0196049,0.252797,0.907063
1231,802,3.30369,-0.019442,0.2523,0.907446
1233,800,3.30243,-0.0203153,0.2528,0.906814
1235,798,3.30183,-0.0204033,0.252798,0.90678
1237,796,3.30238,-0.0211179,0.252795,0.906519
1239,794,3.30219,-0.0212175,0.252801,0.906494
1241,792,3.30193,-0.0210977,0.252795,0.906522
1243,790,3.30083,-0.0221038,0.253286,0.905825
1245,788,3.30032,-0.0222731,0.253283,0.905762
1247,786,3.30159,-0.0230564,0.253288,0.905491
1249,784,3.30037,-0.0228644,0.253285,0.90554
1251,782,3.30269,-0.0186972,0.251585,0.905108
1253,780,3.30186,-0.0196354,0.25258,0.904466
1255,778,3.30316,-0.0195729,0.251583,0.904813
1257,776,3.30213,-0.0204573,0.252091,0.904195
1259,774,3.30159,-0.0204762,0.252085,0.904179
1261,772,3.30071,-0.0214697,0.252591,0.903519
1263,770,3.30226,-0.0214412,0.252098,0.903869
1265,768,3.30083,-0.0220715,0.252593,0.903307
1267,766,3.300343,-0.0223509,0.252594,0.903215
1269,764,3.29969,-0.0232485,0.2531,0.902592
1271,762,3.30048,-0.0230524,0.252591,0.902966
1273,760,3.30252,-0.0196251,0.251889,0.901957
1275,758,3.30189,-0.019751,0.251395,0.901912
1277,756,3.30156,-0.0205959,0.251392,0.901603
1279,754,3.30213,-0.0207207,0.251388,0.901559
1281,752,3.30188,-0.0204903,0.251387,0.901638
1283,750,3.30079,-0.0216404,0.251901,0.900927
1285,748,3.30031,-0.0214487,0.251893,0.900981
1287,746,3.30046,-0.022493,0.251888,0.900611
1289,744,3.30093,-0.0224734,0.251893,0.900626
1291,742,3.29982,-0.0234368,0.252405,0.899988
1293,740,3.29849,-0.0233628,0.252405,0.900013
1295,738,3.30208,-0.0199773,0.250703,0.899323
1297,736,3.30221,-0.0198077,0.250707,0.899396
1299,734,3.30138,-0.0208095,0.251216,0.898733
1301,732,3.30059,-0.0208174,0.251209,0.898704
1303,730,3.30087,-0.0216329,0.251518,0.897169
1305,728,3.30074,-0.0217741,0.251208,0.898375
1307,726,3.30069,-0.022522,0.25171,0.897783
1309,724,3.29893,-0.0225647,0.251715,0.897767
1311,722,3.29972,-0.0235266,0.251711,0.897433
1313,720,3.29918,-0.0235453,0.251715,0.897427
1315,718,3.30248,-0.0199339,0.249999,0.896782
1317,716,3.30085,-0.0200225,0.250505,0.896404
1319,714,3.30096,-0.0209893,0.250508,0.896101
1321,712,3.30031,-0.0209446,0.250506,0.896105
1323,710,3.3014,-0.0218159,0.250508,0.895809
1325,708,3.30007,-0.0218154,0.251017,0.89549
1327,706,3.29962,-0.0228306,0.251017,0.89514
1329,704,3.29941,-0.0226048,0.25102,0.89523
1331,702,3.29888,-0.0238311,0.251535,0.894496
1333,700,3.30242,-0.0191561,0.249301,0.894526
1335,698,3.30123,-0.0201111,0.249812,0.893862
1337,696,3.30048,-0.0200441,0.249811,0.893889
1339,694,3.30025,-0.0211946,0.250319,0.89316
1341,692,3.30038,-0.0215031,0.25032,0.893057
1343,690,3.30049,-0.0219251,0.250319,0.892914
1345,688,3.2994,-0.0220124,0.250317,0.892871
1347,686,3.29944,-0.0228264,0.250315,0.892591
1349,684,3.29825,-0.0229081,0.250826,0.892223
1351,682,3.29932,-0.0239201,0.25083,0.891897
1353,680,3.2985,-0.0237029,0.250826,0.891958
1355,678,3.29968,-0.0204169,0.24961,0.890847
1357,676,3.30065,-0.0202957,0.2491,0.89121
1359,674,3.30022,-0.0213158,0.249611,0.890547
1361,672,3.3002,-0.021118,0.249612,0.890623
1363,670,3.29908,-0.0223613,0.250133,0.889866
1365,668,3.29937,-0.0220924,0.249613,0.89028
1367,666,3.2983,-0.0231535,0.25043,0.889578
1369,664,3.29885,-0.0231498,0.250124,0.889591
1371,662,3.29872,-0.0238099,0.250127,0.889376
1373,660,3.29782,-0.0239842,0.250123,0.889333
1375,658,3.29987,-0.0204211,0.248903,0.888268
1377,656,3.29981,-0.0206025,0.248902,0.88821
1379,654,3.29978,-0.0213464,0.248904,0.887959
1381,652,3.30028,-0.0212715,0.248901,0.887975
1383,650,3.29842,-0.022223,0.249422,0.887335
1385,648,3.29844,-0.0223428,0.249418,0.887285
1387,646,3.29825,-0.0232634,0.249415,0.886971
1389,644,3.29878,-0.0231961,0.249418,0.886999
1391,642,3.29769,-0.0241182,0.249938,0.886366
1393,640,3.29959,-0.0196344,0.248196,0.885958
1395,638,3.29952,-0.0204458,0.248482,0.885694
1397,636,3.29913,-0.0217309,0.248717,0.884935
1399,634,3.29999,-0.0214609,0.248198,0.885359
1401,632,3.29894,-0.0222993,0.248715,0.88475
1403,630,3.29808,-0.0224722,0.248719,0.88469
1405,628,3.29825,-0.0233734,0.249221,0.884386
1407,626,3.29824,-0.023404,0.248713,0.884362
1409,624,3.29752,-0.0243621,0.249241,0.883726
1411,622,3.30029,-0.0196659,0.247492,0.883386
1413,620,3.29927,-0.0206163,0.24749,0.883065
1415,618,3.29899,-0.0216833,0.248011,0.882375
1417,616,3.2984,-0.0217894,0.24801,0.882338
1419,614,3.29904,-0.022505,0.248007,0.882092
1421,612,3.29865,-0.0224616,0.248008,0.882343
1423,610,3.29754,-0.0236426,0.24853,0.881374
1425,608,3.29702,-0.0234501,0.248527,0.881444
1427,606,3.29688,-0.0245481,0.248527,0.881076
1429,604,3.29996,-0.0206742,0.246775,0.880449
1431,602,3.30025,-0.0207445,0.246773,0.880441
1433,600,3.29864,-0.0218301,0.247301,0.879728
1435,598,3.2982,-0.0218091,0.247302,0.879747
1437,596,3.29764,-0.0228562,0.24783,0.879084
1439,594,3.29743,-0.022945,0.248131,0.879054
1441,592,3.29812,-0.0237745,0.247835,0.878795
1443,590,3.29666,-0.0247259,0.248358,0.878138
1445,588,3.29579,-0.024807,0.248754,0.878105
1447,586,3.2987,-0.0209536,0.246595,0.877478
1449,584,3.29865,-0.0211337,0.246597,0.877409
1451,582,3.29894,-0.0219599,0.246595,0.877131
1453,580,3.29894,-0.0218392,0.246591,0.877168
1455,578,3.29725,-0.0229831,0.247121,0.876457
1457,576,3.29689,-0.0228986,0.247123,0.876487
1459,574,3.29697,-0.023965,0.24712,0.876132
1461,572,3.29667,-0.0249618,0.247644,0.875459
1463,570,3.29926,-0.0202014,0.245877,0.875102
1465,568,3.29876,-0.0210936,0.245873,0.874801
1467,566,3.29799,-0.0209988,0.245872,0.87482
1469,564,3.29803,-0.0219473,0.245869,0.874511
1471,562,3.29727,-0.0231244,0.246401,0.873791
1473,560,3.29772,-0.0230867,0.246403,0.873812
1475,558,3.29749,-0.0240057,0.246408,0.87353
1477,556,3.29586,-0.0250598,0.246936,0.872839
1479,554,3.29558,-0.0250086,0.247333,0.87285
1481,552,3.29842,-0.0211643,0.245161,0.87219
1483,550,3.29828,-0.0212945,0.245159,0.872141
1485,548,3.29795,-0.0223609,0.245688,0.871456
1487,546,3.2978,-0.0222435,0.245692,0.87173
1489,544,3.29588,-0.0233347,0.246221,0.870789
1491,542,3.29593,-0.0242473,0.24646,0.870489
1493,540,3.29598,-0.0242681,0.24622,0.87048
1495,538,3.29569,-0.0251832,0.246216,0.87017
1497,536,3.29864,-0.0204169,0.244727,0.869795
1499,534,3.29773,-0.021391,0.244966,0.869134
1501,532,3.29734,-0.0224424,0.244968,0.868799
1503,530,3.29645,-0.0223501,0.244965,0.868818
1505,528,3.29634,-0.0235845,0.245297,0.86808
1507,526,3.29616,-0.0235324,0.245498,0.868101
1509,524,3.29595,-0.0243057,0.245497,0.867834
1511,522,3.29592,-0.0252618,0.245491,0.867731
1513,520,3.29447,-0.0255454,0.246033,0.867086
1515,518,3.29716,-0.0214812,0.244241,0.866468
1517,516,3.29668,-0.0225595,0.244239,0.86612
1519,514,3.29749,-0.0226881,0.244239,0.866076
1521,512,3.29652,-0.0235224,0.24477,0.865459
1523,510,3.29611,-0.0236165,0.244771,0.865429
1525,508,3.29553,-0.0244644,0.244851,0.865146
1527,506,3.29509,-0.0244052,0.244768,0.865153
1529,504,3.2942,-0.0255605,0.245309,0.864273
1531,502,3.29681,-0.0218245,0.243514,0.863717
1533,500,3.29765,-0.0217721,0.243514,0.863727
1535,498,3.2971,-0.0224306,0.243511,0.863505
1537,496,3.2957,-0.023727,0.244046,0.862967
1539,494,3.29525,-0.0238279,0.244051,0.862721
1541,492,3.29539,-0.0245709,0.244046,0.862472
1543,490,3.2942,-0.025852,0.244207,0.861727
1545,488,3.29699,-0.0210153,0.242788,0.861336
1547,486,3.29789,-0.0217947,0.242789,0.861102
1549,484,3.29648,-0.0227549,0.243336,0.860462
1551,482,3.29529,-0.0228623,0.243335,0.860416
1553,480,3.29479,-0.0241102,0.243883,0.859691
1555,478,3.29519,-0.0248445,0.243882,0.859452
1557,476,3.29389,-0.0249391,0.243878,0.85942
1559,474,3.29428,-0.0259818,0.244386,0.85909
1561,472,3.29767,-0.0210889,0.242063,0.858697
1563,470,3.29605,-0.0220073,0.242604,0.858035
1565,468,3.2954,-0.0229605,0.242599,0.857715
1567,466,3.29503,-0.0230079,0.2426,0.857705
1569,464,3.29561,-0.023995,0.242598,0.857383
1571,462,3.29368,-0.0251698,0.243138,0.856654
1573,460,3.29429,-0.0251196,0.243139,0.856676
1575,458,3.29472,-0.0260753,0.243138,0.856363
1577,456,3.29604,-0.0220646,0.241862,0.855318
1579,454,3.29511,-0.0223174,0.241865,0.855244
1581,452,3.29466,-0.0231968,0.241867,0.854972
1583,450,3.29504,-0.024398,0.24241,0.854242
1585,448,3.2938,-0.0243207,0.242411,0.854271
1587,446,3.29398,-0.0253558,0.242492,0.853964
1589,444,3.29365,-0.0264641,0.242963,0.853258
1591,442,3.29616,-0.0222847,0.24114,0.852627
1593,440,3.29511,-0.0223974,0.241146,0.852598
1595,438,3.29404,-0.0234524,0.24169,0.852134
1597,436,3.29464,-0.0245491,0.241688,0.851565
1599,434,3.29403,-0.0245123,0.241686,0.851797
1601,432,3.29267,-0.025626,0.242239,0.850876
1603,430,3.29321,-0.0264519,0.242233,0.8506
1605,428,3.29621,-0.0215436,0.240399,0.850175
1607,426,3.29466,-0.0226499,0.24095,0.849466
1609,424,3.29379,-0.0236338,0.240944,0.849363
1611,422,3.29382,-0.0236499,0.240944,0.849146
1613,420,3.29385,-0.024501,0.240943,0.84888
1615,418,3.29263,-0.025818,0.241494,0.848109
1617,416,3.29236,-0.0266863,0.241495,0.847818
1619,414,3.29556,-0.0216761,0.239653,0.847428
1621,412,3.29578,-0.0226352,0.239651,0.846945
1623,410,3.29418,-0.0236528,0.240204,0.846448
1625,408,3.29291,-0.0248889,0.240761,0.845716
1627,406,3.29253,-0.024834,0.240763,0.845734
1629,404,3.29231,-0.025866,0.240764,0.845416
1631,402,3.29243,-0.0269419,0.241059,0.845112
1633,400,3.29407,-0.0230094,0.239478,0.844002
1635,398,3.29464,-0.0230658,0.239476,0.843985
1637,396,3.2946,-0.0239183,0.239474,0.84371
1639,394,3.29286,-0.0248611,0.24003,0.843055
1641,392,3.2925,-0.0260467,0.240029,0.842681
1643,390,3.29206,-0.0260319,0.240029,0.842683
1645,388,3.29396,-0.0221066,0.238728,0.841546
1647,386,3.29396,-0.0231648,0.238729,0.841226
1649,384,3.29313,-0.0241713,0.239284,0.840552
1651,382,3.29278,-0.0242207,0.239287,0.840545
1653,380,3.29278,-0.0251373,0.239285,0.840254
1655,378,3.29276,-0.0262098,0.239281,0.839917
1657,376,3.29138,-0.0272928,0.240363,0.839235
1659,374,3.2937,-0.0222153,0.237988,0.838827
1661,372,3.29275,-0.0232343,0.238547,0.838152
1663,370,3.29225,-0.024334,0.238546,0.837807
1665,368,3.29269,-0.02535,0.238546,0.837498
1667,366,3.29141,-0.0265298,0.239109,0.836768
1669,364,3.29079,-0.0265588,0.239107,0.83676
1671,362,3.29401,-0.0223582,0.237236,0.836065
1673,360,3.29347,-0.0234708,0.237817,0.835415
1675,358,3.29364,-0.0244872,0.237804,0.835071
1677,356,3.29203,-0.0255977,0.238372,0.834347
1679,354,3.29076,-0.0256651,0.238369,0.834314
1681,352,3.29062,-0.0266269,0.238368,0.834026
1683,350,3.29011,-0.0278478,0.238938,0.833296
1685,348,3.29284,-0.023531,0.237051,0.832603
1687,346,3.29151,-0.0248729,0.237617,0.831817
1689,344,3.29107,-0.0249751,0.238136,0.831796
1691,342,3.29134,-0.0259557,0.237616,0.831491
1693,340,3.29163,-0.0267594,0.237619,0.831259
1695,338,3.29051,-0.0279456,0.238186,0.830514
1697,336,3.29289,-0.0236262,0.236293,0.82982
1699,334,3.29161,-0.0249327,0.236862,0.829051
1701,332,3.29161,-0.0250649,0.23686,0.829019
1703,330,3.28991,-0.0260851,0.237441,0.828339
1705,328,3.2894,-0.0270303,0.237438,0.828056
1707,326,3.28958,-0.0282101,0.237441,0.827721
1709,324,3.29171,-0.024157,0.236112,0.826553
1711,322,3.29189,-0.0252391,0.236112,0.826237
1713,320,3.2913,-0.0250358,0.236177,0.826286
1715,318,3.2898,-0.0263941,0.236697,0.825539
1717,316,3.28999,-0.0272682,0.236687,0.825256
1719,314,3.29331,-0.0230034,0.234772,0.824499
1721,312,3.29208,-0.0240061,0.235346,0.823808
1723,310,3.29082,-0.0252546,0.235925,0.82306
1725,308,3.28995,-0.0265175,0.235932,0.822691
1727,306,3.28937,-0.0264919,0.235922,0.822689
1729,304,3.28938,-0.0274284,0.235926,0.822423
1731,302,3.29122,-0.0231891,0.234583,0.821275
1733,300,3.29134,-0.0243604,0.234579,0.820911
1735,298,3.28972,-0.0254393,0.235161,0.820214
1737,296,3.28949,-0.0267095,0.235224,0.819833
1739,294,3.28887,-0.0279715,0.235741,0.81908
1741,292,3.28794,-0.0289425,0.235741,0.818787
1743,290,3.29104,-0.0235331,0.233813,0.818351
1745,288,3.29116,-0.024513,0.233808,0.81807
1747,286,3.29013,-0.0256482,0.234391,0.817352
1749,284,3.29009,-0.0267817,0.234405,0.817048
1751,282,3.2887,-0.0279465,0.23537,0.816325
1753,280,3.29142,-0.0235486,0.233059,0.815608
1755,278,3.29011,-0.0247829,0.233636,0.814836
1757,276,3.28876,-0.0260846,0.234224,0.814065
1759,274,3.28814,-0.0270799,0.234229,0.813798
1761,272,3.28784,-0.0282227,0.234225,0.813442
1763,270,3.28632,-0.029332,0.234814,0.812726
1765,268,3.2897,-0.0250569,0.23286,0.81193
1767,266,3.28995,-0.0260332,0.232862,0.811651
1769,264,3.28857,-0.0271715,0.23345,0.810919
1771,262,3.2879,-0.0284213,0.233451,0.810564
1773,260,3.28673,-0.0297719,0.23405,0.809786
1775,258,3.28967,-0.025308,0.232072,0.808997
1777,256,3.28919,-0.0253153,0.232071,0.808998
1779,254,3.28857,-0.0265405,0.232669,0.808262
1781,252,3.28817,-0.0274205,0.232669,0.808006
1783,250,3.28634,-0.0287162,0.233264,0.807236
1785,248,3.28609,-0.0297043,0.233266,0.806949
1787,246,3.28855,-0.0255726,0.231898,0.805922
1789,244,3.28853,-0.0267082,0.2319,0.805603
1791,242,3.28845,-0.0276892,0.231903,0.80512
1793,240,3.28707,-0.0289535,0.232497,0.804351
1795,238,3.28928,-0.0256449,0.231126,0.802854
1797,236,3.28846,-0.0266716,0.231126,0.802579
1799,234,3.28709,-0.0278767,0.231719,0.801812
1801,232,3.28673,-0.0292754,0.231716,0.80139
1803,230,3.28654,-0.0291294,0.231702,0.801386
1805,228,3.28863,-0.02469,0.230312,0.79791
1807,226,3.28775,-0.0256629,0.2303,0.799871
1809,224,3.28666,-0.0271183,0.230911,0.799058
1811,222,3.28575,-0.028174,0.23091,0.798763
1813,220,3.28444,-0.0295701,0.231517,0.798173
1815,218,3.28769,-0.0250057,0.229516,0.797177
1817,216,3.28648,-0.0273866,0.230122,0.796093
1819,214,3.2859,-0.0284687,0.230375,0.795773
1821,212,3.2848,-0.0297191,0.230733,0.795029
1823,210,3.28412,-0.0308922,0.230728,0.794691
1825,208,3.28619,-0.0263185,0.229322,0.79347
1827,206,3.28576,-0.0275179,0.229855,0.79314
1829,204,3.2846,-0.0288828,0.229937,0.792342
1831,202,3.28399,-0.0298311,0.22993,0.792074
1833,200,3.28626,-0.0264409,0.228513,0.790486
1835,198,3.28596,-0.0247702,0.227909,0.790335
1837,196,3.28493,-0.0260421,0.228519,0.789569
1839,194,3.28377,-0.0390014,0.228519,0.789289
1841,192,3.28625,-0.0347338,0.227104,0.787992
1843,190,3.28558,-0.0356683,0.227108,0.787746
1845,188,3.28527,-0.0337221,0.226484,0.787608
1847,186,3.28406,-0.0351115,0.227151,0.786823
1849,184,3.28261,-0.0375287,0.227721,0.785755
1851,182,3.28546,-0.0296615,0.225049,0.785144
1853,180,3.2857,-0.0279753,0.224444,0.78497
1855,178,3.28513,-0.0261901,0.224428,0.784368
1857,176,3.28458,-0.0272109,0.224435,0.784109
1859,174,3.2869,-0.0227643,0.223247,0.782811
1861,172,3.28529,-0.0372123,0.223613,0.781766
1863,170,3.28493,-0.0262113,0.223604,0.781438
1865,168,3.28287,-0.0396475,0.224217,0.780677
1867,166,3.28227,-0.0408405,0.224216,0.780342
1869,164,3.28491,-0.033219,0.222534,0.779276
1871,162,3.28495,-0.0324471,0.221554,0.778833
1873,160,3.28415,-0.0306555,0.221542,0.778237
1875,158,3.2882,-0.0228007,0.218891,0.777645
1877,156,3.2864,-0.0240668,0.219494,0.776889
1879,154,3.28531,-0.0372495,0.219495,0.776639
1881,152,3.28427,-0.039799,0.2201,0.775526
1883,150,3.28396,-0.0377988,0.219485,0.77541
1885,148,3.28621,-0.0332504,0.218039,0.774156
1887,146,3.28601,-0.0312677,0.217435,0.77404
1889,144,3.28513,-0.030719,0.217436,0.77313
1891,142,3.28869,-0.0228862,0.214781,0.772514
1893,140,3.28778,-0.0361558,0.214787,0.772261
1895,138,3.2869,-0.0252794,0.21538,0.771484
1897,136,3.28605,-0.0264464,0.215371,0.771143
1899,134,3.28816,-0.0321368,0.213314,0.769982
1901,132,3.28712,-0.0334977,0.213902,0.768981
1903,130,3.28684,-0.0313634,0.213304,0.768892
1905,128,3.28468,-0.0360874,0.214496,0.767861
1907,126,3.28449,-0.0340167,0.213896,0.767771
1909,124,3.288,-0.0260686,0.211235,0.767147
1911,122,3.28654,-0.0283708,0.211822,0.766118
1913,120,3.28533,-0.0268353,0.212176,0.765466
1915,118,3.28461,-0.0279761,0.211816,0.765148
1917,116,3.28715,-0.0354326,0.209742,0.764379
1919,114,3.28628,-0.0348844,0.209745,0.763472
1921,112,3.28532,-0.0364933,0.210334,0.762635
1923,110,3.28511,-0.0343671,0.209742,0.762533
1925,108,3.28713,-0.0307664,0.208249,0.760998
1927,106,3.2869,-0.0286397,0.207663,0.760893
1929,104,3.28545,-0.0302145,0.208246,0.76007
1931,102,3.28428,-0.029542,0.208246,0.759192
1933,100,3.28727,-0.0245856,0.206165,0.758406
1935,98,3.28617,-0.0381185,0.206679,0.758142
1937,96,3.28538,-0.0364402,0.206156,0.757508
1939,94,3.28373,-0.0389595,0.206735,0.756435
1941,92,3.28745,-0.0308127,0.20407,0.755834
1943,90,3.28744,-0.0319145,0.204064,0.755549
1945,88,3.28569,-0.0334048,0.204641,0.754736
1947,86,3.28407,-0.0358044,0.205218,0.753677
1949,84,3.28715,-0.0310205,0.203125,0.753058
1951,82,3.28638,-0.0291836,0.203115,0.752234
1953,80,3.28603,-0.0270422,0.202534,0.752154
1955,78,3.28416,-0.0421969,0.203114,0.751089
1957,76,3.287652,-0.0342173,0.200434,0.750421
1959,74,3.28775,-0.032093,0.199862,0.750307
1961,72,3.28646,-0.0336781,0.200431,0.749498
1963,70,3.28935,-0.0266774,0.198667,0.748169
1965,68,3.28899,-0.0248025,0.197764,0.747995
1967,66,3.28736,-0.0261332,0.19833,0.74723
1969,64,3.28593,-0.0305102,0.198892,0.746745
1971,62,3.28458,-0.042625,0.198893,0.746064
1973,60,3.28842,-0.0344821,0.196225,0.745217
1975,58,3.28625,-0.0389881,0.19735,0.744293
1977,56,3.28508,-0.0385961,0.197377,0.743324
1979,54,3.28865,-0.0301641,0.194666,0.742736
1981,52,3.28827,-0.0315357,0.194665,0.742392
1983,50,3.28736,-0.0307243,0.194659,0.741524
1985,48,3.28698,-0.0286252,0.194098,0.741407
1987,46,3.28922,-0.024978,0.192545,0.739855
1989,44,3.28759,-0.0263675,0.193102,0.739076
1991,42,3.28679,-0.0276499,0.1931,0.738754
1993,40,3.28548,-0.0292845,0.193663,0.737923
1995,38,3.28875,-0.0335805,0.190983,0.737217
1997,36,3.28944,-0.0294692,0.189874,0.737137
1999,34,3.28773,-0.031004,0.190421,0.73633
2001,32,3.29163,-0.0238048,0.187749,0.735424
2003,30,3.28974,-0.0381868,0.188297,0.734639
2005,28,3.2891,-0.0392082,0.18848,0.734393
2007,26,3.2878,-0.0386145,0.188293,0.733468
2009,24,3.28963,-0.0337179,0.186721,0.732223
2011,22,3.2891,-0.0362814,0.186715,0.731583
2013,20,3.28804,-0.0345127,0.18671,0.730953
2015,18,3.28791,-0.0335752,0.186164,0.730547
2017,16,3.29057,-0.0254786,0.184032,0.729427
2019,14,3.29016,-0.0279267,0.184035,0.728832
2021,12,3.28775,-0.0422386,0.18457,0.7281
2023,10,3.29134,-0.0240589,0.182435,0.727309
2025,8,3.29029,-0.0385734,0.182432,0.726952
2027,6,3.28991,-0.0379947,0.182431,0.726034
2029,4,3.28977,-0.0356886,0.18189,0.725946
2030,3,3.29177,-0.0309909,0.180289,0.724631