File: hust_correlation_analysis/matrices/HUST_6-4_cycle_feature_matrix.csv
cycle_number,rul,voltage,current,capacity,charge_capacity
1,1719,3.32354,-0.0224097,0.275359,0.996752
3,1717,3.31274,-0.0229335,0.27875,0.991864
5,1715,3.31248,-0.0243519,0.279199,0.990998
7,1713,3.31186,-0.0251292,0.279648,0.990416
9,1711,3.31221,-0.025791,0.279195,0.990387
11,1709,3.31432,-0.0229591,0.277717,0.989784
13,1707,3.31407,-0.0236674,0.277715,0.989474
15,1705,3.31382,-0.024421,0.277714,0.989154
17,1703,3.31353,-0.0250582,0.277713,0.988878
19,1701,3.3135,-0.0251442,0.27771,0.988843
21,1699,3.31292,-0.0258208,0.277711,0.988553
23,1697,3.31285,-0.0264826,0.277706,0.988259
25,1695,3.315,-0.0229932,0.276231,0.987951
27,1693,3.31486,-0.0237343,0.27672,0.98763
29,1691,3.31493,-0.0244437,0.276235,0.98734
31,1689,3.31422,-0.0244469,0.276226,0.987317
33,1687,3.31393,-0.0243085,0.276703,0.987341
35,1685,3.31408,-0.0250906,0.276209,0.98698
37,1683,3.31386,-0.0250571,0.276207,0.986803
39,1681,3.31371,-0.0258725,0.276648,0.986368
41,1679,3.31359,-0.0258686,0.276202,0.986874
43,1677,3.31353,-0.0257719,0.2762,0.986665
45,1675,3.31298,-0.026554,0.276643,0.986061
47,1673,3.31236,-0.0265544,0.276642,0.986045
49,1671,3.31479,-0.0230455,0.27516,0.985725
51,1669,3.31436,-0.0236646,0.275161,0.985454
53,1667,3.31403,-0.0238146,0.275606,0.985127
55,1665,3.3144,-0.0245591,0.275603,0.984812
57,1663,3.31424,-0.0244355,0.275158,0.985121
59,1661,3.3145,-0.0244376,0.27516,0.985122
61,1659,3.31428,-0.0253912,0.275603,0.984702
63,1657,3.31437,-0.0251706,0.27516,0.984813
65,1655,3.31385,-0.0259652,0.275604,0.984215
67,1653,3.31386,-0.0260859,0.275604,0.984155
69,1651,3.31351,-0.0259346,0.275601,0.984214
71,1649,3.31342,-0.0265662,0.27595,0.983934
73,1647,3.31324,-0.0266265,0.275599,0.983914
75,1645,3.31301,-0.026652,0.2756,0.98391
77,1643,3.31533,-0.0237347,0.274118,0.983316
79,1641,3.31534,-0.023834,0.27412,0.98328
81,1639,3.31523,-0.0237837,0.274118,0.983304
83,1637,3.31523,-0.0244878,0.274119,0.983
85,1635,3.3155,-0.0243663,0.27411,0.983038
87,1633,3.31535,-0.0245741,0.274122,0.982993
89,1631,3.31553,-0.0253023,0.274406,0.982701
91,1629,3.31528,-0.0252339,0.27413,0.982735
93,1627,3.31559,-0.025908,0.274129,0.98222
95,1625,3.3149,-0.0259389,0.274125,0.982411
97,1623,3.31498,-0.0258714,0.274125,0.982443
99,1621,3.31503,-0.0259485,0.274121,0.982395
101,1619,3.31417,-0.0267304,0.274565,0.981799
103,1617,3.31419,-0.0267703,0.274567,0.981779
105,1615,3.3138,-0.0267661,0.274566,0.981775
107,1613,3.31371,-0.0266924,0.274562,0.981807
109,1611,3.31585,-0.0238211,0.273084,0.981207
111,1609,3.31609,-0.0238837,0.273087,0.981196
113,1607,3.31619,-0.0239691,0.273095,0.981191
115,1605,3.31626,-0.024638,0.273097,0.980913
117,1603,3.31606,-0.0246123,0.273099,0.98094
119,1601,3.31676,-0.0245325,0.27265,0.981208
121,1599,3.31611,-0.0253082,0.273089,0.980416
123,1597,3.31564,-0.0252892,0.273091,0.980612
125,1595,3.31541,-0.025288,0.273088,0.980606
127,1593,3.31534,-0.0253388,0.273087,0.980583
129,1591,3.31531,-0.0253423,0.273088,0.980592
131,1589,3.31535,-0.0260296,0.273088,0.98028
133,1587,3.31489,-0.0260677,0.273087,0.980271
135,1585,3.31474,-0.0259932,0.273084,0.980291
137,1583,3.31497,-0.0260345,0.273081,0.98027
139,1581,3.31465,-0.0268744,0.273531,0.97966
141,1579,3.31476,-0.0267843,0.273088,0.97997
143,1577,3.31474,-0.0267701,0.273093,0.979992
145,1575,3.31724,-0.0239289,0.271615,0.979388
147,1573,3.31649,-0.0240027,0.272055,0.979092
149,1571,3.31634,-0.0240091,0.272058,0.979092
151,1569,3.31702,-0.0239887,0.271708,0.979348
153,1567,3.31712,-0.0238857,0.271604,0.979377
155,1565,3.31627,-0.0247065,0.272052,0.978776
157,1563,3.31618,-0.0246422,0.272049,0.978793
159,1561,3.31597,-0.0246736,0.272047,0.978771
161,1559,3.31589,-0.0246746,0.272144,0.978772
163,1557,3.31585,-0.0253749,0.272044,0.978458
165,1555,3.31541,-0.0255681,0.272491,0.978122
167,1553,3.3155,-0.0253996,0.272046,0.977136
169,1551,3.31593,-0.0254734,0.272052,0.97845
171,1549,3.31585,-0.0260671,0.272056,0.978207
173,1547,3.31592,-0.0260963,0.272057,0.978202
175,1545,3.31514,-0.0262432,0.272502,0.977884
177,1543,3.31496,-0.0262102,0.272504,0.9779
179,1541,3.3156,-0.0269217,0.272501,0.977583
181,1539,3.31502,-0.0268453,0.272501,0.977604
183,1537,3.3152,-0.0269242,0.272501,0.977579
185,1535,3.3148,-0.0269773,0.272503,0.977563
187,1533,3.31475,-0.0269179,0.272992,0.977583
189,1531,3.31724,-0.0240249,0.271017,0.976986
191,1529,3.31729,-0.0240947,0.271018,0.976963
193,1527,3.31718,-0.0240886,0.271116,0.976964
195,1525,3.31719,-0.0241257,0.271019,0.976765
197,1523,3.31725,-0.0248001,0.271019,0.976665
199,1521,3.3162,-0.0248397,0.271465,0.976395
201,1519,3.3175,-0.024752,0.27102,0.976689
203,1517,3.3163,-0.024914,0.271465,0.976366
205,1515,3.3169,-0.0255992,0.271465,0.976068
207,1513,3.3163,-0.0255627,0.271465,0.976083
209,1511,3.31682,-0.0255169,0.27102,0.97636
211,1509,3.31639,-0.0255942,0.271465,0.976078
213,1507,3.31613,-0.0255114,0.271465,0.976103
215,1505,3.31667,-0.0262953,0.271462,0.975756
217,1503,3.31593,-0.0263265,0.271465,0.97575
219,1501,3.31606,-0.0263281,0.271464,0.975754
221,1499,3.31619,-0.0261119,0.271018,0.976098
223,1497,3.31597,-0.0263214,0.271121,0.975758
225,1495,3.31661,-0.0262164,0.271016,0.976048
227,1493,3.31571,-0.0270155,0.271463,0.975455
229,1491,3.31561,-0.0269576,0.271462,0.975479
231,1489,3.31541,-0.027007,0.27173,0.975435
233,1487,3.31538,-0.0270376,0.271452,0.975397
235,1485,3.3175,-0.0234401,0.269974,0.975135
237,1483,3.31778,-0.0241273,0.269973,0.974841
239,1481,3.31762,-0.0241628,0.269974,0.97483
241,1479,3.31738,-0.0241486,0.269972,0.974831
243,1477,3.31737,-0.0241488,0.269974,0.974832
245,1475,3.31714,-0.0241563,0.270243,0.974826
247,1473,3.31775,-0.0248073,0.26997,0.974541
249,1471,3.31741,-0.0248339,0.269972,0.974534
251,1469,3.31715,-0.0248272,0.269975,0.974543
253,1467,3.31718,-0.0248003,0.269977,0.974557
255,1465,3.317,-0.0248743,0.269976,0.974531
257,1463,3.31692,-0.0255624,0.27042,0.973976
259,1461,3.31669,-0.0257004,0.270422,0.973928
261,1459,3.31664,-0.0257366,0.27042,0.974154
263,1457,3.31629,-0.0256888,0.27042,0.973923
265,1455,3.31622,-0.0255904,0.270418,0.973956
267,1453,3.31616,-0.0256222,0.270417,0.973942
269,1451,3.31658,-0.026325,0.27033,0.973622
271,1449,3.31625,-0.0262846,0.270409,0.973619
273,1447,3.31622,-0.0263244,0.270502,0.973592
275,1445,3.31539,-0.0263775,0.270843,0.973287
277,1443,3.31519,-0.0264099,0.270842,0.973263
279,1441,3.31534,-0.0263963,0.270841,0.973271
281,1439,3.31521,-0.02611,0.270827,0.973352
283,1437,3.31503,-0.0263838,0.27084,0.973516
285,1435,3.31483,-0.0260683,0.27082,0.973345
287,1433,3.31439,-0.0262963,0.270822,0.973243
289,1431,3.31489,-0.0270042,0.271271,0.972697
291,1429,3.31478,-0.0272344,0.270838,0.972644
293,1427,3.31482,-0.0270618,0.271184,0.972962
295,1425,3.31453,-0.0271344,0.270837,0.97292
297,1423,3.31695,-0.02348,0.269346,0.972643
299,1421,3.31649,-0.0242322,0.269793,0.972055
301,1419,3.3162,-0.0242741,0.269794,0.972043
303,1417,3.31698,-0.0241893,0.269345,0.972321
305,1415,3.31658,-0.0242671,0.269345,0.972292
307,1413,3.31664,-0.0242459,0.269343,0.972301
309,1411,3.31686,-0.0249387,0.269342,0.972014
311,1409,3.3168,-0.0249884,0.269348,0.972015
313,1407,3.31646,-0.0250287,0.269352,0.972261
315,1405,3.31736,-0.0249257,0.268911,0.972321
317,1403,3.31725,-0.0255638,0.268906,0.97204
319,1401,3.31679,-0.0255934,0.268911,0.972041
321,1399,3.31699,-0.0256042,0.268906,0.97203
323,1397,3.31597,-0.0257116,0.269351,0.971729
325,1395,3.31714,-0.0256023,0.268908,0.972029
327,1393,3.31611,-0.0264289,0.269349,0.971408
329,1391,3.31592,-0.0263416,0.269348,0.971448
331,1389,3.31611,-0.0264285,0.269348,0.971412
333,1387,3.3157,-0.0264525,0.269347,0.97139
335,1385,3.31541,-0.026408,0.269348,0.971405
337,1383,3.31498,-0.0273108,0.269797,0.970779
339,1381,3.31567,-0.0271679,0.269354,0.971101
341,1379,3.31532,-0.0271915,0.269357,0.971118
343,1377,3.31761,-0.0235379,0.267869,0.970851
345,1375,3.31788,-0.0243255,0.267871,0.970506
347,1373,3.3175,-0.0243392,0.267874,0.970511
349,1371,3.31767,-0.0241907,0.267869,0.970553
351,1369,3.31742,-0.0243038,0.267863,0.970484
353,1367,3.31736,-0.0242135,0.267863,0.970512
355,1365,3.31769,-0.0243503,0.267862,0.970462
357,1363,3.31737,-0.0249932,0.267862,0.970177
359,1361,3.31754,-0.0249199,0.267857,0.970199
361,1359,3.31749,-0.0249532,0.267857,0.970182
363,1357,3.31743,-0.0249788,0.267858,0.970169
365,1355,3.31695,-0.0257878,0.268303,0.969573
367,1353,3.31769,-0.0257464,0.267863,0.969863
369,1351,3.31705,-0.0257103,0.267868,0.969896
371,1349,3.31731,-0.0257563,0.267868,0.969876
373,1347,3.31711,-0.0265431,0.268665,0.969307
375,1345,3.31761,-0.0264751,0.267873,0.96957
377,1343,3.31739,-0.0264235,0.267961,0.969583
379,1341,3.31704,-0.0264797,0.267865,0.969562
381,1339,3.31713,-0.0264508,0.267865,0.969574
383,1337,3.3164,-0.0272544,0.26831,0.968972
385,1335,3.31721,-0.0272456,0.267862,0.969219
387,1333,3.31614,-0.0272067,0.268304,0.96898
389,1331,3.31667,-0.0271399,0.267858,0.969258
391,1329,3.31874,-0.0236076,0.266371,0.968925
393,1327,3.31794,-0.024356,0.266814,0.96835
395,1325,3.31812,-0.0243299,0.266808,0.968334
397,1323,3.31847,-0.0243861,0.266382,0.968622
399,1321,3.31845,-0.0251214,0.266824,0.968054
401,1319,3.31838,-0.0251366,0.266828,0.968062
403,1317,3.31856,-0.0250651,0.266385,0.968345
405,1315,3.31839,-0.0250202,0.266384,0.968359
407,1313,3.31805,-0.025861,0.266822,0.967731
409,1311,3.31802,-0.0258339,0.266821,0.967738
411,1309,3.31774,-0.0257404,0.266819,0.967771
413,1307,3.31769,-0.0257853,0.266819,0.967748
415,1305,3.3173,-0.0257384,0.266815,0.96776
417,1303,3.31705,-0.0266507,0.267258,0.967113
419,1301,3.31676,-0.0266544,0.267603,0.967108
421,1299,3.31654,-0.0265951,0.267259,0.967132
423,1297,3.31679,-0.0267397,0.267359,0.966922
425,1295,3.31689,-0.0273468,0.267271,0.966839
427,1293,3.3173,-0.0273319,0.266827,0.967107
429,1291,3.31886,-0.0237809,0.265777,0.966527
431,1289,3.31913,-0.0245139,0.265779,0.966209
433,1287,3.31889,-0.0244677,0.265778,0.966233
435,1285,3.31881,-0.0244866,0.265779,0.966229
437,1283,3.31902,-0.0245025,0.265777,0.966217
439,1281,3.31857,-0.0252358,0.266222,0.965643
441,1279,3.31893,-0.0252461,0.265776,0.965886
443,1277,3.31892,-0.0252527,0.265778,0.965892
445,1275,3.31876,-0.0252222,0.265775,0.965901
447,1273,3.31893,-0.0259028,0.265774,0.965599
449,1271,3.31859,-0.0258083,0.265773,0.965635
451,1269,3.31873,-0.0259586,0.265776,0.965584
453,1267,3.31883,-0.0266757,0.265777,0.965272
455,1265,3.31847,-0.0267471,0.265781,0.965511
457,1263,3.31835,-0.0267032,0.265781,0.96529
459,1261,3.31805,-0.026665,0.265781,0.965306
461,1259,3.31789,-0.0275422,0.266228,0.96469
463,1257,3.31797,-0.0273538,0.265782,0.965009
465,1255,3.31813,-0.0273844,0.26578,0.964987
467,1253,3.32014,-0.0237382,0.264285,0.96469
469,1251,3.31924,-0.0245627,0.264726,0.964064
471,1249,3.31921,-0.024466,0.264722,0.964094
473,1247,3.31899,-0.0243895,0.264723,0.964139
475,1245,3.319,-0.0245673,0.264723,0.96405
477,1243,3.31912,-0.0244565,0.264722,0.964087
479,1241,3.31864,-0.0253676,0.265166,0.963449
481,1239,3.31906,-0.0253254,0.264725,0.963728
483,1237,3.31897,-0.0253134,0.26473,0.963761
485,1235,3.31892,-0.0260666,0.265521,0.963201
487,1233,3.31907,-0.026033,0.264737,0.963472
489,1231,3.31947,-0.0260517,0.264734,0.96346
491,1229,3.31887,-0.0268562,0.265179,0.962861
493,1227,3.31858,-0.026909,0.265183,0.962852
495,1225,3.3186,-0.0269061,0.265183,0.962858
497,1223,3.31843,-0.0275116,0.265181,0.962579
499,1221,3.31869,-0.0275802,0.265178,0.962551
501,1219,3.31842,-0.0275334,0.265179,0.962572
503,1217,3.31792,-0.0276151,0.265663,0.962534
505,1215,3.32041,-0.024604,0.263671,0.961922
507,1213,3.31984,-0.0246758,0.263673,0.961902
509,1211,3.31957,-0.0246669,0.263677,0.961915
511,1209,3.31989,-0.0246569,0.26368,0.961937
513,1207,3.31971,-0.0254331,0.263685,0.961607
515,1205,3.31963,-0.025357,0.263686,0.961642
517,1203,3.31936,-0.0253675,0.263687,0.961637
519,1201,3.31941,-0.0262719,0.26413,0.961009
521,1199,3.31868,-0.0262664,0.264613,0.960997
523,1197,3.31868,-0.0261589,0.264114,0.961011
525,1195,3.31841,-0.0261972,0.264111,0.960975
527,1193,3.31902,-0.0261131,0.263668,0.961253
529,1191,3.31903,-0.0270022,0.264109,0.960609
531,1189,3.31835,-0.0268693,0.26411,0.960676
533,1187,3.31847,-0.0268881,0.264111,0.960672
535,1185,3.31822,-0.0268746,0.264109,0.960669
537,1183,3.31833,-0.0276063,0.264106,0.96035
539,1181,3.31786,-0.0277849,0.264555,0.960025
541,1179,3.318,-0.0275885,0.264109,0.960374
543,1177,3.32063,-0.0246718,0.262612,0.95974
545,1175,3.32047,-0.024678,0.262612,0.959738
547,1173,3.32,-0.0247182,0.262612,0.959965
549,1171,3.32008,-0.0247059,0.262611,0.959733
551,1169,3.3201,-0.0254651,0.262608,0.95939
553,1167,3.32018,-0.0254856,0.26261,0.959379
555,1165,3.31992,-0.0253545,0.262608,0.959447
557,1163,3.31982,-0.0254272,0.262605,0.95801
559,1161,3.31918,-0.026225,0.263049,0.958811
561,1159,3.31904,-0.0262739,0.263048,0.958785
563,1157,3.31903,-0.0262701,0.263046,0.958779
565,1155,3.31846,-0.0262424,0.263044,0.958787
567,1153,3.31826,-0.0270663,0.263492,0.95818
569,1151,3.31813,-0.0270426,0.263493,0.958193
571,1149,3.31864,-0.0270425,0.26305,0.958449
573,1147,3.31836,-0.0279301,0.263498,0.957839
575,1145,3.31837,-0.0277448,0.263146,0.958176
577,1143,3.32079,-0.0240706,0.261557,0.957882
579,1141,3.3208,-0.0247527,0.261553,0.957575
581,1139,3.3208,-0.0247889,0.261554,0.957552
583,1137,3.32073,-0.0247381,0.261552,0.957559
585,1135,3.32002,-0.0255897,0.261994,0.956947
587,1133,3.31999,-0.0256063,0.261993,0.956937
589,1131,3.3198,-0.0256029,0.26199,0.956939
591,1129,3.31991,-0.0255366,0.261547,0.957225
593,1127,3.31971,-0.0263897,0.261991,0.956601
595,1125,3.31934,-0.0264257,0.262253,0.956588
597,1123,3.32003,-0.0263393,0.261552,0.955608
599,1121,3.31924,-0.0270644,0.261994,0.956327
601,1119,3.31922,-0.0270947,0.262,0.956335
603,1117,3.31917,-0.0271275,0.261999,0.956321
605,1115,3.31826,-0.0278778,0.262447,0.955753
607,1113,3.31898,-0.0279947,0.262446,0.955702
609,1111,3.31888,-0.0278227,0.261996,0.95601
611,1109,3.32125,-0.0242062,0.26049,0.955667
613,1107,3.32115,-0.0248487,0.26049,0.955372
615,1105,3.3207,-0.0249749,0.260931,0.955246
617,1103,3.32044,-0.0249253,0.26093,0.955088
619,1101,3.32094,-0.0247892,0.260488,0.955394
621,1099,3.32073,-0.025732,0.260927,0.954734
623,1097,3.32069,-0.0257003,0.260927,0.954738
625,1095,3.32051,-0.0256301,0.260481,0.955011
627,1093,3.32038,-0.0264918,0.26093,0.954414
629,1091,3.32039,-0.0263973,0.26049,0.954717
631,1089,3.32002,-0.0271981,0.261419,0.954136
633,1087,3.31992,-0.0272304,0.260939,0.954135
635,1085,3.3198,-0.0272277,0.260943,0.954137
637,1083,3.31916,-0.028009,0.261377,0.953534
639,1081,3.31849,-0.027908,0.261374,0.95356
641,1079,3.31891,-0.0280368,0.261372,0.953495
643,1077,3.32053,-0.0242999,0.259866,0.953212
645,1075,3.32068,-0.0250029,0.259865,0.952892
647,1073,3.3207,-0.0250756,0.259864,0.952862
649,1071,3.32084,-0.0249625,0.259864,0.952919
651,1069,3.32083,-0.0255061,0.259861,0.952664
653,1067,3.32103,-0.0257787,0.259863,0.952558
655,1065,3.32077,-0.0258322,0.259867,0.952549
657,1063,3.32107,-0.0265283,0.260357,0.952276
659,1061,3.3205,-0.0264662,0.259881,0.952323
661,1059,3.32095,-0.0265894,0.259876,0.952262
663,1057,3.32012,-0.0274407,0.260322,0.951654
665,1055,3.3199,-0.0274437,0.260324,0.951667
667,1053,3.31971,-0.028079,0.260323,0.951377
669,1051,3.31947,-0.0281057,0.260321,0.951368
671,1049,3.32137,-0.0244418,0.258815,0.951042
673,1047,3.32107,-0.0251866,0.259254,0.950459
675,1045,3.32132,-0.0251214,0.259291,0.950724
677,1043,3.32175,-0.0251251,0.25881,0.950736
679,1041,3.32183,-0.0259079,0.258813,0.950402
681,1039,3.3214,-0.0258211,0.25881,0.950438
683,1037,3.32119,-0.0259657,0.259252,0.950124
685,1035,3.32082,-0.0266832,0.259259,0.949829
687,1033,3.32093,-0.0267594,0.25926,0.949804
689,1031,3.32117,-0.0266582,0.258815,0.95009
691,1029,3.32034,-0.0275298,0.259516,0.949467
693,1027,3.32015,-0.0274015,0.259259,0.949529
695,1025,3.31955,-0.0283182,0.259701,0.948878
697,1023,3.3196,-0.0281954,0.259258,0.949174
699,1021,3.32171,-0.0244665,0.257747,0.948874
701,1019,3.32108,-0.0252777,0.25819,0.948268
703,1017,3.32141,-0.0253716,0.257887,0.948236
705,1015,3.321,-0.0252796,0.258193,0.948278
707,1013,3.32187,-0.0260356,0.258193,0.947956
709,1011,3.32138,-0.0260376,0.258192,0.947955
711,1009,3.32098,-0.0269752,0.258635,0.9473
713,1007,3.32116,-0.026749,0.258187,0.947634
715,1005,3.32154,-0.0268363,0.258191,0.947619
717,1003,3.32104,-0.0275426,0.25819,0.947297
719,1001,3.32083,-0.0274799,0.258187,0.947319
721,999,3.32035,-0.0284288,0.258634,0.946677
723,997,3.31975,-0.0283749,0.258631,0.946694
725,995,3.31942,-0.0284062,0.258628,0.946675
727,993,3.32152,-0.0255101,0.257562,0.945757
729,991,3.32099,-0.0253598,0.258045,0.94582
731,989,3.32117,-0.0254397,0.257563,0.945794
733,987,3.32145,-0.0261743,0.257893,0.945334
735,985,3.32144,-0.0259201,0.257559,0.945576
737,983,3.32113,-0.0261984,0.257554,0.945449
739,981,3.32082,-0.0269921,0.258254,0.944849
741,979,3.32087,-0.0273259,0.257551,0.94495
743,977,3.32074,-0.0276422,0.257552,0.944818
745,975,3.32053,-0.0276689,0.257552,0.944802
747,973,3.32029,-0.0276809,0.258033,0.944796
749,971,3.32009,-0.0283776,0.257548,0.944487
751,969,3.31991,-0.0283018,0.25755,0.944536
753,967,3.32139,-0.0254952,0.25648,0.94357
755,965,3.32152,-0.025452,0.256278,0.943593
757,963,3.32137,-0.0254491,0.25648,0.943593
759,961,3.32176,-0.0261717,0.256482,0.943289
761,959,3.32172,-0.0261969,0.256475,0.943258
763,957,3.32095,-0.0270814,0.256921,0.942631
765,955,3.3215,-0.0268434,0.256476,0.942972
767,953,3.320844,-0.0278491,0.25692,0.942292
769,951,3.32127,-0.0277412,0.256728,0.942584
771,949,3.32023,-0.0278794,0.256916,0.942276
773,947,3.31987,-0.0285749,0.256918,0.941974
775,945,3.3197,-0.028579,0.25692,0.941983
777,943,3.32184,-0.024736,0.255402,0.941711
779,941,3.32136,-0.0256104,0.256184,0.941093
781,939,3.32159,-0.0256329,0.255851,0.941096
783,937,3.32131,-0.0263215,0.255855,0.94081
785,935,3.32211,-0.0263962,0.25541,0.941025
787,933,3.32165,-0.0269673,0.255853,0.940523
789,931,3.32148,-0.0271454,0.255849,0.94045
791,929,3.3213,-0.0278735,0.255852,0.940138
793,927,3.32059,-0.0278994,0.255848,0.940114
795,925,3.31992,-0.0287657,0.256293,0.939498
797,923,3.3204,-0.0286361,0.255847,0.939802
799,921,3.3218,-0.0256265,0.254775,0.938921
801,919,3.32186,-0.0257147,0.254775,0.938881
803,917,3.32205,-0.0256737,0.255028,0.938904
805,915,3.32173,-0.0265496,0.255224,0.938292
807,913,3.32214,-0.0265006,0.254781,0.938576
809,911,3.32162,-0.0272843,0.25523,0.937995
811,909,3.32207,-0.0272783,0.255265,0.938241
813,907,3.32131,-0.0281392,0.255227,0.937621
815,905,3.32113,-0.0280651,0.255247,0.937651
817,903,3.32081,-0.0289596,0.255227,0.93727
819,901,3.32253,-0.025007,0.253705,0.937034
821,899,3.3221,-0.0259394,0.25415,0.936388
823,897,3.32176,-0.0259454,0.25415,0.936383
825,895,3.32164,-0.0267704,0.254596,0.935781
827,893,3.32198,-0.0266489,0.254147,0.93607
829,891,3.32186,-0.0275384,0.254596,0.935449
831,889,3.32216,-0.0274144,0.254143,0.935744
833,887,3.32159,-0.0274357,0.254143,0.935737
835,885,3.32065,-0.0282245,0.254911,0.935102
837,883,3.32055,-0.0280333,0.254129,0.935421
839,881,3.31988,-0.0290361,0.255025,0.934523
841,879,3.31916,-0.029057,0.255026,0.934494
843,877,3.3221,-0.025027,0.253049,0.934523
845,875,3.32256,-0.025965,0.253048,0.934117
847,873,3.32203,-0.0268671,0.253501,0.93351
849,871,3.32159,-0.0267215,0.253502,0.933579
851,869,3.32252,-0.026767,0.253052,0.933801
853,867,3.32148,-0.0275275,0.253501,0.933242
855,865,3.32146,-0.0280826,0.253501,0.933003
857,863,3.32095,-0.0282534,0.253497,0.932911
859,861,3.3208,-0.0282235,0.253496,0.932921
861,859,3.32084,-0.0291007,0.253746,0.932551
863,857,3.32311,-0.0252131,0.251966,0.932259
865,855,3.32285,-0.0259465,0.252412,0.931503
867,853,3.32284,-0.026013,0.251968,0.931928
869,851,3.32264,-0.0269991,0.252422,0.931276
871,849,3.32187,-0.0269673,0.252417,0.931288
873,847,3.32179,-0.0275767,0.252414,0.931013
875,845,3.32167,-0.0275823,0.252898,0.931023
877,843,3.32089,-0.028525,0.252873,0.930388
879,841,3.32123,-0.0285334,0.252873,0.930399
881,839,3.32043,-0.0293882,0.253324,0.929786
883,837,3.32114,-0.0292635,0.252868,0.930067
885,835,3.32257,-0.0262871,0.251788,0.929163
887,833,3.32252,-0.0260956,0.251668,0.929487
889,831,3.32154,-0.0270568,0.251785,0.928826
891,829,3.32136,-0.0268992,0.251782,0.928887
893,827,3.3211,-0.0278789,0.252231,0.928229
895,825,3.3218,-0.027912,0.251784,0.928463
897,823,3.32128,-0.0285742,0.252224,0.927901
899,821,3.32144,-0.0284733,0.251773,0.928193
901,819,3.32148,-0.0293479,0.251772,0.92782
903,817,3.32037,-0.0294557,0.252226,0.927542
905,815,3.32175,-0.0263597,0.251141,0.926904
907,813,3.3218,-0.0264129,0.250686,0.926631
909,811,3.32227,-0.0272243,0.251139,0.926294
911,809,3.32181,-0.0272062,0.251138,0.926296
913,807,3.32226,-0.0278968,0.251139,0.926017
915,805,3.32222,-0.0277993,0.250684,0.926271
917,803,3.32192,-0.0278617,0.250681,0.926243
919,801,3.32103,-0.0285065,0.25113,0.925719
921,799,3.32088,-0.0286652,0.251128,0.925645
923,797,3.32052,-0.0296134,0.251576,0.92499
925,795,3.32208,-0.0264949,0.250489,0.924353
927,793,3.32294,-0.026369,0.25004,0.924417
929,791,3.32207,-0.0265705,0.250044,0.924349
931,789,3.32223,-0.0272707,0.250047,0.924076
933,787,3.32146,-0.0282001,0.250505,0.923459
935,785,3.32117,-0.0281664,0.250506,0.923475
937,783,3.32148,-0.0288857,0.250991,0.923161
939,781,3.32169,-0.029616,0.250503,0.922849
941,779,3.32122,-0.0296604,0.250496,0.922821
943,777,3.32321,-0.0257252,0.248954,0.922515
945,775,3.32231,-0.0265907,0.249402,0.921891
947,773,3.32241,-0.0265537,0.248947,0.922148
949,771,3.32132,-0.0274534,0.249851,0.92127
951,769,3.32129,-0.0282158,0.24985,0.920948
953,767,3.32201,-0.0281319,0.249394,0.921217
955,765,3.32191,-0.0288915,0.249396,0.920901
957,763,3.32134,-0.029007,0.249396,0.920862
959,761,3.32061,-0.0298422,0.24985,0.920269
961,759,3.32337,-0.0239411,0.247863,0.919866
963,757,3.32249,-0.0247689,0.248316,0.919274
965,755,3.3232,-0.0315284,0.247865,0.918836
967,753,3.32291,-0.0333505,0.247866,0.919291
969,751,3.3223,-0.0343542,0.248307,0.918605
971,749,3.32268,-0.0263124,0.247863,0.918877
973,747,3.32135,-0.0350828,0.248314,0.918318
975,745,3.32128,-0.0331728,0.248313,0.917907
977,743,3.32135,-0.0339708,0.248312,0.917566
979,741,3.32415,-0.0287287,0.246317,0.916836
981,739,3.32323,-0.0287179,0.246314,0.916841
983,737,3.32369,-0.0274283,0.245865,0.916396
985,735,3.32182,-0.0316426,0.247212,0.916334
987,733,3.32154,-0.0304216,0.247213,0.915633
989,731,3.32216,-0.0303352,0.246762,0.915913
991,729,3.32206,-0.0292068,0.246762,0.915176
993,727,3.32187,-0.029914,0.246761,0.914884
995,725,3.32205,-0.0299324,0.246312,0.915119
997,723,3.32368,-0.0268554,0.245215,0.914205
999,721,3.32296,-0.0268181,0.245214,0.914216
1001,719,3.32292,-0.0255919,0.245215,0.914759
1003,717,3.32278,-0.03448,0.245214,0.913179
1005,715,3.32281,-0.0263635,0.24529,0.913195
1007,713,3.32245,-0.0352654,0.245212,0.91285
1009,711,3.32182,-0.0292644,0.2459,0.9115
1011,709,3.32108,-0.0280978,0.245658,0.912217
1013,707,3.32383,-0.0321407,0.243662,0.912174
1015,705,3.32322,-0.0308498,0.243662,0.911506
1017,703,3.32347,-0.0296955,0.243661,0.910765
1019,701,3.32329,-0.0295712,0.243208,0.911052
1021,699,3.32246,-0.0325202,0.244104,0.910557
1023,697,3.32176,-0.0325859,0.244103,0.910531
1025,695,3.32214,-0.0312229,0.243654,0.910118
1027,693,3.32154,-0.0322147,0.2441,0.909462
1029,691,3.32469,-0.0260271,0.241667,0.909601
1031,689,3.32403,-0.0269149,0.242108,0.908745
1033,687,3.32366,-0.0276274,0.242103,0.908435
1035,685,3.32324,-0.0277095,0.242108,0.908415
1037,683,3.32238,-0.0285918,0.242552,0.907796
1039,681,3.32287,-0.0265568,0.242104,0.907683
1041,679,3.32238,-0.0353855,0.2421,0.907354
1043,677,3.32199,-0.036129,0.242097,0.907029
1045,675,3.32415,-0.0240836,0.240549,0.906718
1047,673,3.32285,-0.0330314,0.241311,0.906131
1049,671,3.32239,-0.033898,0.241432,0.905523
1051,669,3.32282,-0.0337498,0.240988,0.90582
1053,667,3.32248,-0.0346515,0.241424,0.905177
1055,665,3.3232,-0.0326174,0.240543,0.905306
1057,663,3.32144,-0.0354055,0.241428,0.90489
1059,661,3.32152,-0.0334556,0.240987,0.904733
1061,659,3.32332,-0.0302539,0.239879,0.903865
1063,657,3.32374,-0.029077,0.239436,0.903371
1065,655,3.32442,-0.0297945,0.239442,0.903097
1067,653,3.32362,-0.029884,0.23944,0.90306
1069,651,3.32307,-0.0305606,0.239437,0.902766
1071,649,3.32235,-0.0294654,0.239433,0.901998
1073,647,3.32151,-0.0295267,0.239873,0.901719
1075,645,3.32124,-0.030256,0.239875,0.901416
1077,643,3.32462,-0.0249487,0.237883,0.900685
1079,641,3.32372,-0.0271933,0.238324,0.900719
1081,639,3.32319,-0.027866,0.238319,0.900441
1083,637,3.32321,-0.0257286,0.23788,0.900361
1085,635,3.32266,-0.0267907,0.238326,0.899691
1087,633,3.32243,-0.0356415,0.238327,0.899421
1089,631,3.32309,-0.0356745,0.237892,0.899657
1091,629,3.32516,-0.0304011,0.236344,0.898683
1093,627,3.32351,-0.0333627,0.237219,0.89819
1095,625,3.32329,-0.0321272,0.237217,0.897468
1097,623,3.32365,-0.0320187,0.236767,0.89773
1099,621,3.32406,-0.0306981,0.236337,0.897306
1101,619,3.32424,-0.0306959,0.236127,0.897546
1103,617,3.32229,-0.0337781,0.237208,0.896777
1105,615,3.32148,-0.0325161,0.237207,0.896075
1107,613,3.32409,-0.0271626,0.235213,0.895323
1109,611,3.32384,-0.027182,0.235211,0.895308
1111,609,3.32433,-0.0258819,0.234775,0.89487
1113,607,3.32394,-0.0267003,0.234772,0.894524
1115,605,3.32341,-0.0266763,0.234771,0.894537
1117,603,3.32142,-0.0297261,0.236077,0.893754
1119,601,3.32222,-0.0305399,0.235644,0.893686
1121,599,3.32458,-0.0334627,0.234099,0.892712
1123,597,3.32401,-0.0334868,0.234099,0.892706
1125,595,3.32381,-0.0342874,0.234099,0.892384
1127,593,3.32291,-0.0351809,0.234531,0.891771
1129,591,3.32268,-0.0351903,0.234533,0.891765
1131,589,3.32331,-0.0317151,0.233661,0.891236
1133,587,3.32377,-0.0304436,0.233224,0.890764
1135,585,3.32497,-0.028499,0.232105,0.890582
1137,583,3.32451,-0.0314436,0.232539,0.890362
1139,581,3.32279,-0.032419,0.233407,0.889478
1141,579,3.32402,-0.0300864,0.232533,0.88968
1143,577,3.32346,-0.0311737,0.232966,0.888983
1145,575,3.32299,-0.0297771,0.232531,0.888585
1147,573,3.32258,-0.032672,0.232964,0.888375
1149,571,3.32375,-0.0287271,0.231838,0.887769
1151,569,3.3244,-0.0273825,0.231405,0.88735
1153,567,3.32394,-0.0261605,0.23141,0.886638
1155,565,3.32367,-0.0291762,0.231843,0.886388
1157,563,3.32385,-0.029082,0.231402,0.886899
1159,561,3.32291,-0.0277501,0.231404,0.885987
1161,559,3.32202,-0.0370185,0.231841,0.88536
1163,557,3.32479,-0.0316643,0.229855,0.884607
1165,555,3.32493,-0.0316693,0.229856,0.884613
1167,553,3.32405,-0.0345513,0.230285,0.88442
1169,551,3.32352,-0.0332605,0.230283,0.883715
1171,549,3.32244,-0.0342857,0.230715,0.88305
1173,547,3.32224,-0.0321532,0.230279,0.882939
1175,545,3.32574,-0.028794,0.228294,0.882591
1177,543,3.32477,-0.0296792,0.228944,0.881999
1179,541,3.32371,-0.0305617,0.229154,0.881397
1181,539,3.32329,-0.030601,0.229155,0.88139
1183,537,3.32396,-0.0294336,0.228724,0.880886
1185,535,3.32381,-0.0280117,0.228724,0.880241
1187,533,3.32327,-0.0289136,0.229033,0.879884
1189,531,3.32596,-0.0246642,0.226738,0.879897
1191,529,3.32511,-0.0255278,0.227166,0.879307
1193,527,3.32391,-0.0347694,0.227658,0.878698
1195,525,3.32453,-0.0334042,0.227163,0.878252
1197,523,3.32312,-0.0365312,0.228022,0.87774
1199,521,3.32261,-0.0365525,0.22802,0.877725
1201,519,3.32481,-0.0310895,0.226026,0.876974
1203,517,3.32408,-0.031942,0.226921,0.876388
1205,515,3.32422,-0.0307407,0.226454,0.875649
1207,513,3.32493,-0.0306755,0.225597,0.876165
1209,511,3.3227,-0.0337021,0.226883,0.875443
1211,509,3.32257,-0.0323664,0.22645,0.874997
1213,507,3.3222,-0.0334317,0.226882,0.874342
1215,505,3.3254,-0.0341329,0.224465,0.87352
1217,503,3.32508,-0.0265847,0.224464,0.873197
1219,501,3.32421,-0.0286735,0.225194,0.873335
1221,499,3.32386,-0.0275036,0.224889,0.872586
1223,497,3.32298,-0.0367675,0.225317,0.872001
1225,495,3.32308,-0.0354021,0.224888,0.871552
1227,493,3.32557,-0.0333226,0.223538,0.871662
1229,491,3.32409,-0.0260119,0.224175,0.870703
1231,489,3.32357,-0.0351134,0.22417,0.870437
1233,487,3.3236,-0.0275378,0.224167,0.870089
1235,485,3.32371,-0.0339035,0.223735,0.869922
1237,483,3.32316,-0.034642,0.223799,0.869641
1239,481,3.32161,-0.0355206,0.224164,0.869049
1241,479,3.32414,-0.0300914,0.222591,0.868005
1243,477,3.32441,-0.028897,0.222165,0.867502
1245,475,3.32459,-0.0286648,0.22174,0.867844
1247,473,3.32364,-0.0296905,0.222164,0.867193
1249,471,3.32256,-0.0306184,0.222594,0.866597
1251,469,3.3229,-0.0290759,0.222161,0.866217
1253,467,3.32442,-0.0344323,0.221028,0.86527
1255,465,3.32474,-0.0268295,0.22102,0.864917
1257,463,3.32327,-0.0311353,0.221873,0.865173
1259,461,3.32289,-0.0276743,0.221441,0.864337
1261,459,3.32253,-0.0369805,0.22144,0.864003
1263,457,3.32204,-0.0378269,0.221866,0.863431
1265,455,3.32472,-0.033603,0.220167,0.863393
1267,453,3.32366,-0.0345904,0.220293,0.862761
1269,451,3.32382,-0.0330628,0.219927,0.862371
1271,449,3.32323,-0.0341364,0.220289,0.861696
1273,447,3.32334,-0.0328272,0.219864,0.861233
1275,445,3.32208,-0.0359443,0.220712,0.860745
1277,443,3.32383,-0.0317503,0.219599,0.860434
1279,441,3.32412,-0.0303459,0.218713,0.860017
1281,439,3.32386,-0.0291321,0.218715,0.859285
1283,437,3.32399,-0.0279048,0.218297,0.858806
1285,435,3.32186,-0.0331412,0.21957,0.858483
1287,433,3.32191,-0.0318804,0.21957,0.857753
1289,431,3.32466,-0.0263451,0.217572,0.856996
1291,429,3.32459,-0.0334634,0.217148,0.856519
1293,427,3.32425,-0.0279798,0.217566,0.856352
1295,425,3.32329,-0.0278693,0.21756,0.856372
1297,423,3.32279,-0.0374216,0.217984,0.855749
1299,421,3.32462,-0.0318739,0.216404,0.854732
1301,419,3.32443,-0.0328277,0.2167,0.854369
1303,417,3.32322,-0.0358407,0.216824,0.854181
1305,415,3.32254,-0.034661,0.21725,0.853171
1307,413,3.32253,-0.035553,0.217455,0.85283
1309,411,3.3226,-0.0354063,0.216823,0.853127
1311,409,3.32154,-0.0363196,0.217245,0.852532
1313,407,3.32344,-0.030797,0.215665,0.85149
1315,405,3.32401,-0.0294857,0.215247,0.851046
1317,403,3.32419,-0.0281067,0.215122,0.850612
1319,401,3.32276,-0.0312985,0.215668,0.850107
1321,399,3.32188,-0.0300199,0.215667,0.849375
1323,397,3.32441,-0.0351988,0.214086,0.848784
1325,395,3.32428,-0.0265586,0.214081,0.847425
1327,393,3.32381,-0.0360987,0.214081,0.848433
1329,391,3.32258,-0.0283783,0.214498,0.847804
1331,389,3.32208,-0.0378084,0.214498,0.847527
1333,387,3.3218,-0.0365278,0.214497,0.846791
1335,385,3.32424,-0.0331332,0.212913,0.846151
1337,383,3.32286,-0.0363903,0.213751,0.845627
1339,381,3.32206,-0.0350535,0.213805,0.844916
1341,379,3.32312,-0.0314562,0.212905,0.84432
1343,377,3.32297,-0.0313326,0.212487,0.844629
1345,375,3.3251,-0.0300662,0.211317,0.844142
1347,373,3.32347,-0.0311222,0.212156,0.843245
1349,371,3.32411,-0.029837,0.211737,0.842767
1351,369,3.32323,-0.030647,0.212197,0.842458
1353,367,3.32248,-0.0316035,0.212158,0.841852
1355,365,3.32114,-0.0325387,0.212575,0.84124
1357,363,3.32394,-0.0356306,0.210564,0.840485
1359,361,3.32318,-0.0366145,0.210982,0.839871
1361,359,3.32306,-0.0276237,0.210559,0.840184
1363,357,3.32129,-0.0375086,0.211399,0.839274
1365,355,3.32236,-0.0359787,0.21056,0.839131
1367,353,3.32533,-0.032586,0.208969,0.838482
1369,351,3.32341,-0.0357489,0.209807,0.838032
1371,349,3.3227,-0.0367546,0.210229,0.837644
1373,347,3.32355,-0.0330483,0.209386,0.836842
1375,345,3.322536,-0.0341052,0.209803,0.8362
1377,343,3.32099,-0.035002,0.210508,0.83561
1379,341,3.32327,-0.0314549,0.208624,0.834997
1381,339,3.32421,-0.0278413,0.207792,0.83442
1383,337,3.32302,-0.0288929,0.208209,0.833783
1385,335,3.32148,-0.0321068,0.209046,0.833306
1387,333,3.32172,-0.0307078,0.208911,0.832851
1389,331,3.3242,-0.0351261,0.207024,0.832581
1391,329,3.323,-0.0361568,0.207441,0.831951
1393,327,3.32234,-0.0370332,0.20744,0.831627
1395,325,3.32282,-0.0356586,0.207022,0.83116
1397,323,3.32238,-0.0343547,0.207021,0.830424
1399,321,3.3243,-0.0330474,0.205838,0.829953
1401,319,3.3232,-0.0339815,0.206253,0.829347
1403,317,3.32307,-0.0304583,0.205835,0.828461
1405,315,3.32263,-0.0336429,0.206251,0.828259
1407,313,3.32175,-0.034395,0.206251,0.827983
1409,311,3.32135,-0.033078,0.206245,0.827236
1411,309,3.32318,-0.0297756,0.205061,0.826271
1413,307,3.32348,-0.0296523,0.204645,0.826578
1415,305,3.3223,-0.030581,0.205058,0.825986
1417,303,3.32215,-0.0298912,0.205059,0.825018
1419,301,3.32249,-0.0300218,0.204644,0.825235
1421,299,3.32407,-0.0267105,0.203455,0.824273
1423,297,3.3232,-0.0343266,0.203454,0.823551
1425,295,3.32304,-0.0350978,0.203453,0.82327
1427,293,3.32314,-0.0337253,0.203319,0.822799
1429,291,3.32161,-0.0370473,0.203866,0.822307
1431,289,3.32363,-0.0311827,0.202256,0.821289
1433,287,3.32374,-0.0321552,0.202256,0.820941
1435,285,3.32318,-0.0330257,0.202254,0.820622
1437,283,3.32097,-0.0364586,0.203502,0.819635
1439,281,3.32145,-0.0350093,0.203083,0.81941
1441,279,3.32182,-0.0335596,0.202664,0.818961
1443,277,3.32272,-0.03237,0.201882,0.818175
1445,275,3.32274,-0.0309956,0.201466,0.817709
1447,273,3.32264,-0.0296624,0.201465,0.816968
1449,271,3.32175,-0.0396696,0.201463,0.816641
1451,269,3.32036,-0.0405497,0.201878,0.816075
1453,267,3.32318,-0.0369598,0.200261,0.815448
1455,265,3.32328,-0.0355219,0.199848,0.815005
1457,263,3.32204,-0.0366185,0.20026,0.814361
1459,261,3.32077,-0.0375922,0.200716,0.813764
1461,259,3.32184,-0.0337399,0.199844,0.813197
1463,257,3.32352,-0.0325283,0.198536,0.812682
1465,255,3.322,-0.0350153,0.199464,0.812502
1467,253,3.3229,-0.0312268,0.198912,0.811924
1469,251,3.32271,-0.0320076,0.198636,0.811646
1471,249,3.32077,-0.0354251,0.19946,0.811139
1473,247,3.32375,-0.029391,0.197426,0.810396
1475,245,3.32394,-0.0369968,0.197014,0.809999
1477,243,3.32277,-0.0289369,0.197423,0.80934
1479,241,3.32157,-0.029907,0.197829,0.808726
1481,239,3.32138,-0.0399408,0.19783,0.808442
1483,237,3.32365,-0.0364621,0.196208,0.807766
1485,235,3.32187,-0.0375896,0.197068,0.806851
1487,233,3.32201,-0.0384367,0.197029,0.806566
1489,231,3.32206,-0.0368857,0.196608,0.806121
1491,229,3.32025,-0.0380319,0.197022,0.80547
1493,227,3.32059,-0.0388006,0.197021,0.805202
1495,225,3.32334,-0.0306455,0.194983,0.803968
1497,223,3.322425,-0.0337712,0.195393,0.803835
1499,221,3.32123,-0.0347919,0.196259,0.803231
1501,219,3.32174,-0.0334169,0.195387,0.802736
1503,217,3.3201,-0.0343995,0.195794,0.802124
1505,215,3.32201,-0.0308094,0.194574,0.8012
1507,213,3.32185,-0.0317204,0.194574,0.80089
1509,211,3.32192,-0.0302275,0.19416,0.800443
1511,209,3.32008,-0.033613,0.194979,0.799954
1513,207,3.3206,-0.0414816,0.194566,0.79951
1515,205,3.32245,-0.0379549,0.193342,0.798578
1517,203,3.32161,-0.0388756,0.193791,0.798257
1519,201,3.32083,-0.0398537,0.19375,0.797664
1521,199,3.3214,-0.0384077,0.193339,0.797212
1523,197,3.31965,-0.0395056,0.19375,0.796589
1525,195,3.32291,-0.0333566,0.191707,0.79585
1527,193,3.32212,-0.0343745,0.192116,0.795247
1529,191,3.32101,-0.0378148,0.192527,0.795033
1531,189,3.32061,-0.0364228,0.192978,0.794299
1533,187,3.32125,-0.0324209,0.191706,0.793764
1535,185,3.32293,-0.0312083,0.190474,0.793218
1537,183,3.32269,-0.0297283,0.190473,0.792503
1539,181,3.32233,-0.0306419,0.190502,0.792191
1541,179,3.32149,-0.0315347,0.190459,0.791855
1543,177,3.32052,-0.0325102,0.190867,0.791265
1545,175,3.32274,-0.0359883,0.189222,0.790176
1547,173,3.32177,-0.0393826,0.189628,0.789983
1549,171,3.32081,-0.0378203,0.189625,0.789291
1551,169,3.32065,-0.038811,0.189623,0.788956
1553,167,3.32077,-0.0412341,0.189622,0.789356
1555,165,3.32191,-0.0351481,0.188379,0.788015
1557,163,3.32204,-0.0346106,0.188377,0.786988
1559,161,3.32185,-0.0346338,0.187971,0.787078
1561,159,3.32066,-0.034237,0.18864,0.785906
1563,157,3.32041,-0.0352329,0.188377,0.785582
1565,155,3.32307,-0.0315138,0.186728,0.784944
1567,153,3.32187,-0.0324388,0.187133,0.784376
1569,151,3.32098,-0.0407075,0.187136,0.783609
1571,149,3.32089,-0.0322463,0.187132,0.783231
1573,147,3.32055,-0.0329605,0.18713,0.783166
1575,145,3.32232,-0.0389213,0.185879,0.782037
1577,143,3.32205,-0.039919,0.185877,0.781702
1579,141,3.32092,-0.0407002,0.18628,0.781179
1581,139,3.321275,-0.0368518,0.18547,0.780553
1583,137,3.32003,-0.0428327,0.186276,0.780469
1585,135,3.32225,-0.0366207,0.184615,0.779414
1587,133,3.32278,-0.0325608,0.183809,0.778853
1589,131,3.32066,-0.0385795,0.185017,0.778494
1591,129,3.32096,-0.0369593,0.184611,0.77808
1593,127,3.32035,-0.0356974,0.18461,0.77729
1595,125,3.32207,-0.0344278,0.183352,0.776757
1597,123,3.32252,-0.0317826,0.182976,0.77669
1599,121,3.32212,-0.0313685,0.182949,0.775623
1601,119,3.32139,-0.0323449,0.182947,0.775304
1603,117,3.32014,-0.043064,0.183353,0.774725
1605,115,3.32325,-0.0394065,0.181692,0.774289
1607,113,3.32148,-0.0403779,0.182091,0.773466
1609,111,3.32183,-0.0388399,0.181689,0.773014
1611,109,3.32208,-0.0372115,0.181288,0.772599
1613,107,3.31944,-0.0433219,0.182488,0.772236
1615,105,3.32366,-0.0344604,0.180018,0.771328
1617,103,3.32292,-0.0380037,0.180416,0.771127
1619,101,3.32174,-0.0365565,0.180414,0.770385
1621,99,3.32246,-0.0349149,0.180014,0.769974
1623,97,3.32122,-0.0384165,0.180411,0.769789
1625,95,3.32272,-0.0323641,0.179141,0.768375
1627,93,3.32308,-0.0307681,0.178741,0.767953
1629,91,3.321888,-0.0341738,0.179137,0.767788
1631,89,3.32123,-0.0328048,0.179136,0.76726
1633,87,3.32133,-0.0337724,0.179134,0.76671
1635,85,3.32384,-0.0299154,0.177469,0.766088
1637,83,3.32268,-0.0407731,0.177864,0.765509
1639,81,3.32261,-0.0419033,0.177864,0.765153
1641,79,3.32174,-0.0427117,0.177866,0.764898
1643,77,3.32362,-0.0366728,0.176585,0.763471
1645,75,3.32394,-0.0375672,0.176192,0.763473
1647,73,3.32285,-0.0384715,0.176584,0.762921
1649,71,3.32221,-0.0371316,0.176581,0.762116
1651,69,3.32165,-0.0389867,0.176578,0.761521
1653,67,3.32448,-0.0341724,0.174902,0.761181
1655,65,3.32452,-0.0311572,0.174508,0.759993
1657,63,3.32319,-0.0371914,0.175292,0.759941
1659,61,3.32287,-0.033165,0.174897,0.759082
1661,59,3.32245,-0.0341813,0.174896,0.758754
1663,57,3.32367,-0.0330049,0.173999,0.758152
1665,55,3.32416,-0.031413,0.173608,0.757487
1667,53,3.3237,-0.0422861,0.173606,0.757201
1669,51,3.32218,-0.0334256,0.173996,0.756569
1671,49,3.32586,-0.0369314,0.171922,0.755809
1673,47,3.32486,-0.0404609,0.17231,0.75564
1675,45,3.32361,-0.0389807,0.172309,0.754894
1677,43,3.32409,-0.0400199,0.172308,0.754575
1679,41,3.32234,-0.0411295,0.172698,0.753966
1681,39,3.32595,-0.0345201,0.170622,0.753226
1683,37,3.32498,-0.0382002,0.17101,0.753017
1685,35,3.32454,-0.0367359,0.171012,0.752286
1687,33,3.32464,-0.0350021,0.17062,0.752115
1689,31,3.32292,-0.0372404,0.171005,0.750895
1691,29,3.32611,-0.0305943,0.168929,0.750159
1693,27,3.32602,-0.0415807,0.168927,0.749877
1695,25,3.32426,-0.0352487,0.169699,0.749369
1697,23,3.32433,-0.0438095,0.16931,0.748915
1699,21,3.32702,-0.0397867,0.167618,0.748298
1701,19,3.32458,-0.0410683,0.168388,0.747355
1703,17,3.32601,-0.0393355,0.167628,0.747221
1705,15,3.32414,-0.0431489,0.168385,0.746716
1707,13,3.32409,-0.0413893,0.167997,0.74631
1709,11,3.32701,-0.0359081,0.166303,0.744934
1711,9,3.32576,-0.0395159,0.166685,0.744755
1713,7,3.32558,-0.0355422,0.1663,0.74384
1715,5,3.32517,-0.0365989,0.1663,0.74352
1717,3,3.32347,-0.04033,0.167503,0.74304