File: hust_correlation_analysis/matrices/HUST_7-8_cycle_feature_matrix.csv
cycle_number,rul,voltage,current,capacity,charge_capacity
1,1940,3.29989,0.0250259,0.339334,1.06403
3,1938,3.28679,-0.00772699,0.356093,1.03494
5,1936,3.28939,-0.00758991,0.354475,1.03808
7,1934,3.29092,-0.00812621,0.35331,1.04085
9,1932,3.29165,-0.0086214,0.352621,1.04297
11,1930,3.29337,-0.00643078,0.350882,1.0451
13,1928,3.29408,-0.00748125,0.350219,1.0471
15,1926,3.29584,-0.00632752,0.348931,1.04836
17,1924,3.29558,-0.00785504,0.348703,1.04982
19,1922,3.2966,-0.00682784,0.347863,1.05087
21,1920,3.29733,-0.00625994,0.34704,1.05161
23,1918,3.29797,-0.00570797,0.346607,1.05215
25,1916,3.29916,-0.00511241,0.345342,1.05302
27,1914,3.29896,-0.00526473,0.345337,1.0529
29,1912,3.29834,-0.00732606,0.345542,1.05377
31,1910,3.2989,-0.00681849,0.345131,1.05429
33,1908,3.29944,-0.00682184,0.344711,1.05445
35,1906,3.29952,-0.00686905,0.344716,1.05443
37,1904,3.30026,-0.00628654,0.343888,1.05512
39,1902,3.30037,-0.00630708,0.34389,1.05511
41,1900,3.30082,-0.00632058,0.34348,1.05526
43,1898,3.30046,-0.00637455,0.343479,1.05522
45,1896,3.30092,-0.0062321,0.343463,1.05531
47,1894,3.30085,-0.00636128,0.343074,1.0554
49,1892,3.30135,-0.0067452,0.342666,1.05391
51,1890,3.30095,-0.00688302,0.343071,1.05529
53,1888,3.30124,-0.00673664,0.342668,1.05529
55,1886,3.30127,-0.00686653,0.342669,1.05522
57,1884,3.30104,-0.00690938,0.342671,1.05519
59,1882,3.3011,-0.00687036,0.342664,1.05521
61,1880,3.30101,-0.00739502,0.34271,1.05483
63,1878,3.3012,-0.00786692,0.342669,1.0545
65,1876,3.30277,-0.00532416,0.341245,1.05446
67,1874,3.30271,-0.00573913,0.341251,1.05418
69,1872,3.30269,-0.00568238,0.340506,1.05449
71,1870,3.30266,-0.00577204,0.34125,1.05417
73,1868,3.30271,-0.00623407,0.341244,1.05382
75,1866,3.30265,-0.00631618,0.341348,1.05379
77,1864,3.30242,-0.00626355,0.341245,1.0538
79,1862,3.30234,-0.00634515,0.341241,1.05373
81,1860,3.30225,-0.00632388,0.341244,1.05374
83,1858,3.30232,-0.006804,0.341244,1.05342
85,1856,3.30231,-0.00735299,0.341252,1.05303
87,1854,3.30231,-0.00729646,0.341254,1.05308
89,1852,3.3038,-0.00518191,0.340221,1.05255
91,1850,3.3038,-0.0051945,0.340223,1.05254
93,1848,3.30369,-0.00524425,0.340216,1.05251
95,1846,3.30353,-0.00524154,0.340218,1.0525
97,1844,3.30371,-0.00575064,0.340224,1.05214
99,1842,3.30343,-0.00566696,0.340214,1.05218
101,1840,3.30339,-0.00576985,0.340214,1.0521
103,1838,3.30313,-0.00630482,0.340617,1.05159
105,1836,3.30294,-0.0062568,0.340626,1.05165
107,1834,3.30305,-0.00678067,0.340635,1.05127
109,1832,3.30347,-0.00669267,0.340214,1.05173
111,1830,3.3027,-0.0067594,0.340719,1.05128
113,1828,3.30279,-0.00683916,0.340622,1.05121
115,1826,3.30279,-0.00726908,0.340617,1.05088
117,1824,3.3028,-0.00731261,0.340613,1.05086
119,1822,3.30264,-0.00733438,0.340617,1.05085
121,1820,3.30415,-0.00474758,0.339689,1.05065
123,1818,3.30382,-0.00528072,0.339997,1.0501
125,1816,3.30416,-0.00519744,0.339594,1.05033
127,1814,3.30371,-0.00574201,0.339999,1.0498
129,1812,3.30383,-0.00567738,0.340006,1.04987
131,1810,3.30367,-0.00571844,0.340002,1.04983
133,1808,3.30387,-0.00624331,0.34,1.04943
135,1806,3.30373,-0.0062165,0.339991,1.04944
137,1804,3.30366,-0.00621628,0.339998,1.04947
139,1802,3.30361,-0.00625405,0.339995,1.04943
141,1800,3.30323,-0.00676017,0.340403,1.04893
143,1798,3.3033,-0.00678444,0.340398,1.04888
145,1796,3.30317,-0.00673887,0.340401,1.04894
147,1794,3.30273,-0.00737933,0.34081,1.04833
149,1792,3.30334,-0.00713223,0.340406,1.04864
151,1790,3.30337,-0.00722829,0.34033,1.04858
153,1788,3.30378,-0.00477806,0.339772,1.04813
155,1786,3.3043,-0.00521582,0.340245,1.04783
157,1784,3.30383,-0.00515676,0.33978,1.04784
159,1782,3.30427,-0.00517819,0.33937,1.04797
161,1780,3.30396,-0.00566909,0.339767,1.04746
163,1778,3.30408,-0.00572343,0.339766,1.04743
165,1776,3.30376,-0.00573756,0.339776,1.04741
167,1774,3.30371,-0.00570984,0.339776,1.04745
169,1772,3.30334,-0.00628139,0.340176,1.04688
171,1770,3.30379,-0.00567144,0.339758,1.04742
173,1768,3.30368,-0.00625133,0.339766,1.04704
175,1766,3.30327,-0.00628764,0.340171,1.04686
177,1764,3.3035,-0.00625813,0.339628,1.04704
179,1762,3.30327,-0.0068092,0.340175,1.04649
181,1760,3.303,-0.00675894,0.340166,1.04651
183,1758,3.30343,-0.00672369,0.339766,1.0467
185,1756,3.30315,-0.00684031,0.340173,1.04628
187,1754,3.30309,-0.00734767,0.340175,1.04611
189,1752,3.3027,-0.00733138,0.340183,1.04613
191,1750,3.30456,-0.00468064,0.339141,1.04598
193,1748,3.30445,-0.00513724,0.339151,1.04564
195,1746,3.30407,-0.0052757,0.339556,1.04539
197,1744,3.30423,-0.00520909,0.339153,1.04559
199,1742,3.30403,-0.0052166,0.33954,1.04541
201,1740,3.30409,-0.00526679,0.339548,1.04537
203,1738,3.30403,-0.00527627,0.339537,1.04533
205,1736,3.30373,-0.00545131,0.339941,1.04505
207,1734,3.30341,-0.00493442,0.339938,1.04541
209,1732,3.30275,-0.00779399,0.340952,1.04536
211,1730,3.3027,-0.00498693,0.340343,1.04521
213,1728,3.30251,-0.00495267,0.340336,1.04519
215,1726,3.30374,-0.00589318,0.339935,1.0447
217,1724,3.30298,-0.00594571,0.340342,1.04453
219,1722,3.30347,-0.00584166,0.339935,1.04326
221,1720,3.30308,-0.00596447,0.340344,1.04451
223,1718,3.30314,-0.00646039,0.340341,1.04416
225,1716,3.30313,-0.00648418,0.340435,1.04412
227,1714,3.30279,-0.00640215,0.340337,1.04419
229,1712,3.30294,-0.00700857,0.339947,1.04392
231,1710,3.30231,-0.00752259,0.340364,1.04346
233,1708,3.30254,-0.00741193,0.33995,1.04367
235,1706,3.30262,-0.00743172,0.339951,1.04367
237,1704,3.30273,-0.00792381,0.339962,1.04332
239,1702,3.30379,-0.00535823,0.339326,1.04294
241,1700,3.30425,-0.00530152,0.338923,1.04313
243,1698,3.30369,-0.00537013,0.339329,1.04293
245,1696,3.30406,-0.00535969,0.338918,1.04306
247,1694,3.30373,-0.00529717,0.338641,1.04311
249,1692,3.30338,-0.00594438,0.339336,1.04253
251,1690,3.30391,-0.00581949,0.338926,1.04279
253,1688,3.30328,-0.00642957,0.339336,1.04219
255,1686,3.3033,-0.00638691,0.339339,1.04217
257,1684,3.30368,-0.00632886,0.338931,1.04242
259,1682,3.30357,-0.00635471,0.338927,1.04237
261,1680,3.30297,-0.0070365,0.339738,1.0416
263,1678,3.30339,-0.0069135,0.339332,1.04182
265,1676,3.30341,-0.00694236,0.339328,1.04181
267,1674,3.30323,-0.00690575,0.339332,1.04184
269,1672,3.30301,-0.006996,0.33934,1.04178
271,1670,3.30313,-0.00736092,0.339332,1.04153
273,1668,3.30294,-0.00739861,0.339331,1.0415
275,1666,3.30455,-0.00477929,0.338304,1.0413
277,1664,3.30416,-0.00535792,0.338711,1.04074
279,1662,3.30458,-0.00528619,0.338312,1.04096
281,1660,3.30442,-0.00531023,0.3383,1.04092
283,1658,3.304,-0.00541352,0.338719,1.04071
285,1656,3.30433,-0.00530332,0.33829,1.04091
287,1654,3.304,-0.00585681,0.338717,1.04038
289,1652,3.30392,-0.0058119,0.338706,1.04041
291,1650,3.30375,-0.00584636,0.338708,1.0404
293,1648,3.30387,-0.00637986,0.338722,1.04003
295,1646,3.30379,-0.00627837,0.338798,1.04012
297,1644,3.30359,-0.00632636,0.338723,1.03861
299,1642,3.30372,-0.00629296,0.338712,1.04009
301,1640,3.3038,-0.00683476,0.338713,1.03995
303,1638,3.30325,-0.00689037,0.339118,1.03949
305,1636,3.30352,-0.00684186,0.338712,1.03968
307,1634,3.3033,-0.00697939,0.339131,1.03946
309,1632,3.3035,-0.00681857,0.338788,1.0397
311,1630,3.30308,-0.00746769,0.339129,1.03911
313,1628,3.30345,-0.0073392,0.338725,1.03936
315,1626,3.30334,-0.00734913,0.338723,1.03935
317,1624,3.30483,-0.00525916,0.3381,1.03862
319,1622,3.30458,-0.00524609,0.338093,1.03861
321,1620,3.30452,-0.00525808,0.338099,1.03863
323,1618,3.30472,-0.0052627,0.338102,1.03889
325,1616,3.30447,-0.00529638,0.338104,1.03859
327,1614,3.30421,-0.0058716,0.338508,1.03804
329,1612,3.30443,-0.00574726,0.338092,1.03825
331,1610,3.3044,-0.00573721,0.338096,1.03676
333,1608,3.30431,-0.00577233,0.338108,1.03827
335,1606,3.30409,-0.0063863,0.338522,1.0377
337,1604,3.30407,-0.00630639,0.33853,1.03778
339,1602,3.3039,-0.00629335,0.338515,1.03776
341,1600,3.30388,-0.00632695,0.33852,1.03776
343,1598,3.30348,-0.00689125,0.338924,1.03719
345,1596,3.30392,-0.00683708,0.338511,1.03736
347,1594,3.30368,-0.00681507,0.338501,1.03734
349,1592,3.30358,-0.00685074,0.3385,1.0373
351,1590,3.3035,-0.00688481,0.338502,1.0373
353,1588,3.3038,-0.00737252,0.338518,1.03698
355,1586,3.3034,-0.00733431,0.338922,1.03687
357,1584,3.30335,-0.00731783,0.338927,1.0369
359,1582,3.30374,-0.00728744,0.338461,1.03705
361,1580,3.30502,-0.00527544,0.337896,1.03625
363,1578,3.30456,-0.00527678,0.3383,1.03612
365,1576,3.30482,-0.00518063,0.337901,1.03633
367,1574,3.30474,-0.00520354,0.337891,1.0363
369,1572,3.30468,-0.00521658,0.337887,1.03629
371,1570,3.30459,-0.00522614,0.337884,1.03628
373,1568,3.30421,-0.00581369,0.338299,1.03572
375,1566,3.30461,-0.00568768,0.337984,1.03595
377,1564,3.30418,-0.00574278,0.338306,1.03579
379,1562,3.30438,-0.00626816,0.338307,1.03541
381,1560,3.30422,-0.00629938,0.338301,1.03538
383,1558,3.304,-0.00632677,0.338293,1.03533
385,1556,3.30386,-0.00634643,0.338288,1.03531
387,1554,3.30392,-0.0063897,0.338287,1.03527
389,1552,3.30359,-0.00635417,0.338291,1.0353
391,1550,3.30374,-0.00643238,0.338277,1.03523
393,1548,3.30377,-0.00686983,0.338233,1.03491
395,1546,3.30382,-0.00691704,0.338277,1.03487
397,1544,3.30378,-0.00684681,0.338281,1.03494
399,1542,3.30348,-0.0069404,0.338283,1.03485
401,1540,3.30392,-0.00740159,0.338281,1.03453
403,1538,3.30315,-0.00751485,0.338699,1.03432
405,1536,3.30349,-0.00738918,0.338282,1.03454
407,1534,3.30345,-0.00747623,0.338285,1.03447
409,1532,3.30512,-0.00482228,0.337247,1.03427
411,1530,3.30466,-0.00533291,0.337661,1.03377
413,1528,3.30465,-0.00537046,0.337663,1.034
415,1526,3.30444,-0.00531533,0.33766,1.03381
417,1524,3.30486,-0.0052489,0.337248,1.03399
419,1522,3.30453,-0.00583061,0.337661,1.03343
421,1520,3.30435,-0.00587506,0.337671,1.03341
423,1518,3.30447,-0.0058528,0.337672,1.03343
425,1516,3.30428,-0.00581743,0.337663,1.03344
427,1514,3.30426,-0.00583199,0.337657,1.03342
429,1512,3.30417,-0.00647812,0.337668,1.03297
431,1510,3.30434,-0.00637209,0.337664,1.03304
433,1508,3.30417,-0.00636723,0.33766,1.03305
435,1506,3.30371,-0.00646928,0.33808,1.03284
437,1504,3.30388,-0.00687502,0.338078,1.03256
439,1502,3.30385,-0.00697,0.338098,1.03253
441,1500,3.30432,-0.00681313,0.337674,1.03277
443,1498,3.30388,-0.00747957,0.338096,1.03215
445,1496,3.30374,-0.00741479,0.338078,1.03218
447,1494,3.30368,-0.00744897,0.33832,1.03216
449,1492,3.30392,-0.00737313,0.337659,1.03232
451,1490,3.30318,-0.00749569,0.338075,1.03211
453,1488,3.30335,-0.00747214,0.338077,1.03212
455,1486,3.30453,-0.00536195,0.337454,1.03139
457,1484,3.30485,-0.00531313,0.337054,1.03021
459,1482,3.30481,-0.00530224,0.337053,1.03162
461,1480,3.30542,-0.00516832,0.337109,1.03186
463,1478,3.30505,-0.00578657,0.33706,1.03128
465,1476,3.30486,-0.00579649,0.337054,1.03125
467,1474,3.30461,-0.00583273,0.337056,1.03123
469,1472,3.30469,-0.00584054,0.337043,1.03119
471,1470,3.30435,-0.00633719,0.337459,1.0307
473,1468,3.30426,-0.00639599,0.337451,1.03063
475,1466,3.30427,-0.00633731,0.337449,1.03069
477,1464,3.30418,-0.00644681,0.337455,1.03061
479,1462,3.30451,-0.00635732,0.337456,1.03071
481,1460,3.3042,-0.00691674,0.337884,1.03044
483,1458,3.30434,-0.00681772,0.337469,1.03039
485,1456,3.30435,-0.00673244,0.337466,1.03046
487,1454,3.30406,-0.00686381,0.337468,1.03035
489,1452,3.30362,-0.00740107,0.337872,1.0298
491,1450,3.30356,-0.00743766,0.337878,1.02978
493,1448,3.30346,-0.00746357,0.337873,1.02977
495,1446,3.30356,-0.00744178,0.337867,1.02978
497,1444,3.30546,-0.00520371,0.336834,1.02926
499,1442,3.30506,-0.0052588,0.336836,1.02922
501,1440,3.30502,-0.00527531,0.33684,1.02921
503,1438,3.30465,-0.00586624,0.337249,1.02865
505,1436,3.30474,-0.00576249,0.337255,1.02875
507,1434,3.30449,-0.00583072,0.337252,1.02867
509,1432,3.30478,-0.00577384,0.336839,1.02885
511,1430,3.30498,-0.00580106,0.336837,1.02882
513,1428,3.30473,-0.00634831,0.33725,1.02831
515,1426,3.30442,-0.00634869,0.337247,1.0283
517,1424,3.30439,-0.00640782,0.337321,1.02826
519,1422,3.30466,-0.00630675,0.336828,1.02845
521,1420,3.304,-0.00687546,0.337729,1.02777
523,1418,3.30413,-0.00687889,0.337244,1.02791
525,1416,3.30435,-0.00687368,0.337242,1.02792
527,1414,3.30406,-0.00690069,0.337246,1.0279
529,1412,3.30402,-0.00687439,0.337234,1.0279
531,1410,3.30361,-0.00749023,0.337658,1.02733
533,1408,3.30423,-0.00743283,0.337206,1.02751
535,1406,3.30367,-0.00748142,0.337652,1.02733
537,1404,3.30356,-0.00745478,0.337656,1.02735
539,1402,3.30357,-0.00749948,0.337233,1.02743
541,1400,3.30556,-0.00475422,0.33621,1.02731
543,1398,3.30509,-0.00532906,0.336616,1.02675
545,1396,3.30509,-0.00533837,0.337084,1.02675
547,1394,3.30508,-0.00524999,0.336613,1.0268
549,1392,3.30522,-0.00586208,0.336558,1.02638
551,1390,3.30504,-0.00584403,0.336621,1.02639
553,1388,3.30477,-0.00577401,0.337088,1.02645
555,1386,3.3044,-0.00588231,0.33662,1.02636
557,1384,3.30507,-0.00581628,0.336206,1.02657
559,1382,3.30441,-0.00645798,0.337025,1.0258
561,1380,3.30462,-0.00645725,0.336624,1.02595
563,1378,3.30467,-0.00648177,0.336623,1.02594
565,1376,3.30461,-0.00621328,0.336608,1.02611
567,1374,3.30451,-0.00697777,0.337042,1.02547
569,1372,3.30429,-0.00693405,0.337035,1.02549
571,1370,3.30449,-0.00690077,0.336624,1.02565
573,1368,3.30403,-0.0069761,0.337041,1.02547
575,1366,3.30417,-0.00747068,0.337049,1.02514
577,1364,3.30412,-0.0074642,0.337037,1.02512
579,1362,3.30396,-0.00750455,0.337036,1.02509
581,1360,3.30387,-0.00744751,0.337038,1.02512
583,1358,3.30558,-0.00528318,0.336008,1.02456
585,1356,3.30498,-0.00523577,0.336663,1.02447
587,1354,3.30544,-0.00527719,0.336024,1.0246
589,1352,3.30534,-0.00522855,0.336012,1.02463
591,1350,3.30545,-0.00576325,0.336013,1.02424
593,1348,3.30496,-0.00584537,0.336425,1.02404
595,1346,3.3051,-0.00577489,0.336011,1.02422
597,1344,3.30476,-0.00636929,0.336339,1.02393
599,1342,3.30499,-0.00640161,0.336429,1.02364
601,1340,3.30474,-0.00635374,0.336431,1.02368
603,1338,3.30458,-0.00640786,0.336425,1.02364
605,1336,3.30432,-0.00638377,0.336415,1.02362
607,1334,3.30487,-0.00638652,0.336229,1.02374
609,1332,3.30393,-0.00693764,0.336825,1.02307
611,1330,3.30468,-0.00697128,0.336404,1.02317
613,1328,3.30453,-0.00699928,0.336331,1.02316
615,1326,3.30438,-0.00698995,0.336422,1.02321
617,1324,3.30411,-0.00755869,0.336833,1.02266
619,1322,3.30401,-0.00755768,0.336827,1.02265
621,1320,3.30416,-0.007546,0.336415,1.0228
623,1318,3.30542,-0.00535558,0.335802,1.02212
625,1316,3.30538,-0.00540926,0.335797,1.02206
627,1314,3.30523,-0.0051926,0.335778,1.02216
629,1312,3.30547,-0.00534181,0.3358,1.0221
631,1310,3.30519,-0.00539681,0.335785,1.02205
633,1308,3.30525,-0.00540192,0.3358,1.02208
635,1306,3.30517,-0.00539841,0.335796,1.02207
637,1304,3.3052,-0.00583741,0.335812,1.0218
639,1302,3.30512,-0.00595694,0.335802,1.02195
641,1300,3.30505,-0.00587824,0.335808,1.02177
643,1298,3.30517,-0.00648306,0.335813,1.02132
645,1296,3.30508,-0.00639907,0.335802,1.02138
647,1294,3.30471,-0.00652573,0.336219,1.02115
649,1292,3.30497,-0.00639007,0.335809,1.02139
651,1290,3.30464,-0.00703569,0.336218,1.02078
653,1288,3.30444,-0.00697829,0.336216,1.0208
655,1286,3.30449,-0.0070335,0.336217,1.0208
657,1284,3.30456,-0.00754218,0.336215,1.02042
659,1282,3.30431,-0.00753902,0.336214,1.02042
661,1280,3.30414,-0.00754351,0.336151,1.0204
663,1278,3.30422,-0.00754771,0.336673,1.0204
665,1276,3.30402,-0.00762032,0.33621,1.02037
667,1274,3.30514,-0.00498204,0.335592,1.01996
669,1272,3.30562,-0.00547565,0.335211,1.01977
671,1270,3.30566,-0.00540791,0.335178,1.01982
673,1268,3.30536,-0.00593348,0.335615,1.01934
675,1266,3.30523,-0.00598215,0.335619,1.01959
677,1264,3.30552,-0.00577639,0.335191,1.01959
679,1262,3.30571,-0.00585382,0.3352,1.01956
681,1260,3.30517,-0.00642079,0.33561,1.019
683,1258,3.3052,-0.00645181,0.335613,1.0191
685,1256,3.30498,-0.00639753,0.335606,1.019
687,1254,3.30495,-0.0064218,0.336074,1.019
689,1252,3.30459,-0.00709153,0.336028,1.01839
691,1250,3.30479,-0.00696263,0.335616,1.0186
693,1248,3.30484,-0.00699436,0.335714,1.01863
695,1246,3.30454,-0.00757267,0.336043,1.01808
697,1244,3.30456,-0.0075362,0.336054,1.01815
699,1242,3.30472,-0.00748344,0.335625,1.01829
701,1240,3.30604,-0.0053163,0.335023,1.0176
703,1238,3.30566,-0.00538917,0.33544,1.01741
705,1236,3.30544,-0.00535877,0.335437,1.01741
707,1234,3.3058,-0.00531641,0.335012,1.01759
709,1232,3.30513,-0.0054523,0.335426,1.01733
711,1230,3.30566,-0.00592531,0.335427,1.01701
713,1228,3.30553,-0.00592238,0.335432,1.01702
715,1226,3.30544,-0.00588038,0.335441,1.01706
717,1224,3.30505,-0.00649608,0.335861,1.01649
719,1222,3.30493,-0.00648519,0.335855,1.01647
721,1220,3.30539,-0.00635759,0.335432,1.01671
723,1218,3.3049,-0.00653692,0.335857,1.01644
725,1216,3.30505,-0.00699917,0.335852,1.0161
727,1214,3.30477,-0.00703641,0.335851,1.01608
729,1212,3.30431,-0.00705249,0.335838,1.01604
731,1210,3.30456,-0.00750198,0.335847,1.01575
733,1208,3.30435,-0.00753679,0.335837,1.0157
735,1206,3.30427,-0.00740195,0.335819,1.01576
737,1204,3.30409,-0.00753176,0.335825,1.01566
739,1202,3.30416,-0.00755105,0.335839,1.01593
741,1200,3.30586,-0.00527809,0.334798,1.01515
743,1198,3.30571,-0.005334,0.334798,1.01509
745,1196,3.30526,-0.00541088,0.335218,1.0149
747,1194,3.30536,-0.00590654,0.335218,1.01454
749,1192,3.30548,-0.00582029,0.334788,1.01473
751,1190,3.30491,-0.00597438,0.335212,1.01451
753,1188,3.30529,-0.00587788,0.334792,1.0147
755,1186,3.30505,-0.00651931,0.335205,1.01411
757,1184,3.30501,-0.00657134,0.335208,1.01408
759,1182,3.30485,-0.00660618,0.335206,1.01402
761,1180,3.30488,-0.00651382,0.335203,1.01411
763,1178,3.30451,-0.00707733,0.33563,1.01357
765,1176,3.30469,-0.00699192,0.335637,1.01365
767,1174,3.30427,-0.0070996,0.335636,1.01357
769,1172,3.30438,-0.00755763,0.335635,1.01324
771,1170,3.30425,-0.00769559,0.335635,1.01314
773,1168,3.30412,-0.00760994,0.335634,1.01319
775,1166,3.30574,-0.00487356,0.334598,1.01302
777,1164,3.30542,-0.00549403,0.335028,1.01244
779,1162,3.30558,-0.0053531,0.334604,1.01269
781,1160,3.30548,-0.00595021,0.335123,1.01214
783,1158,3.30551,-0.00584294,0.335035,1.01223
785,1156,3.305,-0.00587804,0.335026,1.01219
787,1154,3.30536,-0.00593207,0.335026,1.01215
789,1152,3.30456,-0.00650404,0.335446,1.0116
791,1150,3.30495,-0.00643913,0.335022,1.01177
793,1148,3.30428,-0.00657052,0.335448,1.01155
795,1146,3.30495,-0.00704132,0.335021,1.01134
797,1144,3.30426,-0.00709592,0.335435,1.01115
799,1142,3.30463,-0.00705294,0.334683,1.01133
801,1140,3.3046,-0.00712434,0.335016,1.01127
803,1138,3.30431,-0.00756481,0.335438,1.01084
805,1136,3.30432,-0.00762975,0.335446,1.0108
807,1134,3.30593,-0.00482744,0.334399,1.01069
809,1132,3.30541,-0.00546302,0.334847,1.0101
811,1130,3.30567,-0.00541681,0.334423,1.01026
813,1128,3.30579,-0.00538056,0.334415,1.01028
815,1126,3.30511,-0.00596441,0.334912,1.00973
817,1124,3.3053,-0.00600664,0.334831,1.00969
819,1122,3.3046,-0.00599761,0.335255,1.00956
821,1120,3.30499,-0.0064396,0.334831,1.00937
823,1118,3.30456,-0.00660552,0.335261,1.00913
825,1116,3.30447,-0.00657055,0.335256,1.00915
827,1114,3.30432,-0.0070405,0.335251,1.00881
829,1112,3.30374,-0.00725425,0.335697,1.00854
831,1110,3.30428,-0.00706435,0.335266,1.00883
833,1108,3.30391,-0.00766545,0.335696,1.00827
835,1106,3.30372,-0.00762584,0.335682,1.00829
837,1104,3.30506,-0.00496143,0.334653,1.00804
839,1102,3.30529,-0.00543988,0.334647,1.00767
841,1100,3.30516,-0.00541801,0.334646,1.00767
843,1098,3.30511,-0.00545193,0.334647,1.00767
845,1096,3.3048,-0.00601994,0.335074,1.00713
847,1094,3.30527,-0.00587209,0.334652,1.00738
849,1092,3.30478,-0.00599892,0.335079,1.00716
851,1090,3.30477,-0.00649997,0.335067,1.00673
853,1088,3.30471,-0.00638859,0.335067,1.00686
855,1086,3.30457,-0.00650497,0.335068,1.00677
857,1084,3.30449,-0.00706692,0.335068,1.00638
859,1082,3.30416,-0.00713036,0.33507,1.00633
861,1080,3.30409,-0.00710975,0.335062,1.00635
863,1078,3.3037,-0.00771917,0.335495,1.00577
865,1076,3.30506,-0.00496061,0.334464,1.0056
867,1074,3.30519,-0.00539749,0.33447,1.0053
869,1072,3.30536,-0.00534429,0.334469,1.00535
871,1070,3.30523,-0.00539138,0.334475,1.00531
873,1068,3.30486,-0.00602748,0.334903,1.00474
875,1066,3.30482,-0.00591973,0.334893,1.0048
877,1064,3.30467,-0.00590291,0.334881,1.0048
879,1062,3.30401,-0.0065586,0.335309,1.00419
881,1060,3.30451,-0.0066306,0.334884,1.00428
883,1058,3.30434,-0.0065912,0.334884,1.0043
885,1056,3.30374,-0.00722298,0.335301,1.00369
887,1054,3.30414,-0.00713503,0.334872,1.00389
889,1052,3.30408,-0.00715527,0.334878,1.00389
891,1050,3.3037,-0.00777906,0.335309,1.00332
893,1048,3.30362,-0.00770172,0.335307,1.00338
895,1046,3.30511,-0.00489807,0.334277,1.00303
897,1044,3.30467,-0.00557301,0.334703,1.00259
899,1042,3.30453,-0.00556755,0.334703,1.00259
901,1040,3.30486,-0.00601018,0.334276,1.00243
903,1038,3.30425,-0.00609344,0.334942,1.00221
905,1036,3.30416,-0.00613428,0.334698,1.00219
907,1034,3.30432,-0.00666371,0.334694,1.00182
909,1032,3.30411,-0.00666872,0.334701,1.00182
911,1030,3.30419,-0.00664575,0.334706,1.00185
913,1028,3.30386,-0.0071867,0.335143,1.00136
915,1026,3.30367,-0.00720531,0.335137,1.00135
917,1024,3.30348,-0.00776668,0.335561,1.00078
919,1022,3.3035,-0.0077052,0.335136,1.00099
921,1020,3.30333,-0.00780622,0.335378,1.00091
923,1018,3.30506,-0.00546579,0.334101,1.0004
925,1016,3.30451,-0.00554362,0.334528,1.00022
927,1014,3.30412,-0.00612005,0.334953,0.999656
929,1012,3.30424,-0.00602969,0.33453,0.99987
931,1010,3.30434,-0.00591473,0.334521,0.99994
933,1008,3.30377,-0.00613221,0.334962,0.999672
935,1006,3.30398,-0.00659834,0.334963,0.999351
937,1004,3.30345,-0.00724449,0.335479,0.998767
939,1002,3.30356,-0.00719415,0.335385,0.998781
941,1000,3.30334,-0.00723839,0.335385,0.998748
943,998,3.30301,-0.00778844,0.335388,0.998366
945,996,3.30467,-0.0050053,0.334824,0.997905
947,994,3.30424,-0.00559928,0.334774,0.997589
949,992,3.30394,-0.00560403,0.334775,0.997574
951,990,3.30398,-0.00612131,0.334779,0.997233
953,988,3.3039,-0.00609338,0.334313,0.997245
955,986,3.30383,-0.00611905,0.334775,0.997221
957,984,3.30365,-0.00611395,0.334778,0.997221
959,982,3.30372,-0.00665798,0.334776,0.996847
961,980,3.30297,-0.00673264,0.335204,0.996653
963,978,3.3031,-0.00730288,0.335206,0.996253
965,976,3.30284,-0.00778387,0.335203,0.995912
967,974,3.30321,-0.00778632,0.335208,0.995924
969,972,3.30298,-0.00777052,0.3352,0.995902
971,970,3.30456,-0.00493363,0.33417,0.995749
973,968,3.30411,-0.00562303,0.33461,0.995156
975,966,3.30396,-0.0056142,0.334604,0.995151
977,964,3.30347,-0.00626234,0.335037,0.994562
979,962,3.30352,-0.00609308,0.334603,0.995068
981,960,3.30333,-0.00665601,0.33504,0.994292
983,958,3.30301,-0.00663984,0.335026,0.994256
985,956,3.30313,-0.00725514,0.335037,0.99388
987,954,3.3029,-0.00723372,0.335031,0.993882
989,952,3.30279,-0.00725979,0.334983,0.99387
991,950,3.30232,-0.00784072,0.335469,0.993318
993,948,3.30374,-0.00505707,0.33443,0.993093
995,946,3.30391,-0.00558386,0.334425,0.992738
997,944,3.30395,-0.00554123,0.334434,0.992757
999,942,3.30346,-0.00616886,0.33486,0.992181
1001,940,3.30336,-0.00613041,0.334864,0.992228
1003,938,3.30335,-0.00668369,0.334868,0.991845
1005,936,3.30314,-0.00664394,0.33487,0.992128
1007,934,3.30312,-0.00721735,0.334872,0.991479
1009,932,3.30272,-0.00719059,0.335109,0.991483
1011,930,3.30288,-0.00724811,0.334871,0.991443
1013,928,3.30256,-0.00789472,0.335307,0.990858
1015,926,3.30181,-0.00786991,0.335989,0.990747
1017,924,3.3034,-0.00510479,0.334707,0.990502
1019,922,3.30343,-0.00561676,0.334704,0.990146
1021,920,3.30285,-0.00618263,0.335234,0.989613
1023,918,3.30326,-0.00616649,0.334706,0.989779
1025,916,3.30291,-0.00667429,0.334702,0.989429
1027,914,3.30249,-0.0073377,0.335143,0.988817
1029,912,3.3026,-0.0073076,0.335389,0.988366
1031,910,3.30246,-0.00730465,0.335144,0.988845
1033,908,3.30227,-0.00735873,0.335141,0.988803
1035,906,3.30373,-0.00500727,0.334103,0.988267
1037,904,3.30326,-0.00554895,0.334542,0.987739
1039,902,3.30312,-0.00563497,0.334537,0.987693
1041,900,3.30278,-0.00625324,0.334985,0.987129
1043,898,3.30258,-0.00622329,0.334984,0.987067
1045,896,3.30247,-0.00621822,0.334983,0.987147
1047,894,3.3024,-0.00679563,0.334969,0.986738
1049,892,3.30237,-0.00674175,0.334974,0.986786
1051,890,3.30253,-0.00733992,0.334976,0.986359
1053,888,3.3021,-0.00734168,0.334969,0.986361
1055,886,3.30173,-0.0079482,0.335409,0.985791
1057,884,3.30147,-0.00802498,0.335004,0.985748
1059,882,3.30306,-0.00511073,0.334368,0.985589
1061,880,3.30318,-0.00569246,0.334368,0.985185
1063,878,3.3029,-0.00569982,0.334372,0.98519
1065,876,3.30237,-0.00632085,0.334907,0.984633
1067,874,3.30213,-0.00685972,0.335262,0.984137
1069,872,3.30209,-0.00685333,0.335262,0.984145
1071,870,3.30198,-0.00684308,0.335269,0.984176
1073,868,3.30181,-0.00734025,0.335272,0.983829
1075,866,3.30133,-0.00801866,0.335717,0.983223
1077,864,3.30092,-0.0080359,0.335711,0.983217
1079,862,3.30248,-0.00516166,0.334662,0.982992
1081,860,3.30248,-0.00572463,0.334667,0.982602
1083,858,3.30205,-0.00634554,0.335106,0.982032
1085,856,3.3025,-0.00628662,0.334657,0.982211
1087,854,3.30212,-0.00632428,0.334752,0.982184
1089,852,3.302,-0.0068604,0.334659,0.981807
1091,850,3.30187,-0.00685362,0.334655,0.981811
1093,848,3.30138,-0.00748432,0.335112,0.981269
1095,846,3.3013,-0.00748217,0.335118,0.981303
1097,844,3.30125,-0.00792625,0.335114,0.980986
1099,842,3.3025,-0.00568323,0.334513,0.980209
1101,840,3.30229,-0.00572661,0.334516,0.980187
1103,838,3.30211,-0.0057759,0.334508,0.980144
1105,836,3.30185,-0.00635229,0.334518,0.979735
1107,834,3.30184,-0.00629363,0.334508,0.979767
1109,832,3.30183,-0.00684375,0.334507,0.979644
1111,830,3.30129,-0.00695781,0.334916,0.979186
1113,828,3.30113,-0.00754789,0.334956,0.97879
1115,826,3.30108,-0.00755175,0.33496,0.978791
1117,824,3.30243,-0.00517515,0.334374,0.97839
1119,822,3.3024,-0.00567722,0.334375,0.9778
1121,820,3.30214,-0.00574231,0.334378,0.977744
1123,818,3.30166,-0.00640142,0.334817,0.977151
1125,816,3.30145,-0.0063737,0.334816,0.97717
1127,814,3.30122,-0.00690725,0.334814,0.976784
1129,812,3.30135,-0.00688361,0.334805,0.976802
1131,810,3.30058,-0.00754346,0.335258,0.976223
1133,808,3.30047,-0.00762916,0.335278,0.976194
1135,806,3.3005,-0.00813026,0.335277,0.975864
1137,804,3.30185,-0.00579212,0.334697,0.975156
1139,802,3.30171,-0.00578813,0.334684,0.975158
1141,800,3.30178,-0.00635997,0.3347,0.974796
1143,798,3.3011,-0.00633084,0.335137,0.974647
1145,796,3.30113,-0.00689896,0.335149,0.974291
1147,794,3.30102,-0.00694791,0.335138,0.974225
1149,792,3.30089,-0.00745953,0.335139,0.973875
1151,790,3.30082,-0.0075272,0.335137,0.973837
1153,788,3.3002,-0.0081311,0.335838,0.973282
1155,786,3.30167,-0.00520209,0.334548,0.973093
1157,784,3.30153,-0.00568789,0.33454,0.97275
1159,782,3.30077,-0.00643441,0.335448,0.971979
1161,780,3.30118,-0.00634884,0.335008,0.972199
1163,778,3.30131,-0.00683278,0.335001,0.971854
1165,776,3.30072,-0.00703893,0.335462,0.971615
1167,774,3.30036,-0.00754653,0.335455,0.971245
1169,772,3.30011,-0.00755544,0.33546,0.971233
1171,770,3.29965,-0.00822889,0.335918,0.970666
1173,768,3.30136,-0.00574405,0.334872,0.970156
1175,766,3.3011,-0.00576945,0.334868,0.970126
1177,764,3.30105,-0.00584222,0.334862,0.970068
1179,762,3.30063,-0.00634795,0.335554,0.969567
1181,760,3.30064,-0.0069965,0.334862,0.969134
1183,758,3.30044,-0.00696176,0.335321,0.969167
1185,756,3.30027,-0.00747771,0.33539,0.968849
1187,754,3.3,-0.00771348,0.335324,0.968689
1189,752,3.30111,-0.00518784,0.334736,0.968076
1191,750,3.30101,-0.00573036,0.334735,0.967703
1193,748,3.29964,-0.00874168,0.335415,0.968126
1195,746,3.30106,-0.00334435,0.334576,0.966978
1197,744,3.30023,-0.00699359,0.335282,0.966591
1199,742,3.29982,-0.00699402,0.33565,0.966587
1201,740,3.29977,-0.00753106,0.335638,0.966199
1203,738,3.29971,-0.00761005,0.335644,0.966142
1205,736,3.29963,-0.00785484,0.335653,0.96601
1207,734,3.30053,-0.00523785,0.335063,0.96544
1209,732,3.301,-0.00283966,0.334945,0.964884
1211,730,3.30019,-0.00647804,0.335064,0.964612
1213,728,3.30006,-0.00632513,0.335,0.964641
1215,726,3.29958,-0.00701357,0.335501,0.964048
1217,724,3.2994,-0.00706401,0.335496,0.964015
1219,722,3.29929,-0.00764174,0.335492,0.963604
1221,720,3.29909,-0.00764316,0.335493,0.963611
1223,718,3.29891,-0.00828262,0.335495,0.963183
1225,716,3.3001,-0.00529385,0.334914,0.963129
1227,714,3.3001,-0.00583402,0.334906,0.962493
1229,712,3.2996,-0.00654568,0.335369,0.961877
1231,710,3.2995,-0.00643551,0.33537,0.961959
1233,708,3.29932,-0.00706556,0.335383,0.961566
1235,706,3.29886,-0.00773589,0.335846,0.960987
1237,704,3.299,-0.00762727,0.335767,0.961142
1239,702,3.29835,-0.00830639,0.335829,0.960553
1241,700,3.30014,-0.00524856,0.334776,0.960401
1243,698,3.29939,-0.00591337,0.334801,0.959817
1245,696,3.29969,-0.00592208,0.33527,0.959937
1247,694,3.29922,-0.00646511,0.335239,0.959444
1249,692,3.29878,-0.0071847,0.335704,0.958833
1251,690,3.29863,-0.00772632,0.335711,0.958473
1253,688,3.29786,-0.00777568,0.336167,0.958304
1255,686,3.29806,-0.00841167,0.336185,0.957905
1257,684,3.29956,-0.00533879,0.335132,0.957752
1259,682,3.29969,-0.00579756,0.335147,0.957473
1261,680,3.29916,-0.00647547,0.335607,0.956862
1263,678,3.29882,-0.00650677,0.335592,0.956832
1265,676,3.29857,-0.00710862,0.335592,0.956412
1267,674,3.29825,-0.00710577,0.335592,0.956428
1269,672,3.29702,-0.008409,0.336527,0.95527
1271,670,3.29746,-0.00834959,0.336067,0.955458
1273,668,3.29929,-0.00524238,0.335004,0.955291
1275,666,3.29855,-0.00655961,0.335481,0.954311
1277,664,3.29824,-0.00652089,0.335478,0.954343
1279,662,3.29783,-0.00713644,0.335468,0.953895
1281,660,3.29741,-0.00784287,0.336034,0.953304
1283,658,3.29723,-0.00834522,0.335931,0.952937
1285,656,3.29724,-0.00836282,0.335933,0.952929
1287,654,3.29859,-0.00596279,0.335359,0.952191
1289,652,3.29851,-0.00600333,0.335347,0.952131
1291,650,3.29842,-0.00594868,0.335351,0.952155
1293,648,3.29775,-0.00669826,0.33582,0.951538
1295,646,3.29765,-0.00721914,0.335818,0.95119
1297,644,3.2974,-0.00720593,0.335818,0.951203
1299,642,3.29685,-0.00791009,0.336286,0.950595
1301,640,3.29644,-0.00852325,0.336284,0.950176
1303,638,3.29808,-0.0055035,0.335237,0.949948
1305,636,3.29823,-0.00598809,0.335239,0.949638
1307,634,3.29797,-0.00602567,0.335238,0.949598
1309,632,3.29735,-0.0067626,0.335704,0.948984
1311,630,3.29731,-0.007231,0.335704,0.948666
1313,628,3.29666,-0.00794554,0.336179,0.948069
1315,626,3.29642,-0.00793172,0.336187,0.948101
1317,624,3.296,-0.00855586,0.336914,0.947557
1319,622,3.29779,-0.00606573,0.335613,0.946969
1321,620,3.29813,-0.00601792,0.33514,0.947148
1323,618,3.29756,-0.00664316,0.335612,0.946593
1325,616,3.2969,-0.00738929,0.33609,0.945968
1327,614,3.2966,-0.00736204,0.336097,0.946008
1329,612,3.29604,-0.00791028,0.336569,0.945501
1331,610,3.29754,-0.00542647,0.335522,0.944915
1333,608,3.29748,-0.00446945,0.335041,0.944377
1335,606,3.29661,-0.0113116,0.335505,0.943863
1337,604,3.29675,-0.00515943,0.335517,0.943807
1339,602,3.29645,-0.0119859,0.335507,0.943434
1341,600,3.29587,-0.0126576,0.335994,0.942866
1343,598,3.29665,-0.00942174,0.334618,0.942803
1345,596,3.29755,-0.00707838,0.333987,0.941988
1347,594,3.29754,-0.00760178,0.333992,0.941643
1349,592,3.29671,-0.00828084,0.334461,0.941058
1351,590,3.29683,-0.00729278,0.333983,0.940555
1353,588,3.29601,-0.00797483,0.33447,0.939994
1355,586,3.29624,-0.00788966,0.333988,0.940166
1357,584,3.29585,-0.00690564,0.333983,0.939532
1359,582,3.29794,-0.00384837,0.33247,0.939466
1361,580,3.29711,-0.00976182,0.33294,0.93827
1363,578,3.29662,-0.01141,0.333413,0.938354
1365,576,3.29687,-0.00882651,0.332466,0.937742
1367,574,3.29605,-0.0111135,0.333411,0.937263
1369,572,3.29599,-0.0101102,0.332936,0.93675
1371,570,3.29764,-0.0069926,0.33195,0.936566
1373,568,3.29741,-0.00756824,0.331887,0.93619
1375,566,3.29679,-0.0082609,0.332362,0.93562
1377,564,3.29637,-0.00739234,0.332368,0.934895
1379,562,3.29669,-0.00716753,0.33188,0.935134
1381,560,3.29675,-0.00571621,0.331388,0.934897
1383,558,3.29657,-0.00643943,0.331396,0.934432
1385,556,3.29589,-0.00701391,0.331869,0.933944
1387,554,3.2972,-0.00459587,0.331304,0.933169
1389,552,3.29694,-0.0108358,0.33131,0.933495
1391,550,3.29671,-0.0115315,0.331305,0.932788
1393,548,3.29662,-0.0120701,0.331306,0.932407
1395,546,3.29654,-0.0110684,0.330827,0.931902
1397,544,3.29579,-0.0111189,0.331297,0.931726
1399,542,3.29564,-0.0118152,0.331285,0.931248
1401,540,3.2971,-0.00778966,0.330248,0.930372
1403,538,3.2972,-0.00678624,0.329786,0.929915
1405,536,3.29703,-0.00673647,0.329797,0.929962
1407,534,3.29718,-0.00573024,0.329325,0.928146
1409,532,3.29669,-0.00636849,0.329792,0.9289
1411,530,3.29608,-0.0132987,0.329797,0.928516
1413,528,3.2974,-0.0107971,0.329221,0.927793
1415,526,3.29723,-0.00927871,0.328759,0.927641
1417,524,3.29725,-0.00983624,0.328751,0.927258
1419,522,3.29638,-0.0105932,0.32922,0.926646
1421,520,3.29607,-0.0127748,0.329694,0.926376
1423,518,3.29618,-0.00953737,0.328747,0.92609
1425,516,3.29717,-0.01021,0.329124,0.925712
1427,514,3.29737,-0.00766044,0.328676,0.925046
1429,512,3.29686,-0.00836333,0.328665,0.924481
1431,510,3.29705,-0.00729006,0.32818,0.924
1433,508,3.2968,-0.0073472,0.328188,0.923984
1435,506,3.29603,-0.0080093,0.328666,0.923441
1437,504,3.29589,-0.00863637,0.328668,0.923034
1439,502,3.29715,-0.00615702,0.32809,0.922277
1441,500,3.2972,-0.00606676,0.32761,0.922698
1443,498,3.29666,-0.0121117,0.32762,0.921366
1445,496,3.29688,-0.0104488,0.326679,0.921429
1447,494,3.29595,-0.0127085,0.327605,0.92097
1449,492,3.29581,-0.0101458,0.327146,0.92019
1451,490,3.29761,-0.00924567,0.326576,0.919737
1453,488,3.29723,-0.00824799,0.326585,0.919096
1455,486,3.29661,-0.00988371,0.327062,0.919211
1457,484,3.2964,-0.00955555,0.327059,0.918124
1459,482,3.29669,-0.00633575,0.326118,0.917885
1461,480,3.29633,-0.00864263,0.326587,0.917566
1463,478,3.29768,-0.00450175,0.325546,0.91671
1465,476,3.29763,-0.00448633,0.325064,0.916819
1467,474,3.29707,-0.00507704,0.325537,0.916324
1469,472,3.29642,-0.00588352,0.326017,0.915681
1471,470,3.29599,-0.00642283,0.325999,0.915307
1473,468,3.29595,-0.0117423,0.325545,0.914851
1475,466,3.29749,-0.0102012,0.324968,0.914784
1477,464,3.29697,-0.00988083,0.324965,0.913696
1479,462,3.29675,-0.00990341,0.324971,0.913682
1481,460,3.29627,-0.00886305,0.325457,0.913061
1483,458,3.29647,-0.00800809,0.324504,0.912452
1485,456,3.29559,-0.0102737,0.325445,0.912038
1487,454,3.29774,-0.00537058,0.323466,0.911948
1489,452,3.29717,-0.00612027,0.323932,0.911324
1491,450,3.29717,-0.00513869,0.323466,0.910785
1493,448,3.29642,-0.00572318,0.323922,0.910256
1495,446,3.29578,-0.0127537,0.323922,0.909852
1497,444,3.29581,-0.0118142,0.323922,0.90916
1499,442,3.2975,-0.01028,0.322894,0.909236
1501,440,3.29689,-0.00929134,0.322883,0.908819
1503,438,3.29635,-0.0099255,0.323362,0.90805
1505,436,3.29648,-0.00740045,0.322422,0.907328
1507,434,3.29619,-0.00969371,0.322887,0.907017
1509,432,3.29571,-0.00871266,0.322872,0.906323
1511,430,3.29747,-0.00460069,0.321628,0.905587
1513,428,3.29685,-0.00523388,0.321766,0.905074
1515,426,3.29665,-0.00579079,0.321854,0.904704
1517,424,3.2962,-0.0122104,0.321849,0.904723
1519,422,3.29556,-0.0129375,0.322319,0.904121
1521,420,3.29531,-0.013495,0.322314,0.903762
1523,418,3.29694,-0.00938699,0.32129,0.902888
1525,416,3.29693,-0.0100837,0.321284,0.902448
1527,414,3.29643,-0.0106103,0.321329,0.902105
1529,412,3.29599,-0.00967702,0.321292,0.901419
1531,410,3.29566,-0.00962653,0.321288,0.901437
1533,408,3.29725,-0.00710593,0.320266,0.900843
1535,406,3.29679,-0.00772859,0.320725,0.900312
1537,404,3.29619,-0.00684299,0.320723,0.89957
1539,402,3.2967,-0.0121187,0.319791,0.899284
1541,400,3.29607,-0.00648686,0.320345,0.898636
1543,398,3.29558,-0.0134868,0.320254,0.898291
1545,396,3.29683,-0.0109971,0.319698,0.897544
1547,394,3.29666,-0.00998265,0.319224,0.896993
1549,392,3.29604,-0.0106937,0.319695,0.896433
1551,390,3.29593,-0.00969782,0.319228,0.895907
1553,388,3.29547,-0.00867821,0.319223,0.895248
1555,386,3.29763,-0.00548869,0.317736,0.895215
1557,384,3.29681,-0.00774765,0.318657,0.894797
1559,382,3.2968,-0.00674721,0.318192,0.894266
1561,380,3.29636,-0.00580606,0.318198,0.893567
1563,378,3.29558,-0.00649895,0.318664,0.892999
1565,376,3.29521,-0.0136414,0.31867,0.892592
1567,374,3.29666,-0.00460356,0.318096,0.891845
1569,372,3.29647,-0.0100478,0.31763,0.891335
1571,370,3.29618,-0.0106528,0.317864,0.890932
1573,368,3.2959,-0.00906395,0.317164,0.890785
1575,366,3.29499,-0.0113723,0.318092,0.890372
1577,364,3.29707,-0.00719503,0.316609,0.889653
1579,362,3.2969,-0.00614293,0.316143,0.889135
1581,360,3.29711,-0.00510621,0.315686,0.888624
1583,358,3.2963,-0.00580614,0.316142,0.888052
1585,356,3.29606,-0.00640595,0.31614,0.887677
1587,354,3.29717,-0.00389053,0.31559,0.886912
1589,352,3.29701,-0.00928376,0.315116,0.886436
1591,350,3.29611,-0.0117025,0.316039,0.886225
1593,348,3.29636,-0.00900853,0.315112,0.885318
1595,346,3.29549,-0.0114088,0.316043,0.88486
1597,344,3.29537,-0.0104465,0.315586,0.8843
1599,342,3.29671,-0.00778673,0.315024,0.882128
1601,340,3.29695,-0.00520939,0.314096,0.882903
1603,338,3.29595,-0.00748866,0.315025,0.882536
1605,336,3.29568,-0.0129018,0.314565,0.882071
1607,334,3.29765,-0.00385516,0.313547,0.881457
1609,332,3.29675,-0.0110218,0.31401,0.880938
1611,330,3.29693,-0.00837104,0.313078,0.880485
1613,328,3.29594,-0.0107566,0.314013,0.879803
1615,326,3.29581,-0.0112937,0.313999,0.879443
1617,324,3.29473,-0.0136908,0.314935,0.879007
1619,322,3.29682,-0.00941291,0.313452,0.878299
1621,320,3.29647,-0.00943361,0.313445,0.878284
1623,318,3.29584,-0.00751413,0.312978,0.876975
1625,316,3.29556,-0.00646132,0.312513,0.876479
1627,314,3.29728,-0.00384868,0.311497,0.875918
1629,312,3.29665,-0.00451767,0.311964,0.875367
1631,310,3.29657,-0.00994632,0.311498,0.87491
1633,308,3.29555,-0.0123492,0.312421,0.874439
1635,306,3.29544,-0.0112751,0.311959,0.873923
1637,304,3.29515,-0.0103764,0.311958,0.873196
1639,302,3.29664,-0.0094144,0.311398,0.872769
1641,300,3.29605,-0.0100749,0.312098,0.872221
1643,298,3.29597,-0.00902493,0.311397,0.87169
1645,296,3.29546,-0.00817884,0.311398,0.870921
1647,294,3.29548,-0.00703184,0.310928,0.870437
1649,292,3.29669,-0.00452857,0.310385,0.869674
1651,290,3.29598,-0.0117749,0.310379,0.869268
1653,288,3.29608,-0.00521456,0.310375,0.869259
1655,286,3.29555,-0.00644487,0.310845,0.868373
1657,284,3.29511,-0.0103248,0.30991,0.867666
1659,282,3.29602,-0.00953737,0.30978,0.867045
1661,280,3.2961,-0.00841584,0.309365,0.866545
1663,278,3.29556,-0.009076,0.309825,0.866021
1665,276,3.2954,-0.00808912,0.309359,0.865437
1667,274,3.29529,-0.0071138,0.3089,0.864868
1669,272,3.29663,-0.00452673,0.308343,0.864132
1671,270,3.29575,-0.00530522,0.308818,0.863541
1673,268,3.29557,-0.00583702,0.30889,0.863191
1675,266,3.29493,-0.00658996,0.309253,0.862617
1677,264,3.29666,-0.00881773,0.3078,0.861949
1679,262,3.29651,-0.00940588,0.307798,0.861593
1681,260,3.29559,-0.0101386,0.308259,0.861033
1683,258,3.29506,-0.0108037,0.308965,0.860515
1685,256,3.29488,-0.00974101,0.308257,0.859966
1687,254,3.29652,-0.00716669,0.307252,0.859357
1689,252,3.29601,-0.00619527,0.307242,0.858642
1691,250,3.29577,-0.00681973,0.307247,0.858238
1693,248,3.29519,-0.00590798,0.307249,0.857513
1695,246,3.29502,-0.00648723,0.307236,0.857139
1697,244,3.29584,-0.00396894,0.306694,0.856367
1699,242,3.29509,-0.0102461,0.306693,0.855288
1701,240,3.29521,-0.0102346,0.306209,0.855414
1703,238,3.29485,-0.0114864,0.306692,0.854541
1705,236,3.29434,-0.0105555,0.306706,0.853832
1707,234,3.29562,-0.00787356,0.306156,0.853147
1709,232,3.29555,-0.00684213,0.305695,0.852601
1711,230,3.29521,-0.00750334,0.305693,0.852195
1713,228,3.2948,-0.00649092,0.305725,0.851504
1715,226,3.29423,-0.0137958,0.305685,0.851097
1717,224,3.29551,-0.0112129,0.305138,0.850367
1719,222,3.29537,-0.00521442,0.305136,0.849938
1721,220,3.29426,-0.0126041,0.305599,0.849395
1723,218,3.29433,-0.0115359,0.305136,0.848869
1725,216,3.29582,-0.00888523,0.304128,0.848284
1727,214,3.29525,-0.00856258,0.30413,0.847181
1729,212,3.29488,-0.00762125,0.304139,0.84647
1731,210,3.29458,-0.00650341,0.303675,0.845951
1733,208,3.29609,-0.00381526,0.302672,0.845391
1735,206,3.29501,-0.0118612,0.303611,0.844464
1737,204,3.29407,-0.0109083,0.303087,0.843723
1739,202,3.2938,-0.0115705,0.303123,0.843326
1741,200,3.29509,-0.00889356,0.302113,0.842733
1743,198,3.29546,-0.00609961,0.301193,0.842049
1745,196,3.29451,-0.00686083,0.301646,0.841446
1747,194,3.29444,-0.00580845,0.301184,0.840885
1749,192,3.29372,-0.0139085,0.30167,0.839931
1751,190,3.29515,-0.00453848,0.3011,0.839215
1753,188,3.29481,-0.0112187,0.301096,0.839252
1755,186,3.29462,-0.0052567,0.301558,0.838663
1757,184,3.29424,-0.00592187,0.301556,0.838253
1759,182,3.29365,-0.0132711,0.301555,0.837898
1761,180,3.2948,-0.00967346,0.301015,0.836442
1763,178,3.29465,-0.0102758,0.301018,0.836088
1765,176,3.29399,-0.0119948,0.301475,0.836237
1767,174,3.29361,-0.00998666,0.301012,0.83493
1769,172,3.29351,-0.00888515,0.30055,0.8344
1771,170,3.29488,-0.00630396,0.300012,0.833651
1773,168,3.29397,-0.00704976,0.300951,0.833077
1775,166,3.29365,-0.00762916,0.300471,0.83273
1777,164,3.29337,-0.00832584,0.300471,0.832323
1779,162,3.29477,-0.0039547,0.299471,0.831436
1781,160,3.29457,-0.00462376,0.299461,0.831015
1783,158,3.29342,-0.012154,0.299924,0.830478
1785,156,3.29322,-0.0110837,0.299467,0.829934
1787,154,3.29274,-0.010735,0.299471,0.828836
1789,152,3.2943,-0.00800717,0.298475,0.828271
1791,150,3.29405,-0.00705457,0.298471,0.827515
1793,148,3.29353,-0.007642,0.298466,0.827173
1795,146,3.29283,-0.00667288,0.298469,0.826432
1797,144,3.29448,-0.00396316,0.297497,0.825691
1799,142,3.29378,-0.0047146,0.29793,0.825291
1801,140,3.2932,-0.0127159,0.29793,0.824601
1803,138,3.29279,-0.0117987,0.297929,0.823837
1805,136,3.29432,-0.00905044,0.296933,0.823534
1807,134,3.29354,-0.0097894,0.297393,0.822584
1809,132,3.29343,-0.00872932,0.296933,0.822166
1811,130,3.29279,-0.00834893,0.296934,0.821076
1813,128,3.29192,-0.0107752,0.297858,0.820734
1815,126,3.29393,-0.0046553,0.295944,0.819788
1817,124,3.29364,-0.00525068,0.295941,0.819366
1819,122,3.29278,-0.00596602,0.296397,0.818884
1821,120,3.29202,-0.0135814,0.296398,0.818444
1823,118,3.29376,-0.00903033,0.294946,0.81774
1825,116,3.29296,-0.00869667,0.294941,0.816612
1827,114,3.29302,-0.00766861,0.294481,0.816035
1829,112,3.29184,-0.0101245,0.295397,0.815667
1831,110,3.29392,-0.00390558,0.29349,0.814738
1833,108,3.29279,-0.0121478,0.293947,0.813815
1835,106,3.29203,-0.0111729,0.293945,0.813077
1837,104,3.29183,-0.0117954,0.293943,0.812715
1839,102,3.29327,-0.0107408,0.293413,0.812367
1841,100,3.29285,-0.00801464,0.292954,0.811448
1843,98,3.29268,-0.00865969,0.292953,0.811075
1845,96,3.29195,-0.00776345,0.292952,0.81028
1847,94,3.29166,-0.00896691,0.293029,0.809572
1849,92,3.29289,-0.00634592,0.29242,0.808809
1851,90,3.2927,-0.00526213,0.291963,0.808252
1853,88,3.29222,-0.0128628,0.291961,0.807845
1855,86,3.29153,-0.00674266,0.292416,0.807273
1857,84,3.29282,-0.0107605,0.29143,0.806787
1859,82,3.29224,-0.00982204,0.29143,0.806015
1861,80,3.29179,-0.00943515,0.291429,0.804917
1863,78,3.29176,-0.00840159,0.290972,0.804327
1865,76,3.29044,-0.0109116,0.291885,0.803954
1867,74,3.2926,-0.0046676,0.290065,0.803008
1869,72,3.29204,-0.0121934,0.289985,0.802659
1871,70,3.29159,-0.00612815,0.29044,0.801811
1873,68,3.2909,-0.0136252,0.29044,0.801729
1875,66,3.29198,-0.0109217,0.289914,0.801012
1877,64,3.29179,-0.00982515,0.289457,0.800438
1879,62,3.29195,-0.00939537,0.289001,0.799496
1881,60,3.29083,-0.0102427,0.289454,0.798889
1883,58,3.29269,-0.00567766,0.288019,0.798159
1885,56,3.29167,-0.00642509,0.288485,0.797611
1887,54,3.29131,-0.0122102,0.288017,0.797088
1889,52,3.29074,-0.011938,0.288018,0.79592
1891,50,3.29017,-0.0125879,0.288018,0.795555
1893,48,3.29215,-0.00805137,0.286589,0.794825
1895,46,3.29136,-0.00700502,0.286587,0.794092
1897,44,3.29096,-0.00771191,0.286586,0.793699
1899,42,3.29089,-0.00662946,0.286137,0.793129
1901,40,3.29152,-0.00473301,0.286061,0.791815
1903,38,3.29079,-0.0122455,0.286061,0.79151
1905,36,3.29037,-0.0129508,0.28606,0.791103
1907,34,3.29009,-0.0118633,0.285606,0.790512
1909,32,3.29171,-0.00907952,0.284633,0.789975
1911,30,3.29064,-0.00987215,0.28508,0.789397
1913,28,3.29026,-0.00774925,0.284629,0.788084
1915,26,3.28982,-0.00849115,0.284631,0.787446
1917,24,3.2913,-0.00404688,0.283889,0.786768
1919,22,3.29148,-0.00455785,0.283221,0.786612
1921,20,3.29025,-0.0123448,0.283678,0.786046
1923,18,3.28961,-0.0119245,0.283679,0.784971
1925,16,3.28942,-0.0108693,0.283231,0.784365
1927,14,3.291,-0.00809607,0.282264,0.783818
1929,12,3.29001,-0.00887228,0.282928,0.783262
1931,10,3.28971,-0.00779589,0.282259,0.782658
1933,8,3.28946,-0.00668267,0.281812,0.782091
1935,6,3.29034,-0.0109337,0.281287,0.781382
1937,4,3.29003,-0.0046979,0.281286,0.780958
1938,3,3.28959,-0.0122525,0.281283,0.780624