File: hust_correlation_analysis/matrices/HUST_1-6_cycle_feature_matrix.csv
cycle_number,rul,voltage,current,capacity,charge_capacity
1,1145,3.34606,-0.00131494,0.317888,1.06693
3,1143,3.3248,-0.00572571,0.334235,1.05509
5,1141,3.32428,-0.00512456,0.335192,1.05271
7,1139,3.32392,-0.00658649,0.33558,1.05173
9,1137,3.32518,-0.00490844,0.334925,1.05044
11,1135,3.32436,-0.00612392,0.335731,1.04928
13,1133,3.32419,-0.00662433,0.335813,1.04891
15,1131,3.32391,-0.00710267,0.335729,1.04857
17,1129,3.32453,-0.00510621,0.335487,1.04763
19,1127,3.3244,-0.00604732,0.335482,1.04695
21,1125,3.32424,-0.00666952,0.335887,1.04637
23,1123,3.32383,-0.00715622,0.335976,1.04601
25,1121,3.3247,-0.00513046,0.335235,1.0452
27,1119,3.32447,-0.00565552,0.335216,1.04479
29,1117,3.32452,-0.00615726,0.335215,1.04442
31,1115,3.32443,-0.0067277,0.335926,1.04401
33,1113,3.32388,-0.0072661,0.335619,1.0435
35,1111,3.3235,-0.00733557,0.335613,1.04342
37,1109,3.32516,-0.00512156,0.334562,1.04292
39,1107,3.32471,-0.005645,0.334965,1.04239
41,1105,3.324595,-0.00631337,0.334967,1.04193
43,1103,3.32403,-0.00681769,0.335373,1.04141
45,1101,3.32379,-0.00739616,0.335784,1.04087
47,1099,3.32368,-0.00739147,0.335375,1.04101
49,1097,3.32508,-0.0054883,0.334731,1.04015
51,1095,3.32478,-0.0057341,0.334727,1.03997
53,1093,3.32436,-0.00633928,0.335134,1.03939
55,1091,3.32384,-0.00688396,0.335544,1.03884
57,1089,3.32393,-0.0068849,0.335133,1.039
59,1087,3.32393,-0.00740457,0.335223,1.03862
61,1085,3.32312,-0.00805789,0.335956,1.03789
63,1083,3.32529,-0.00524708,0.334077,1.03807
65,1081,3.32418,-0.00573171,0.334895,1.03744
67,1079,3.32425,-0.00639024,0.334901,1.03726
69,1077,3.32416,-0.00685949,0.334906,1.03667
71,1075,3.32396,-0.00742746,0.335313,1.03612
73,1073,3.32408,-0.00739545,0.3349,1.03628
75,1071,3.32356,-0.00794272,0.33531,1.03574
77,1069,3.32326,-0.00798743,0.335311,1.03573
79,1067,3.3245,-0.00589332,0.334664,1.03496
81,1065,3.32444,-0.00638011,0.334662,1.03461
83,1063,3.32426,-0.00642334,0.334665,1.03459
85,1061,3.32439,-0.0068743,0.334668,1.03428
87,1059,3.32403,-0.00741841,0.335082,1.03377
89,1057,3.32413,-0.00739074,0.334672,1.03394
91,1055,3.32316,-0.0080288,0.3355,1.0332
93,1053,3.32503,-0.00522206,0.334026,1.03322
95,1051,3.32505,-0.00582784,0.334119,1.0328
97,1049,3.32473,-0.00581444,0.334435,1.03251
99,1047,3.3245,-0.00635229,0.334435,1.03227
101,1045,3.32455,-0.00687443,0.334436,1.03192
103,1043,3.32385,-0.00691474,0.334853,1.03173
105,1041,3.32359,-0.00698143,0.33485,1.03168
107,1039,3.32381,-0.00746317,0.334852,1.03136
109,1037,3.32342,-0.00801102,0.335269,1.03084
111,1035,3.32487,-0.0053137,0.334213,1.03065
113,1033,3.32484,-0.00578756,0.334217,1.03033
115,1031,3.32434,-0.00586125,0.334627,1.03011
117,1029,3.32407,-0.00648059,0.334701,1.02966
119,1027,3.3241,-0.00642189,0.33462,1.02968
121,1025,3.3238,-0.00694574,0.335034,1.02918
123,1023,3.3237,-0.00697108,0.335032,1.02916
125,1021,3.32356,-0.00749037,0.33503,1.02879
127,1019,3.32333,-0.00746708,0.335033,1.02881
129,1017,3.32284,-0.00808302,0.335458,1.02826
131,1015,3.32449,-0.00580038,0.334401,1.02777
133,1013,3.32441,-0.00579498,0.335126,1.02778
135,1011,3.32449,-0.00581909,0.334399,1.02774
137,1009,3.32433,-0.00632985,0.334401,1.02739
139,1007,3.32383,-0.00637632,0.334814,1.02721
141,1005,3.32336,-0.00696207,0.335232,1.02664
143,1003,3.32318,-0.0069734,0.335233,1.02665
145,1001,3.32309,-0.00751284,0.335232,1.02627
147,999,3.32317,-0.00749839,0.335231,1.02629
149,997,3.32273,-0.00803634,0.335751,1.02579
151,995,3.32424,-0.00535726,0.334608,1.02557
153,993,3.32393,-0.00584205,0.335033,1.02511
155,991,3.32361,-0.00584553,0.335043,1.02513
157,989,3.32347,-0.00639406,0.335017,1.02467
159,987,3.32364,-0.00635815,0.335023,1.02475
161,985,3.32322,-0.00692318,0.335443,1.02446
163,983,3.32325,-0.00691316,0.335016,1.02432
165,981,3.32303,-0.00752572,0.335438,1.02375
167,979,3.32276,-0.00753908,0.335439,1.02374
169,977,3.32205,-0.00758959,0.335853,1.02354
171,975,3.32209,-0.00813237,0.335853,1.02344
173,973,3.32386,-0.00533501,0.334799,1.02302
175,971,3.3237,-0.00584492,0.33479,1.02266
177,969,3.32359,-0.00592104,0.334783,1.02256
179,967,3.32354,-0.00641285,0.334789,1.02226
181,965,3.32245,-0.00657011,0.335637,1.02185
183,963,3.32294,-0.00701301,0.335216,1.0217
185,961,3.32326,-0.00688107,0.335515,1.02194
187,959,3.32257,-0.0075895,0.33564,1.02116
189,957,3.32274,-0.00755628,0.335219,1.02134
191,955,3.32227,-0.00763077,0.335647,1.02116
193,953,3.32161,-0.00823248,0.336063,1.02056
195,951,3.32353,-0.00536955,0.334588,1.02061
197,949,3.32317,-0.00593252,0.335012,1.0201
199,947,3.32331,-0.00593863,0.335003,1.02007
201,945,3.32326,-0.00642796,0.335,1.01972
203,943,3.32301,-0.00647768,0.335004,1.01968
205,941,3.3229,-0.00647707,0.334999,1.01965
207,939,3.32197,-0.00714924,0.335839,1.01888
209,937,3.32214,-0.0071148,0.335412,1.01906
211,935,3.32206,-0.0071256,0.33541,1.01904
213,933,3.3219,-0.0077575,0.335838,1.01846
215,931,3.32159,-0.00795684,0.335834,1.0183
217,929,3.32194,-0.00748657,0.335914,1.01861
219,927,3.32022,-0.00802097,0.336688,1.01795
221,925,3.31989,-0.00849221,0.336684,1.01764
223,923,3.32243,-0.00606615,0.335189,1.01734
225,921,3.32256,-0.00613036,0.335191,1.01732
227,919,3.3225,-0.00659103,0.335192,1.01699
229,917,3.32218,-0.00658403,0.335194,1.017
231,915,3.32179,-0.00726713,0.335619,1.01638
233,913,3.32154,-0.0072212,0.335616,1.01641
235,911,3.3216,-0.00777438,0.335615,1.01604
237,909,3.32091,-0.00790925,0.336052,1.01582
239,907,3.32091,-0.0083775,0.336058,1.01552
241,905,3.32254,-0.00601766,0.334992,1.01503
243,903,3.32238,-0.00605502,0.334949,1.01499
245,901,3.32191,-0.00666418,0.335418,1.01442
247,899,3.3215,-0.00661623,0.335416,1.01445
249,897,3.32129,-0.00731239,0.335844,1.01383
251,895,3.32162,-0.00725666,0.335411,1.014
253,893,3.32157,-0.00771855,0.33541,1.01369
255,891,3.32089,-0.00776244,0.335842,1.01352
257,889,3.32075,-0.00837911,0.335846,1.01311
259,887,3.32189,-0.00559573,0.335216,1.01275
261,885,3.32174,-0.00612242,0.335219,1.01242
263,883,3.32184,-0.0066417,0.335219,1.01208
265,881,3.32192,-0.00662645,0.335218,1.01207
267,879,3.32171,-0.0071535,0.335214,1.01172
269,877,3.32104,-0.00722588,0.335646,1.0115
271,875,3.32069,-0.0081088,0.336077,1.01076
273,873,3.32036,-0.00783608,0.336071,1.01094
275,871,3.32023,-0.00837807,0.33607,1.01057
277,869,3.32178,-0.00559739,0.335006,1.01035
279,867,3.32148,-0.00618053,0.3354,1.01007
281,865,3.32139,-0.00672867,0.335443,1.00946
283,863,3.3211,-0.00665429,0.335442,1.00978
285,861,3.32072,-0.00734152,0.335882,1.00889
287,859,3.32089,-0.00719964,0.335443,1.00914
289,857,3.32039,-0.00782056,0.335879,1.00856
291,855,3.32035,-0.00787219,0.335876,1.00853
293,853,3.31992,-0.0084516,0.336316,1.00799
295,851,3.32187,-0.00552028,0.334812,1.00802
297,849,3.32122,-0.00618458,0.335244,1.00742
299,847,3.32107,-0.00615195,0.335241,1.00742
301,845,3.32085,-0.0066948,0.335243,1.00706
303,843,3.32096,-0.00667953,0.335244,1.00708
305,841,3.32069,-0.00732941,0.335685,1.0065
307,839,3.32056,-0.00780236,0.335689,1.00621
309,837,3.32041,-0.00778337,0.335684,1.00621
311,835,3.31983,-0.00842451,0.336121,1.00564
313,833,3.31946,-0.00835692,0.336212,1.00567
315,831,3.32106,-0.00609172,0.33505,1.00507
317,829,3.321,-0.0061134,0.33504,1.00505
319,827,3.3207,-0.00678728,0.33548,1.00444
321,825,3.3207,-0.00672585,0.335481,1.0045
323,823,3.32054,-0.00724408,0.335477,1.00413
325,821,3.32004,-0.00736859,0.335923,1.00392
327,819,3.31976,-0.00787801,0.33666,1.00359
329,817,3.3194,-0.00848724,0.336369,1.00306
331,815,3.31971,-0.00835881,0.335928,1.00331
333,813,3.32065,-0.006206,0.33574,1.00232
335,811,3.32122,-0.00602228,0.334858,1.00274
337,809,3.3209,-0.00666444,0.335299,1.00216
339,807,3.32064,-0.00665205,0.335294,1.00215
341,805,3.31968,-0.00731738,0.33617,1.00141
343,803,3.31991,-0.00729626,0.335729,1.00156
345,801,3.32033,-0.00725877,0.33529,1.00175
347,799,3.31907,-0.00805446,0.33662,1.00078
349,797,3.31946,-0.00841826,0.336185,1.00074
351,795,3.31934,-0.00844334,0.336446,1.00074
353,793,3.32099,-0.00606758,0.335131,1.00022
355,791,3.31979,-0.00620506,0.336012,0.999823
357,789,3.3202,-0.00672402,0.335572,0.999644
359,787,3.32024,-0.00671397,0.335563,0.999615
361,785,3.32018,-0.00668496,0.335791,0.999406
363,783,3.31996,-0.00728769,0.335542,0.999176
365,781,3.31987,-0.00725606,0.335538,0.999191
367,779,3.31929,-0.00789076,0.335986,0.998615
369,777,3.31866,-0.00797377,0.336438,0.998438
371,775,3.32032,-0.0056687,0.335389,0.997918
373,773,3.32056,-0.00615682,0.335387,0.997599
375,771,3.32011,-0.00615561,0.335919,0.997444
377,769,3.32001,-0.00670298,0.335823,0.99708
379,767,3.31988,-0.00678779,0.335824,0.997033
381,765,3.31977,-0.00731083,0.335827,0.996681
383,763,3.31922,-0.00789238,0.336268,0.996132
385,761,3.31896,-0.00790294,0.336276,0.996157
387,759,3.31896,-0.00794686,0.336275,0.996133
389,757,3.31885,-0.00843908,0.336264,0.995766
391,755,3.32034,-0.00559239,0.335178,0.995505
393,753,3.31994,-0.00619995,0.335639,0.994997
395,751,3.31952,-0.0068561,0.336087,0.994419
397,749,3.31942,-0.0067416,0.33609,0.994497
399,747,3.31919,-0.00735395,0.336099,0.994108
401,745,3.31904,-0.0073454,0.336097,0.994331
403,743,3.31894,-0.00735423,0.336071,0.994052
405,741,3.31881,-0.00791467,0.336063,0.993637
407,739,3.31862,-0.00796924,0.336065,0.992106
409,737,3.31812,-0.00853752,0.33651,0.99307
411,735,3.31769,-0.00856527,0.336505,0.993031
413,733,3.31905,-0.00632532,0.335879,0.992257
415,731,3.31932,-0.00626524,0.335204,0.992449
417,729,3.31911,-0.00680199,0.335879,0.991965
419,727,3.31895,-0.0068919,0.335878,0.991878
421,725,3.3188,-0.00740649,0.33588,0.991559
423,723,3.31872,-0.00744398,0.335877,0.991531
425,721,3.3181,-0.00804407,0.336325,0.990974
427,719,3.31777,-0.00805808,0.336321,0.990953
429,717,3.31764,-0.00864342,0.336324,0.990583
431,715,3.31938,-0.00571055,0.33599,0.990384
433,713,3.31939,-0.00623778,0.335249,0.990027
435,711,3.31883,-0.00691858,0.335695,0.989427
437,709,3.31864,-0.00690497,0.335694,0.989445
439,707,3.31831,-0.00756487,0.336146,0.988869
441,705,3.31804,-0.00754674,0.336155,0.988893
443,703,3.31784,-0.00808869,0.336158,0.988531
445,701,3.31781,-0.00864594,0.336164,0.988201
447,699,3.31777,-0.00860952,0.336157,0.988197
449,697,3.31911,-0.00627745,0.33627,0.987445
451,695,3.31898,-0.00632379,0.335524,0.987419
453,693,3.31828,-0.00696344,0.335977,0.986844
455,691,3.31857,-0.00691267,0.335522,0.987017
457,689,3.31794,-0.00753562,0.335978,0.986459
459,687,3.3179,-0.00812242,0.335977,0.986092
461,685,3.31781,-0.00810487,0.335946,0.986123
463,683,3.3174,-0.00877872,0.336696,0.985549
465,681,3.31941,-0.00628069,0.335387,0.985124
467,679,3.31912,-0.0062678,0.335386,0.985113
469,677,3.31858,-0.00697065,0.335842,0.984503
471,675,3.31812,-0.00691656,0.335837,0.984519
473,673,3.31792,-0.00751965,0.335812,0.984076
475,671,3.31789,-0.00750999,0.335809,0.984075
477,669,3.31778,-0.00810545,0.335807,0.983656
479,667,3.31726,-0.00817761,0.336259,0.983721
481,665,3.31696,-0.00878104,0.336258,0.983068
483,663,3.31875,-0.00629567,0.335176,0.982547
485,661,3.31854,-0.00634483,0.33518,0.982288
487,659,3.31756,-0.00700219,0.336107,0.981835
489,657,3.31745,-0.00758638,0.336118,0.981489
491,655,3.31792,-0.0075495,0.335657,0.981658
493,653,3.31755,-0.00815734,0.336122,0.981124
495,651,3.31714,-0.00810246,0.336099,0.981108
497,649,3.31691,-0.00872554,0.336095,0.980675
499,647,3.31822,-0.00638636,0.335432,0.979917
501,645,3.318,-0.00640671,0.33547,0.979911
503,643,3.31742,-0.00701338,0.335928,0.979342
505,641,3.31716,-0.00757358,0.335929,0.978995
507,639,3.31706,-0.0076005,0.335929,0.978984
509,637,3.31724,-0.0081896,0.335957,0.978661
511,635,3.3167,-0.00878161,0.336414,0.978125
513,633,3.31811,-0.00641025,0.335798,0.977399
515,631,3.31789,-0.00636341,0.335801,0.977427
517,629,3.31754,-0.00692953,0.335798,0.977057
519,627,3.31695,-0.0075616,0.33625,0.976466
521,625,3.31724,-0.00753653,0.335793,0.976653
523,623,3.31674,-0.00820062,0.336251,0.976059
525,621,3.31661,-0.00821107,0.336325,0.976077
527,619,3.3161,-0.00877267,0.336708,0.975526
529,617,3.31786,-0.00483597,0.335173,0.974815
531,615,3.3172,-0.00711103,0.336105,0.974342
533,613,3.31762,-0.00539891,0.335168,0.974437
535,611,3.31638,-0.00616121,0.3361,0.973661
537,609,3.31625,-0.0127532,0.3361,0.973348
539,607,3.31591,-0.00676158,0.336097,0.973273
541,605,3.31621,-0.00724982,0.335635,0.973114
543,603,3.31719,-0.00946355,0.33502,0.972039
545,601,3.31717,-0.010021,0.33502,0.971671
547,599,3.31668,-0.0116102,0.335487,0.971585
549,597,3.31621,-0.0106856,0.335476,0.971096
551,595,3.31639,-0.00976999,0.335273,0.97055
553,593,3.31596,-0.00973773,0.335014,0.970551
555,591,3.31526,-0.0104538,0.335473,0.969945
557,589,3.31746,-0.00792392,0.33394,0.969589
559,587,3.31699,-0.00637373,0.333934,0.9693
561,585,3.31701,-0.00703773,0.333936,0.968863
563,583,3.31696,-0.0060287,0.333469,0.968364
565,581,3.31629,-0.00822422,0.334398,0.967952
567,579,3.31611,-0.00673565,0.333928,0.967759
569,577,3.31733,-0.00427274,0.333309,0.967015
571,575,3.31623,-0.0111323,0.333772,0.966418
573,573,3.31688,-0.00551116,0.333308,0.966239
575,571,3.31683,-0.00548493,0.333308,0.966263
577,569,3.31629,-0.0107673,0.333316,0.965528
579,567,3.31592,-0.0112988,0.33331,0.965171
581,565,3.31544,-0.0119751,0.333774,0.964585
583,563,3.31696,-0.00898836,0.332697,0.964373
585,561,3.31659,-0.00801725,0.332689,0.963685
587,559,3.31587,-0.00867124,0.333156,0.963126
589,557,3.31604,-0.00919467,0.33269,0.961452
591,555,3.31559,-0.00984151,0.333155,0.962386
593,553,3.31546,-0.00836994,0.332693,0.962182
595,551,3.31737,-0.00431461,0.331154,0.961483
597,549,3.31703,-0.0110351,0.331162,0.961141
599,547,3.31668,-0.00557823,0.331627,0.960571
601,545,3.31606,-0.0122353,0.331617,0.960224
603,543,3.31492,-0.012401,0.332534,0.959788
605,541,3.31538,-0.0129585,0.332085,0.959641
607,539,3.31498,-0.0135655,0.33208,0.959228
609,537,3.31657,-0.00957246,0.331004,0.958347
611,535,3.31674,-0.0100625,0.331067,0.958031
613,533,3.316,-0.00922376,0.330996,0.957244
615,531,3.31572,-0.00982042,0.330999,0.956877
617,529,3.3152,-0.0104843,0.331463,0.956327
619,527,3.31628,-0.00744288,0.330852,0.955969
621,525,3.31614,-0.0065709,0.331129,0.955364
623,523,3.31587,-0.00713389,0.33038,0.954996
625,521,3.31566,-0.00776305,0.330385,0.954607
627,519,3.31547,-0.00685177,0.330384,0.9539
629,517,3.31546,-0.00740929,0.330478,0.953551
631,515,3.31638,-0.011224,0.329779,0.9528
633,513,3.31624,-0.0116956,0.329784,0.952501
635,511,3.31606,-0.0101608,0.329319,0.952337
637,509,3.31472,-0.0124841,0.330714,0.951723
639,507,3.31493,-0.0129708,0.330246,0.951552
641,505,3.31653,-0.0104547,0.329169,0.951001
643,503,3.31637,-0.00801936,0.3287,0.949871
645,501,3.31597,-0.00710535,0.328699,0.949377
647,499,3.31571,-0.00769044,0.328697,0.94899
649,497,3.31543,-0.00829125,0.328696,0.948602
651,495,3.31491,-0.00743279,0.328696,0.94787
653,493,3.31643,-0.00438999,0.32762,0.947628
655,491,3.31613,-0.00497857,0.327619,0.947259
657,489,3.31553,-0.00562212,0.328078,0.946707
659,487,3.31524,-0.00622013,0.328077,0.946324
661,485,3.31462,-0.0131715,0.328789,0.945949
663,483,3.31622,-0.0105749,0.327472,0.945235
665,481,3.31625,-0.00958108,0.327008,0.94471
667,479,3.31555,-0.0102908,0.328148,0.944109
669,477,3.31542,-0.00925244,0.327005,0.943616
671,475,3.31422,-0.01005,0.327934,0.942836
673,473,3.31391,-0.0106803,0.327989,0.942443
675,471,3.31606,-0.00750933,0.326405,0.942457
677,469,3.31553,-0.00823546,0.326853,0.941817
679,467,3.31514,-0.00725939,0.32686,0.941162
681,465,3.3151,-0.00624034,0.3264,0.940668
683,463,3.31472,-0.00687372,0.326398,0.940252
685,461,3.31596,-0.00445102,0.325825,0.939486
687,459,3.31516,-0.0113318,0.32626,0.938981
689,457,3.31447,-0.0125691,0.32672,0.93807
691,455,3.31419,-0.0131708,0.326722,0.937684
693,453,3.31447,-0.0130411,0.326251,0.937906
695,451,3.31582,-0.00906403,0.325179,0.93695
697,449,3.315215,-0.00974113,0.325639,0.936384
699,447,3.31515,-0.00874419,0.325231,0.93586
701,445,3.31432,-0.00944093,0.32564,0.935018
703,443,3.31439,-0.00846483,0.325179,0.934752
705,441,3.31567,-0.00437935,0.324103,0.933816
707,439,3.3149,-0.00514137,0.324578,0.933239
709,437,3.31489,-0.00715425,0.324664,0.933275
711,435,3.31504,-0.00617282,0.324104,0.932735
713,433,3.31394,-0.0132577,0.325034,0.932222
715,431,3.31562,-0.00911878,0.323505,0.931269
717,429,3.31519,-0.00968111,0.323483,0.930847
719,427,3.31448,-0.0104564,0.323949,0.930236
721,425,3.31424,-0.011084,0.323949,0.929848
723,423,3.31382,-0.0102248,0.323944,0.929064
725,421,3.31305,-0.00921528,0.323943,0.928399
727,419,3.31472,-0.00824517,0.323354,0.928075
729,417,3.31482,-0.00718916,0.322901,0.927605
731,415,3.31441,-0.00631692,0.322906,0.926851
733,413,3.31376,-0.00761435,0.323378,0.925918
735,411,3.31518,-0.0112716,0.323035,0.922755
737,409,3.31482,-0.0113708,0.32229,0.925358
739,407,3.3148,-0.0104098,0.32183,0.924807
741,405,3.31367,-0.0126058,0.322751,0.924642
743,403,3.31294,-0.0117867,0.322752,0.923656
745,401,3.31469,-0.0098111,0.321676,0.922719
747,399,3.31459,-0.0104538,0.321673,0.922317
749,397,3.31442,-0.00730313,0.321217,0.921812
751,395,3.31393,-0.00691096,0.321215,0.920758
753,393,3.31562,-0.00437099,0.320154,0.920205
755,391,3.31489,-0.00500874,0.320624,0.919672
757,389,3.31455,-0.00568116,0.320627,0.91928
759,387,3.31387,-0.00631102,0.321081,0.918722
761,385,3.31327,-0.0132954,0.321087,0.918383
763,383,3.31448,-0.0108216,0.320481,0.917605
765,381,3.31397,-0.0121406,0.320947,0.916654
767,379,3.31425,-0.0103959,0.320011,0.916706
769,377,3.313,-0.010239,0.320939,0.9152
771,375,3.31259,-0.0108805,0.320936,0.914812
773,373,3.31486,-0.00657872,0.318942,0.914299
775,371,3.31432,-0.00727535,0.319165,0.913714
777,369,3.31358,-0.0079101,0.320122,0.913202
779,367,3.31296,-0.00700332,0.319882,0.912454
781,365,3.31405,-0.00449367,0.319284,0.911721
783,363,3.31361,-0.00513456,0.31928,0.911319
785,361,3.31333,-0.00734169,0.319738,0.91113
787,359,3.31316,-0.0127548,0.319274,0.910619
789,357,3.31271,-0.0124056,0.319269,0.909762
791,355,3.31387,-0.00989184,0.318671,0.908559
793,353,3.31375,-0.00884826,0.318196,0.908218
795,351,3.31292,-0.00960464,0.318662,0.907613
797,349,3.31267,-0.0102324,0.318661,0.90723
799,347,3.314,-0.00607957,0.3176,0.906329
801,345,3.31323,-0.00675179,0.318063,0.905754
803,343,3.31299,-0.00571283,0.317596,0.905229
805,341,3.31273,-0.00639884,0.317593,0.905086
807,339,3.31195,-0.0087406,0.318534,0.904437
809,337,3.31317,-0.00518065,0.317475,0.903156
811,335,3.31309,-0.0105836,0.316991,0.902616
813,333,3.31244,-0.0113035,0.317461,0.902062
815,331,3.3122,-0.0102372,0.31699,0.901546
817,329,3.31379,-0.00762984,0.315921,0.900944
819,327,3.3127,-0.00903586,0.31686,0.899843
821,325,3.31253,-0.00802295,0.31639,0.899278
823,323,3.31176,-0.0071177,0.316635,0.89851
825,321,3.31117,-0.00934352,0.316859,0.898335
827,319,3.31249,-0.00525937,0.315775,0.8973
829,317,3.31243,-0.00581832,0.31579,0.897011
831,315,3.31217,-0.00645345,0.315797,0.896657
833,313,3.31135,-0.0142489,0.316268,0.895784
835,311,3.3129,-0.00845178,0.314667,0.894664
837,309,3.31207,-0.0090815,0.315199,0.894107
839,307,3.31174,-0.00973239,0.3152,0.893738
841,305,3.31139,-0.00941596,0.315202,0.892632
843,303,3.31256,-0.0069163,0.314622,0.891871
845,301,3.31247,-0.00584336,0.314392,0.891343
847,299,3.31175,-0.0129734,0.314141,0.890988
849,297,3.31035,-0.0137953,0.315066,0.890182
851,295,3.31198,-0.0111632,0.314015,0.889639
853,293,3.31141,-0.00564719,0.315221,0.888857
855,291,3.31112,-0.013111,0.314486,0.88838
857,289,3.31043,-0.0144504,0.314973,0.887475
859,287,3.31229,-0.0100267,0.313425,0.88677
861,285,3.31168,-0.00912405,0.313424,0.885952
863,283,3.31112,-0.00820916,0.313466,0.885236
865,281,3.31029,-0.00949727,0.313886,0.884314
867,279,3.31212,-0.00518044,0.312353,0.883562
869,277,3.3117,-0.00577252,0.312348,0.883214
871,275,3.31098,-0.00654758,0.312912,0.882626
873,273,3.30998,-0.0144679,0.313291,0.881728
875,271,3.31136,-0.0102657,0.312231,0.880766
877,269,3.31106,-0.0091451,0.311746,0.880224
879,267,3.30995,-0.0116753,0.31271,0.879813
881,265,3.30908,-0.0112853,0.313175,0.878578
883,263,3.31071,-0.00859971,0.312115,0.878019
885,261,3.30988,-0.00995537,0.312593,0.877116
887,259,3.30961,-0.00896076,0.312114,0.876514
889,257,3.31161,-0.00454923,0.31059,0.875823
891,255,3.3108,-0.00530873,0.311058,0.875227
893,253,3.31008,-0.00664953,0.31153,0.874295
895,251,3.30952,-0.0139508,0.311526,0.873962
897,249,3.31078,-0.00959083,0.310462,0.873051
899,247,3.31028,-0.00925207,0.310462,0.871941
901,245,3.30947,-0.00996572,0.310931,0.871364
903,243,3.30917,-0.00895459,0.310275,0.870804
905,241,3.31046,-0.00702276,0.309875,0.869656
907,239,3.31041,-0.00592075,0.309397,0.869134
909,237,3.30922,-0.00731304,0.310341,0.86803
911,235,3.30865,-0.00798133,0.311089,0.867657
913,233,3.30965,-0.0121146,0.309758,0.86689
915,231,3.30943,-0.0116079,0.309284,0.866028
917,229,3.30858,-0.0123539,0.30976,0.865462
919,227,3.31037,-0.00788215,0.308231,0.864745
921,225,3.30925,-0.00763885,0.3087,0.863426
923,223,3.30828,-0.00840399,0.309176,0.862846
925,221,3.30739,-0.00978678,0.309647,0.861894
927,219,3.30917,-0.00701032,0.30859,0.861373
929,217,3.30883,-0.00597127,0.308114,0.860807
931,215,3.30792,-0.0141309,0.308595,0.859906
933,213,3.30887,-0.0104689,0.308021,0.858445
935,211,3.30853,-0.0111229,0.308021,0.858073
937,209,3.30809,-0.0117666,0.308023,0.857724
939,207,3.30742,-0.0114007,0.308019,0.856639
941,205,3.3087,-0.00874814,0.307441,0.85587
943,203,3.30838,-0.00762467,0.306955,0.855318
945,201,3.30756,-0.00902469,0.307433,0.854382
947,199,3.30872,-0.00637661,0.30685,0.853622
949,197,3.3082,-0.00707053,0.306848,0.853214
951,195,3.30771,-0.00674588,0.306846,0.852086
953,193,3.30717,-0.00735871,0.306836,0.851734
955,191,3.30788,-0.0105286,0.306261,0.85027
957,189,3.30771,-0.0112258,0.306278,0.84992
959,187,3.30717,-0.0108686,0.306278,0.849088
961,185,3.30852,-0.00642953,0.305234,0.84791
963,183,3.30831,-0.00600967,0.304758,0.846992
965,181,3.30713,-0.0135984,0.305229,0.846446
967,179,3.30839,-0.0115177,0.304652,0.845359
969,177,3.30785,-0.0121795,0.304642,0.844967
971,175,3.30673,-0.0119681,0.305118,0.843634
973,173,3.30644,-0.010884,0.304632,0.84305
975,171,3.30748,-0.00814668,0.304057,0.842318
977,169,3.30689,-0.00785226,0.304056,0.841181
979,167,3.30638,-0.00850927,0.304055,0.840816
981,165,3.30569,-0.00821148,0.304065,0.839704
983,163,3.30737,-0.00536534,0.303016,0.839194
985,161,3.30583,-0.0138853,0.303965,0.838012
987,159,3.30528,-0.0145185,0.303963,0.83767
989,157,3.30673,-0.0106483,0.302914,0.836384
991,155,3.30654,-0.00958885,0.302673,0.83582
993,153,3.30576,-0.0109492,0.302909,0.834924
995,151,3.30716,-0.00653085,0.301868,0.833956
997,149,3.3063,-0.00613438,0.301862,0.832852
999,147,3.30583,-0.00685595,0.301853,0.832458
1001,145,3.30465,-0.0152254,0.302334,0.831578
1003,143,3.30578,-0.0124367,0.302495,0.830835
1005,141,3.30506,-0.0121628,0.301752,0.829663
1007,139,3.30456,-0.012815,0.301736,0.829273
1009,137,3.30594,-0.00897826,0.300694,0.82798
1011,135,3.30499,-0.00984318,0.301203,0.826114
1013,133,3.30449,-0.0093945,0.301194,0.826359
1015,131,3.30608,-0.00646582,0.300143,0.825837
1017,129,3.3053,-0.00798438,0.300633,0.824885
1019,127,3.30448,-0.00688616,0.300633,0.824194
1021,125,3.30538,-0.0118704,0.300809,0.823059
1023,123,3.30458,-0.010856,0.30006,0.822299
1025,121,3.30362,-0.0123103,0.30054,0.821365
1027,119,3.30331,-0.0111948,0.300061,0.820815
1029,117,3.30471,-0.00731447,0.299007,0.81949
1031,115,3.3037,-0.0080989,0.299504,0.81895
1033,113,3.30299,-0.00773298,0.299495,0.817824
1035,111,3.30447,-0.00485474,0.298446,0.817257
1037,109,3.30327,-0.0133897,0.298933,0.816387
1039,107,3.30306,-0.0140689,0.298921,0.816011
1041,105,3.30375,-0.0120832,0.298851,0.814702
1043,103,3.30372,-0.00912576,0.297878,0.813938
1045,101,3.30313,-0.00875275,0.297882,0.812855
1047,99,3.30212,-0.0101986,0.298363,0.81193
1049,97,3.30388,-0.0073702,0.297314,0.811334
1051,95,3.30313,-0.00696286,0.297309,0.810229
1053,93,3.30216,-0.00773053,0.29779,0.80968
1055,91,3.30353,-0.0127078,0.296747,0.808769
1057,89,3.30274,-0.011698,0.296745,0.807993
1059,87,3.302,-0.011334,0.297485,0.806889
1061,85,3.30386,-0.00661457,0.295222,0.806144
1063,83,3.30294,-0.00805371,0.295706,0.805218
1065,81,3.30217,-0.0070177,0.295702,0.804457
1067,79,3.3008,-0.0156691,0.296188,0.80357
1069,77,3.30264,-0.0109768,0.294659,0.802789
1071,75,3.30159,-0.0124262,0.295143,0.801887
1073,73,3.30114,-0.0131572,0.295142,0.801515
1075,71,3.30225,-0.0110144,0.294583,0.800394
1077,69,3.30137,-0.00992121,0.294583,0.799682
1079,67,3.30056,-0.00959545,0.294582,0.798523
1081,65,3.30219,-0.00667553,0.293541,0.797963
1083,63,3.30129,-0.0135725,0.293537,0.79685
1085,61,3.30017,-0.0143306,0.294028,0.79632
1087,59,3.30172,-0.0103529,0.292985,0.795004
1089,57,3.3014,-0.00918685,0.292502,0.79446
1091,55,3.30058,-0.01075,0.292998,0.793488
1093,53,3.30015,-0.0095662,0.292495,0.792941
1095,51,3.30158,-0.00554942,0.291461,0.791629
1097,49,3.30033,-0.00817912,0.29243,0.791302
1099,47,3.2993,-0.0151549,0.292432,0.790175
1101,45,3.30083,-0.012206,0.291477,0.789629
1103,43,3.30013,-0.0118655,0.291389,0.788474
1105,41,3.29963,-0.0106981,0.290907,0.78792
1107,39,3.30074,-0.00853357,0.290352,0.786809
1109,37,3.29964,-0.00933655,0.290837,0.786259
1111,35,3.29861,-0.0108422,0.291327,0.785608
1113,33,3.29831,-0.00967607,0.290836,0.783428
1115,31,3.29933,-0.0129741,0.289799,0.783475
1117,29,3.2989,-0.0136597,0.289881,0.783133
1119,27,3.29812,-0.0133036,0.289799,0.781995
1121,25,3.29955,-0.008633,0.288768,0.781013
1123,23,3.29893,-0.00928979,0.288765,0.780674
1125,21,3.29825,-0.00898356,0.288765,0.77953
1127,19,3.29746,-0.00861682,0.288771,0.778416
1129,17,3.298825,-0.0130237,0.28774,0.77788
1131,15,3.29816,-0.0136945,0.287743,0.777553
1133,13,3.29735,-0.0133725,0.287745,0.7764
1135,11,3.29839,-0.0104731,0.28719,0.775658
1137,9,3.29768,-0.0112099,0.287185,0.775272
1139,7,3.29668,-0.0127252,0.287668,0.77436
1141,5,3.29611,-0.0115067,0.28717,0.773806
1143,3,3.29697,-0.00759228,0.286641,0.772267