File: hust_correlation_analysis/matrices/HUST_9-4_cycle_feature_matrix.csv
cycle_number,rul,voltage,current,capacity,charge_capacity
1,1977,3.31629,0.02206,0.274571,1.03893
3,1975,3.29822,-0.0108111,0.289809,1.01322
5,1973,3.29965,-0.0139617,0.289977,1.01689
7,1971,3.30276,-0.0102936,0.287857,1.01997
9,1969,3.30388,-0.0114177,0.287531,1.02225
11,1967,3.30389,-0.0126772,0.287636,1.0242
13,1965,3.30522,-0.0110129,0.286382,1.02574
15,1963,3.30708,-0.0102744,0.285153,1.02683
17,1961,3.30831,-0.0096086,0.284341,1.02766
19,1959,3.30844,-0.0090293,0.284143,1.02821
21,1957,3.3088,-0.00834057,0.283375,1.02902
23,1955,3.30798,-0.0130134,0.284368,1.0293
25,1953,3.30754,-0.0113051,0.284058,1.02963
27,1951,3.30775,-0.0105127,0.283512,1.03049
29,1949,3.30848,-0.0107746,0.283235,1.03061
31,1947,3.3088,-0.0107387,0.282446,1.03085
33,1945,3.30939,-0.0107521,0.282052,1.03085
35,1943,3.30958,-0.0108121,0.282049,1.03106
37,1941,3.30986,-0.0106895,0.281655,1.03162
39,1939,3.31042,-0.0100578,0.281256,1.03193
41,1937,3.31096,-0.0100275,0.281259,1.03195
43,1935,3.311,-0.0100157,0.281259,1.03196
45,1933,3.31112,-0.0106531,0.281261,1.03163
47,1931,3.31075,-0.0106531,0.281259,1.03163
49,1929,3.31068,-0.0111954,0.281257,1.03136
51,1927,3.3108,-0.0111551,0.280864,1.0316
53,1925,3.31018,-0.0111516,0.281256,1.03137
55,1923,3.31196,-0.00878116,0.27992,1.03073
57,1921,3.31155,-0.00907561,0.279923,1.03057
59,1919,3.31075,-0.0140813,0.280904,1.03064
61,1917,3.3114,-0.00943107,0.279929,1.0304
63,1915,3.31132,-0.00941202,0.279925,1.03041
65,1913,3.31145,-0.00943378,0.279923,1.0304
67,1911,3.3112,-0.0100727,0.279922,1.03006
69,1909,3.31117,-0.0100478,0.279924,1.03009
71,1907,3.31169,-0.0100833,0.279924,1.03006
73,1905,3.31317,-0.00749259,0.278842,1.02952
75,1903,3.31157,-0.0109154,0.279916,1.02959
77,1901,3.31161,-0.0112623,0.279917,1.02942
79,1899,3.31272,-0.00880297,0.27923,1.02861
81,1897,3.31159,-0.013713,0.280128,1.02873
83,1895,3.31284,-0.0091612,0.278976,1.02841
85,1893,3.31193,-0.014406,0.279968,1.02836
87,1891,3.31181,-0.0101292,0.279408,1.02768
89,1889,3.31084,-0.0147343,0.280357,1.02796
91,1887,3.31068,-0.01503,0.280357,1.0278
93,1885,3.31075,-0.010648,0.279631,1.0274
95,1883,3.31136,-0.0106889,0.279368,1.02738
97,1881,3.31206,-0.012606,0.279278,1.02581
99,1879,3.3113,-0.0113458,0.279371,1.02703
101,1877,3.31264,-0.0129066,0.279027,1.02705
103,1875,3.31246,-0.0135637,0.279424,1.02648
105,1873,3.31249,-0.0138495,0.279426,1.02633
107,1871,3.31342,-0.00916265,0.278426,1.02607
109,1869,3.31284,-0.0094755,0.278896,1.02589
111,1867,3.31242,-0.00954454,0.278824,1.02563
113,1865,3.31153,-0.0144839,0.279812,1.02601
115,1863,3.3127,-0.0100563,0.278426,1.0256
117,1861,3.31208,-0.0100919,0.278822,1.02537
119,1859,3.31199,-0.0107163,0.278823,1.02502
121,1857,3.31138,-0.0111221,0.27922,1.02458
123,1855,3.31238,-0.00793222,0.278139,1.02436
125,1853,3.31272,-0.00830654,0.27814,1.02418
127,1851,3.31275,-0.00830582,0.278136,1.02441
129,1849,3.31231,-0.0132601,0.278871,1.02429
131,1847,3.31308,-0.00886568,0.27788,1.02387
133,1845,3.31229,-0.0135232,0.278876,1.02415
135,1843,3.3118,-0.0138673,0.279269,1.02374
137,1841,3.31281,-0.00923514,0.278276,1.02346
139,1839,3.31308,-0.00985743,0.278272,1.0231
141,1837,3.31349,-0.0113712,0.27819,1.02314
143,1835,3.3131,-0.011357,0.27819,1.02314
145,1833,3.31197,-0.0101927,0.278673,1.02272
147,1831,3.31137,-0.0151849,0.279671,1.02283
149,1829,3.31275,-0.0120302,0.278586,1.02256
151,1827,3.31166,-0.0108104,0.278675,1.0224
153,1825,3.31203,-0.0130808,0.278727,1.02179
155,1823,3.31222,-0.00836056,0.277987,1.02155
157,1821,3.31184,-0.0130912,0.278726,1.0218
159,1819,3.31188,-0.013389,0.27873,1.02165
161,1817,3.31175,-0.0136434,0.278732,1.02151
163,1815,3.31163,-0.00929224,0.27838,1.02083
165,1813,3.31127,-0.0142983,0.279384,1.02094
167,1811,3.31144,-0.0143056,0.279388,1.02094
169,1809,3.31171,-0.0139099,0.278984,1.02136
171,1807,3.31291,-0.0115766,0.278439,1.02023
173,1805,3.31153,-0.0149903,0.279528,1.02037
175,1803,3.31148,-0.0155815,0.279531,1.02031
177,1801,3.31118,-0.0149519,0.279532,1.02039
179,1799,3.31213,-0.0123926,0.278438,1.01981
181,1797,3.31049,-0.0106998,0.278929,1.01964
183,1795,3.31095,-0.0108934,0.278526,1.01977
185,1793,3.31173,-0.0131565,0.278585,1.01918
187,1791,3.31076,-0.0131743,0.278841,1.01916
189,1789,3.31089,-0.0133937,0.278847,1.01907
191,1787,3.31188,-0.00841148,0.277839,1.01893
193,1785,3.31193,-0.0137652,0.278588,1.01914
195,1783,3.31139,-0.013716,0.278834,1.01888
197,1781,3.31224,-0.00934634,0.27798,1.01823
199,1779,3.31191,-0.013696,0.278588,1.01893
201,1777,3.31098,-0.0143655,0.27925,1.01835
203,1775,3.31053,-0.0146072,0.279644,1.01798
205,1773,3.31236,-0.0112527,0.277903,1.01661
207,1771,3.31164,-0.0102555,0.277986,1.01776
209,1769,3.31127,-0.0102628,0.278239,1.01775
211,1767,3.31056,-0.0154254,0.279392,1.01757
213,1765,3.31002,-0.0150757,0.2794,1.01777
215,1763,3.31152,-0.0125214,0.278303,1.01718
217,1761,3.31073,-0.01065,0.27839,1.01734
219,1759,3.31061,-0.0108895,0.278387,1.01723
221,1757,3.31168,-0.0125048,0.278043,1.01718
223,1755,3.31028,-0.0117652,0.278791,1.01653
225,1753,3.31049,-0.0119587,0.278792,1.01644
227,1751,3.31213,-0.00873802,0.277694,1.01619
229,1749,3.31264,-0.00873995,0.277442,1.0162
231,1747,3.31202,-0.0137752,0.27845,1.01631
233,1745,3.31195,-0.0137814,0.278449,1.01631
235,1743,3.31208,-0.00940194,0.277853,1.01564
237,1741,3.31239,-0.0092886,0.277444,1.01592
239,1739,3.31156,-0.00943808,0.277854,1.01563
241,1737,3.31112,-0.00931466,0.277838,1.01566
243,1735,3.31058,-0.00944408,0.278255,1.01538
245,1733,3.31033,-0.00972301,0.278251,1.01522
247,1731,3.30983,-0.00986131,0.278654,1.01492
249,1729,3.31006,-0.014373,0.279256,1.01555
251,1727,3.31046,-0.009569,0.278246,1.01528
253,1725,3.31104,-0.00987647,0.278252,1.01514
255,1723,3.3104,-0.0103954,0.27866,1.01466
257,1721,3.31127,-0.0118071,0.278172,1.01498
259,1719,3.30941,-0.015699,0.279664,1.01464
261,1717,3.30921,-0.0156659,0.279667,1.01446
263,1715,3.31007,-0.0108836,0.278654,1.0144
265,1713,3.30984,-0.0109785,0.278656,1.01435
267,1711,3.3102,-0.0132403,0.278721,1.0138
269,1709,3.31088,-0.0080735,0.277559,1.01393
271,1707,3.30943,-0.013161,0.278978,1.01382
273,1705,3.31011,-0.00878783,0.277962,1.01333
275,1703,3.30932,-0.01393,0.278974,1.01341
277,1701,3.31075,-0.00909539,0.277299,1.01342
279,1699,3.31,-0.0141887,0.27866,1.01352
281,1697,3.30962,-0.0141712,0.278566,1.01351
283,1695,3.30994,-0.014874,0.27872,1.01295
285,1693,3.3099,-0.0145625,0.279064,1.0131
287,1691,3.31121,-0.00960602,0.277296,1.01315
289,1689,3.31108,-0.0119369,0.278029,1.01231
291,1687,3.31053,-0.0104023,0.278205,1.01228
293,1685,3.30957,-0.0103472,0.278363,1.0123
295,1683,3.31003,-0.0110108,0.278106,1.01196
297,1681,3.3103,-0.0123629,0.278031,1.0121
299,1679,3.31103,-0.00823316,0.277012,1.01148
301,1677,3.30994,-0.0133843,0.278647,1.01135
303,1675,3.31092,-0.00818222,0.277005,1.0115
305,1673,3.31058,-0.0132709,0.27777,1.01163
307,1671,3.31021,-0.0135741,0.278028,1.01149
309,1669,3.3106,-0.0135412,0.27777,1.0115
311,1667,3.31033,-0.00917299,0.277415,1.01078
313,1665,3.31001,-0.0139209,0.278024,1.01128
315,1663,3.31085,-0.00946413,0.277162,1.01063
317,1661,3.30958,-0.0139944,0.278437,1.01105
319,1659,3.30959,-0.014242,0.278428,1.01089
321,1657,3.31035,-0.0146351,0.278174,1.01047
323,1655,3.3114,-0.0117761,0.27749,1.01005
325,1653,3.3098,-0.0152776,0.278579,1.01015
327,1651,3.31053,-0.0103804,0.277413,1.01016
329,1649,3.31115,-0.0120245,0.277077,1.01014
331,1647,3.31065,-0.0124017,0.27748,1.00972
333,1645,3.31,-0.010817,0.277567,1.00971
335,1643,3.30981,-0.0107471,0.277564,1.00974
337,1641,3.31024,-0.0127616,0.277492,1.00815
339,1639,3.31013,-0.0127269,0.277578,1.00953
341,1637,3.31026,-0.0126919,0.277486,1.00958
343,1635,3.31042,-0.0133573,0.277636,1.00901
345,1633,3.31011,-0.0130362,0.277487,1.0094
347,1631,3.31075,-0.013273,0.277228,1.00927
349,1629,3.31009,-0.0140293,0.277894,1.00867
351,1627,3.31077,-0.00885018,0.276869,1.00858
353,1625,3.31003,-0.0140832,0.277898,1.00865
355,1623,3.31067,-0.00951206,0.276871,1.00824
357,1621,3.31081,-0.00981265,0.276868,1.00809
359,1619,3.30981,-0.0146893,0.277892,1.00833
361,1617,3.30963,-0.0147325,0.278042,1.00808
363,1615,3.30868,-0.0147415,0.278399,1.00809
365,1613,3.30991,-0.0102059,0.277019,1.00764
367,1611,3.31024,-0.012096,0.276942,1.00751
369,1609,3.30963,-0.0102376,0.277022,1.00765
371,1607,3.30907,-0.0107748,0.277278,1.00737
373,1605,3.30872,-0.0162345,0.278452,1.0071
375,1603,3.31069,-0.0124328,0.276944,1.00734
377,1601,3.31142,-0.0127841,0.27669,1.00718
379,1599,3.31157,-0.00826745,0.276325,1.0065
381,1597,3.31048,-0.0131151,0.277348,1.00677
383,1595,3.31081,-0.0131964,0.277095,1.00674
385,1593,3.311,-0.0134443,0.277093,1.00662
387,1591,3.31094,-0.01345,0.277096,1.00662
389,1589,3.31144,-0.00891669,0.276071,1.00618
391,1587,3.31023,-0.00925499,0.276739,1.00578
393,1585,3.30941,-0.0141508,0.277764,1.00602
395,1583,3.31039,-0.00930719,0.276478,1.00576
397,1581,3.31023,-0.00964806,0.276481,1.00558
399,1579,3.30879,-0.0145159,0.277762,1.00584
401,1577,3.309,-0.0148104,0.277976,1.00569
403,1575,3.31074,-0.0102167,0.276478,1.0053
405,1573,3.3102,-0.00999672,0.276736,1.00541
407,1571,3.31046,-0.0104963,0.276733,1.00515
409,1569,3.31011,-0.0150351,0.277501,1.00557
411,1567,3.3115,-0.012151,0.276404,1.00513
413,1565,3.31112,-0.0125074,0.27681,1.00471
415,1563,3.30896,-0.0157817,0.277916,1.00498
417,1561,3.31105,-0.00799486,0.275781,1.00428
419,1559,3.31024,-0.0132356,0.276815,1.00436
421,1557,3.31059,-0.0128642,0.276555,1.00455
423,1555,3.3101,-0.0136281,0.276968,1.00393
425,1553,3.30991,-0.0135704,0.277357,1.00397
427,1551,3.30989,-0.0136168,0.276964,1.00394
429,1549,3.30882,-0.0120112,0.277296,1.00392
431,1547,3.30948,-0.0141864,0.27722,1.00363
433,1545,3.30948,-0.013951,0.277227,1.00379
435,1543,3.30972,-0.0142082,0.277222,1.00363
437,1541,3.31002,-0.0141687,0.277319,1.00367
439,1539,3.31074,-0.00925269,0.276192,1.00341
441,1537,3.3097,-0.0149169,0.277381,1.00307
443,1535,3.30919,-0.0149229,0.27763,1.00304
445,1533,3.30889,-0.0149068,0.277839,1.00304
447,1531,3.31071,-0.0119601,0.276267,1.00262
449,1529,3.31062,-0.0123111,0.276272,1.00246
451,1527,3.31081,-0.0122605,0.276655,1.00248
453,1525,3.31048,-0.0126977,0.276684,1.00203
455,1523,3.31011,-0.0126653,0.276674,1.00204
457,1521,3.31071,-0.0130094,0.276424,1.00188
459,1519,3.3105,-0.0133183,0.276428,1.00172
461,1517,3.30961,-0.0132443,0.276686,1.00177
463,1515,3.30962,-0.0113589,0.276343,1.00212
465,1513,3.3107,-0.00872405,0.275651,1.00131
467,1511,3.30936,-0.0116828,0.277106,1.00174
469,1509,3.30912,-0.0116542,0.276757,1.00175
471,1507,3.31056,-0.0139151,0.276428,1.00144
473,1505,3.31119,-0.00895034,0.27539,1.0012
475,1503,3.31082,-0.00899966,0.27578,1.00117
477,1501,3.30911,-0.0146169,0.277095,1.00086
479,1499,3.31047,-0.00962042,0.275649,1.00086
481,1497,3.3091,-0.0146276,0.277096,1.00085
483,1495,3.3091,-0.0146248,0.276837,1.00085
485,1493,3.30917,-0.00999682,0.27606,1.00044
487,1491,3.30893,-0.0153533,0.276843,1.00048
489,1489,3.31019,-0.0119722,0.27573,1.00026
491,1487,3.30942,-0.0104072,0.2758,1.00023
493,1485,3.30959,-0.0124231,0.276139,0.999809
495,1483,3.31047,-0.0123198,0.275732,1.0001
497,1481,3.31006,-0.012673,0.276143,0.999691
499,1479,3.30877,-0.0158472,0.276838,1.00025
501,1477,3.30954,-0.0110939,0.27622,0.999674
503,1475,3.30959,-0.0116682,0.276307,0.999368
505,1473,3.30954,-0.0113854,0.276223,0.999538
507,1471,3.31049,-0.0136756,0.275887,0.999202
509,1469,3.30925,-0.0120052,0.276218,0.999228
511,1467,3.31022,-0.0136611,0.275888,0.999213
513,1465,3.31023,-0.00913782,0.275263,0.998508
515,1463,3.31005,-0.00914573,0.275258,0.998481
517,1461,3.30985,-0.00948479,0.275266,0.998325
519,1459,3.30987,-0.00971978,0.275265,0.998209
521,1457,3.31011,-0.00945546,0.275263,0.998354
523,1455,3.31058,-0.00936291,0.274942,0.998622
525,1453,3.31019,-0.0097573,0.275259,0.998189
527,1451,3.30978,-0.0103742,0.275513,0.997877
529,1449,3.31037,-0.0100909,0.275264,0.998029
531,1447,3.30922,-0.0157244,0.276716,0.997719
533,1445,3.30997,-0.0108328,0.275685,0.997464
535,1443,3.30973,-0.0108348,0.275676,0.997423
537,1441,3.30916,-0.011099,0.275933,0.997299
539,1439,3.30858,-0.0160636,0.276715,0.99756
541,1437,3.30835,-0.0114336,0.275931,0.997114
543,1435,3.30886,-0.0131964,0.276023,0.996838
545,1433,3.30951,-0.0135381,0.275759,0.996662
547,1431,3.30991,-0.00809188,0.274561,0.99687
549,1429,3.30883,-0.013778,0.27602,0.996542
551,1427,3.30873,-0.0137125,0.276013,0.996564
553,1425,3.30946,-0.01376,0.275601,0.996776
555,1423,3.3096,-0.00918931,0.274975,0.996089
557,1421,3.31013,-0.00922903,0.274718,0.996073
559,1419,3.31008,-0.0094918,0.27497,0.996183
561,1417,3.31066,-0.00948035,0.274722,0.995976
563,1415,3.31023,-0.00948688,0.274972,0.995939
565,1413,3.30892,-0.0150008,0.276363,0.995923
567,1411,3.30861,-0.015012,0.276013,0.995914
569,1409,3.3108,-0.0120922,0.274642,0.995452
571,1407,3.30919,-0.0154059,0.275757,0.995734
573,1405,3.30998,-0.0124796,0.275059,0.995042
575,1403,3.3098,-0.0124423,0.275057,0.995055
577,1401,3.30864,-0.0111163,0.275475,0.994879
579,1399,3.30934,-0.0127843,0.275472,0.994656
581,1397,3.30803,-0.0112796,0.275798,0.99457
583,1395,3.31024,-0.00848485,0.274421,0.994027
585,1393,3.30935,-0.0132043,0.275469,0.994436
587,1391,3.30976,-0.0137124,0.275465,0.994167
589,1389,3.30947,-0.0137804,0.275476,0.994167
591,1387,3.30962,-0.0138636,0.275469,0.994119
593,1385,3.30947,-0.0138266,0.275469,0.994123
595,1383,3.30908,-0.0145852,0.275896,0.993548
597,1381,3.30875,-0.0149149,0.275892,0.99336
599,1379,3.30898,-0.0144956,0.275472,0.993792
601,1377,3.30863,-0.0151507,0.275891,0.993253
603,1375,3.30815,-0.0148914,0.275893,0.993376
605,1373,3.30821,-0.0153491,0.276055,0.99293
607,1371,3.30716,-0.0152704,0.27631,0.992956
609,1369,3.30948,-0.0126166,0.274942,0.992381
611,1367,3.31027,-0.0122872,0.274866,0.992758
613,1365,3.30952,-0.0129641,0.27494,0.992202
615,1363,3.30843,-0.0116316,0.27526,0.992024
617,1361,3.30973,-0.0132824,0.274939,0.992045
619,1359,3.31038,-0.013525,0.274678,0.991918
621,1357,3.3101,-0.0134718,0.274888,0.990447
623,1355,3.31049,-0.0138735,0.274683,0.991752
625,1353,3.30982,-0.013574,0.274941,0.991902
627,1351,3.30967,-0.0143578,0.275102,0.9913
629,1349,3.30972,-0.00931546,0.274303,0.991038
631,1347,3.31027,-0.00926154,0.273886,0.991288
633,1345,3.3095,-0.00961526,0.274299,0.990888
635,1343,3.30802,-0.0146343,0.275354,0.991142
637,1341,3.30949,-0.0101721,0.274298,0.990607
639,1339,3.30854,-0.0149588,0.275098,0.991001
641,1337,3.30828,-0.0103211,0.274722,0.990306
643,1335,3.30835,-0.0153434,0.275102,0.990813
645,1333,3.30997,-0.0122673,0.27398,0.990408
647,1331,3.30884,-0.0105929,0.274302,0.990411
649,1329,3.30926,-0.0105805,0.274047,0.990421
651,1327,3.3092,-0.0109646,0.274465,0.990004
653,1325,3.30873,-0.0110272,0.274461,0.989968
655,1323,3.30827,-0.0112756,0.274722,0.989844
657,1321,3.30892,-0.0112744,0.274462,0.989853
659,1319,3.31064,-0.00823152,0.273337,0.989421
661,1317,3.30951,-0.0139295,0.274391,0.989335
663,1315,3.30947,-0.0143857,0.274776,0.988923
665,1313,3.30889,-0.0144021,0.27456,0.98889
667,1311,3.30887,-0.0147461,0.274564,0.98742
669,1309,3.30829,-0.0146925,0.274817,0.988744
671,1307,3.30883,-0.00995639,0.273757,0.988315
673,1305,3.30935,-0.00960637,0.273501,0.988502
675,1303,3.30849,-0.0153898,0.27456,0.988403
677,1301,3.30863,-0.00995851,0.27376,0.988348
679,1299,3.30902,-0.0106254,0.273758,0.988014
681,1297,3.30964,-0.0106067,0.273502,0.988033
683,1295,3.30975,-0.0105635,0.273503,0.988057
685,1293,3.30943,-0.0109991,0.273923,0.9876
687,1291,3.30837,-0.0110315,0.274179,0.987578
689,1289,3.30921,-0.0113358,0.273924,0.987436
691,1287,3.31049,-0.00825183,0.272792,0.987014
693,1285,3.31025,-0.00866361,0.272794,0.98681
695,1283,3.30955,-0.00899197,0.273305,0.98641
697,1281,3.30951,-0.00900075,0.273213,0.986409
699,1279,3.3092,-0.00894047,0.273211,0.986424
701,1277,3.30913,-0.00905785,0.273209,0.986373
703,1275,3.30844,-0.014725,0.274275,0.986346
705,1273,3.30904,-0.0147579,0.274019,0.986348
707,1271,3.30821,-0.01475,0.274278,0.98634
709,1269,3.30921,-0.010425,0.273377,0.985485
711,1267,3.30899,-0.0103957,0.27347,0.985506
713,1265,3.30987,-0.0103712,0.272957,0.985736
715,1263,3.31018,-0.0103003,0.272963,0.985798
717,1261,3.30925,-0.010735,0.273382,0.985344
719,1259,3.30941,-0.0131833,0.273736,0.984977
721,1257,3.30932,-0.0114086,0.273378,0.98501
723,1255,3.30849,-0.0113808,0.273634,0.985019
725,1253,3.30895,-0.0120926,0.27338,0.984674
727,1251,3.30944,-0.01338,0.273313,0.984876
729,1249,3.30923,-0.0138004,0.273479,0.98443
731,1247,3.30767,-0.0123241,0.27419,0.984312
733,1245,3.30781,-0.014604,0.274161,0.983803
735,1243,3.30872,-0.0144621,0.273479,0.9841
737,1241,3.3084,-0.0148074,0.273475,0.983923
739,1239,3.30774,-0.0147952,0.273735,0.983931
741,1237,3.30808,-0.0100639,0.27309,0.983261
743,1235,3.30758,-0.0155508,0.27416,0.983342
745,1233,3.30921,-0.0103229,0.272669,0.983361
747,1231,3.30844,-0.0154402,0.273734,0.983622
749,1229,3.30984,-0.0124738,0.272771,0.982915
751,1227,3.30829,-0.015875,0.273898,0.983175
753,1225,3.30838,-0.0161369,0.273901,0.983074
755,1223,3.30861,-0.0117981,0.273258,0.982206
757,1221,3.30914,-0.0134065,0.272772,0.98246
759,1219,3.30834,-0.0117514,0.272834,0.982449
761,1217,3.30952,-0.00835551,0.272044,0.982169
763,1215,3.30785,-0.0124606,0.272926,0.981884
765,1213,3.30744,-0.0124415,0.273258,0.981879
767,1211,3.30778,-0.0124656,0.27335,0.981878
769,1209,3.30904,-0.00982145,0.272291,0.980998
771,1207,3.30928,-0.00970752,0.271867,0.981274
773,1205,3.30937,-0.00972238,0.272144,0.981271
775,1203,3.30962,-0.0100081,0.271869,0.98113
777,1201,3.30885,-0.0104688,0.272544,0.980671
779,1199,3.30869,-0.0107849,0.272547,0.980525
781,1197,3.30817,-0.0155402,0.27336,0.980971
783,1195,3.30876,-0.0108204,0.272546,0.980512
785,1193,3.3095,-0.011437,0.27229,0.980196
787,1191,3.30964,-0.0131416,0.272228,0.980437
789,1189,3.30786,-0.0165666,0.273363,0.98046
791,1187,3.30884,-0.0135515,0.272652,0.979768
793,1185,3.30798,-0.0118662,0.272719,0.979776
795,1183,3.30892,-0.0142762,0.272401,0.97942
797,1181,3.30853,-0.0142301,0.272403,0.979447
799,1179,3.30721,-0.0125782,0.272718,0.979416
801,1177,3.30745,-0.0150315,0.27308,0.978831
803,1175,3.30794,-0.0146149,0.272657,0.979264
805,1173,3.30885,-0.0101778,0.271754,0.978441
807,1171,3.30895,-0.0102177,0.271748,0.978408
809,1169,3.30889,-0.0105437,0.27175,0.978248
811,1167,3.30851,-0.0104594,0.271999,0.978277
813,1165,3.30853,-0.0156567,0.272822,0.978533
815,1163,3.30902,-0.0107912,0.271746,0.978124
817,1161,3.30871,-0.0111533,0.271747,0.977996
819,1159,3.30854,-0.011109,0.271745,0.977961
821,1157,3.30998,-0.00846137,0.271033,0.977085
823,1155,3.30822,-0.0119538,0.272179,0.97735
825,1153,3.30754,-0.0126511,0.2726,0.976772
827,1151,3.30723,-0.0127491,0.272253,0.976709
829,1149,3.30761,-0.0126393,0.272176,0.977
831,1147,3.30923,-0.00956788,0.271207,0.976322
833,1145,3.3081,-0.0150679,0.272296,0.976442
835,1143,3.3086,-0.00988081,0.271209,0.976177
837,1141,3.3087,-0.00991981,0.271208,0.976155
839,1139,3.30886,-0.0105596,0.271205,0.975826
841,1137,3.30864,-0.0102379,0.271408,0.975996
843,1135,3.30758,-0.0160889,0.272539,0.975916
845,1133,3.30905,-0.0130265,0.271576,0.97524
847,1131,3.30905,-0.0109241,0.271202,0.975651
849,1129,3.30875,-0.0116272,0.271629,0.975085
851,1127,3.31027,-0.00815974,0.270484,0.974805
853,1125,3.30813,-0.0124252,0.272061,0.974472
855,1123,3.30945,-0.0137222,0.271315,0.974915
857,1121,3.30811,-0.0126241,0.271621,0.974582
859,1119,3.30797,-0.0144775,0.272,0.974305
861,1117,3.30794,-0.0148141,0.271999,0.974137
863,1115,3.30826,-0.0100712,0.271089,0.973423
865,1113,3.30722,-0.0151584,0.271993,0.973935
867,1111,3.30733,-0.0151032,0.271995,0.973983
869,1109,3.30698,-0.0158292,0.272424,0.973402
871,1107,3.30672,-0.0158403,0.272423,0.973387
873,1105,3.30696,-0.0158873,0.272427,0.973382
875,1103,3.30948,-0.0130791,0.271025,0.972781
877,1101,3.30818,-0.0116317,0.271338,0.972649
879,1099,3.30881,-0.0137527,0.271456,0.972237
881,1097,3.31017,-0.00817361,0.269938,0.972375
883,1095,3.30971,-0.00894926,0.270367,0.972017
885,1093,3.30951,-0.00926114,0.270362,0.971608
887,1091,3.30869,-0.0145181,0.271203,0.971872
889,1089,3.30808,-0.0145534,0.271454,0.971845
891,1087,3.30795,-0.0148089,0.271446,0.971715
893,1085,3.30678,-0.015265,0.271884,0.971277
895,1083,3.30703,-0.0158724,0.271882,0.970965
897,1081,3.30634,-0.0159926,0.272316,0.970696
899,1079,3.30679,-0.0158948,0.272282,0.969706
901,1077,3.30853,-0.0123825,0.270488,0.97072
903,1075,3.30872,-0.0131489,0.270485,0.970345
905,1073,3.30783,-0.0132692,0.270915,0.970056
907,1071,3.30849,-0.0131729,0.270483,0.970336
909,1069,3.30817,-0.0138583,0.270917,0.969782
911,1067,3.30836,-0.0139229,0.270916,0.969756
913,1065,3.30816,-0.0138589,0.270921,0.969799
915,1063,3.30813,-0.0141838,0.270915,0.969622
917,1061,3.30815,-0.0145355,0.271122,0.969461
919,1059,3.30872,-0.00957236,0.269817,0.969048
921,1057,3.30699,-0.0153019,0.271352,0.968873
923,1055,3.30803,-0.00992794,0.269823,0.968894
925,1053,3.30668,-0.0155836,0.271352,0.968751
927,1051,3.30656,-0.0163569,0.271523,0.968135
929,1049,3.30771,-0.0126184,0.270382,0.967986
931,1047,3.30711,-0.0114858,0.27043,0.967673
933,1045,3.30738,-0.0118352,0.270824,0.967506
935,1043,3.30789,-0.0135654,0.270375,0.967519
937,1041,3.30779,-0.0135663,0.270376,0.966048
939,1039,3.30867,-0.00864905,0.269367,0.96708
941,1037,3.30802,-0.0143093,0.270379,0.967182
943,1035,3.3075,-0.0145539,0.270373,0.967036
945,1033,3.3071,-0.0150343,0.270813,0.966596
947,1031,3.30769,-0.0149453,0.270377,0.966868
949,1029,3.3086,-0.0100185,0.269452,0.966211
951,1027,3.30692,-0.0153594,0.270811,0.966444
953,1025,3.30623,-0.0157078,0.271245,0.96604
955,1023,3.30687,-0.016019,0.270896,0.966113
957,1021,3.3086,-0.0133125,0.269835,0.965231
959,1019,3.30841,-0.0132953,0.269832,0.965231
961,1017,3.30781,-0.0136364,0.270264,0.964835
963,1015,3.3076,-0.0137284,0.270268,0.964787
965,1013,3.30722,-0.0140339,0.270474,0.964647
967,1011,3.30621,-0.0122528,0.270321,0.964651
969,1009,3.30738,-0.0147726,0.270015,0.964303
971,1007,3.30735,-0.0147041,0.27001,0.964331
973,1005,3.30726,-0.0150859,0.270013,0.964144
975,1003,3.30739,-0.00977099,0.26916,0.96388
977,1001,3.30655,-0.0154163,0.270266,0.963987
979,999,3.30667,-0.0157134,0.270268,0.963847
981,997,3.3068,-0.016032,0.270265,0.963694
983,995,3.30673,-0.0165255,0.270448,0.963244
985,993,3.30708,-0.0168667,0.270453,0.963094
987,991,3.30776,-0.0115518,0.269555,0.962842
989,989,3.30711,-0.0123378,0.269786,0.962228
991,987,3.30666,-0.0123567,0.269782,0.962216
993,985,3.30772,-0.0141546,0.269475,0.962203
995,983,3.30719,-0.0149681,0.270001,0.961578
997,981,3.30632,-0.0152008,0.270164,0.961446
999,979,3.30694,-0.0102466,0.269054,0.960981
1001,977,3.30688,-0.0102418,0.269054,0.960992
1003,975,3.30691,-0.0105199,0.269144,0.96086
1005,973,3.306,-0.0159461,0.270168,0.961087
1007,971,3.30681,-0.011274,0.269054,0.960497
1009,969,3.30592,-0.0170373,0.270344,0.960343
1011,967,3.30734,-0.0134864,0.269186,0.960062
1013,965,3.30739,-0.0137981,0.269181,0.959907
1015,963,3.30745,-0.0141132,0.269188,0.959779
1017,961,3.30731,-0.0140875,0.26918,0.959777
1019,959,3.30681,-0.0149592,0.269626,0.959148
1021,957,3.30649,-0.0149232,0.269617,0.959143
1023,955,3.30695,-0.0155897,0.269618,0.958824
1025,953,3.30647,-0.0155805,0.269617,0.958828
1027,951,3.3064,-0.0161001,0.269581,0.958388
1029,949,3.30672,-0.0110176,0.268946,0.957971
1031,947,3.30631,-0.0114143,0.268944,0.957752
1033,945,3.30658,-0.0136119,0.269089,0.957355
1035,943,3.30665,-0.0135821,0.269087,0.957603
1037,941,3.30634,-0.0135354,0.269082,0.95738
1039,939,3.30668,-0.0142882,0.269085,0.957028
1041,937,3.30631,-0.0143326,0.269088,0.957002
1043,935,3.3074,-0.00961091,0.267964,0.956415
1045,933,3.30652,-0.0149027,0.269084,0.956987
1047,931,3.30633,-0.0150246,0.269088,0.95668
1049,929,3.30634,-0.0153192,0.269086,0.956555
1051,927,3.30688,-0.0161109,0.269278,0.955968
1053,925,3.30594,-0.01643,0.269524,0.955786
1055,923,3.30778,-0.0132174,0.268104,0.955331
1057,921,3.30719,-0.013626,0.268547,0.954916
1059,919,3.30747,-0.0135752,0.268104,0.955167
1061,917,3.30668,-0.0143164,0.268547,0.954595
1063,915,3.30662,-0.0143088,0.268549,0.954599
1065,913,3.3069,-0.0142619,0.268291,0.954626
1067,911,3.30567,-0.0151557,0.26899,0.953953
1069,909,3.30549,-0.0151037,0.269337,0.953996
1071,907,3.30639,-0.010067,0.267863,0.953536
1073,905,3.3058,-0.0108388,0.268309,0.95297
1075,903,3.30669,-0.0111907,0.268051,0.952794
1077,901,3.30467,-0.0168859,0.269434,0.952696
1079,899,3.30697,-0.0132853,0.268004,0.952637
1081,897,3.30698,-0.0137173,0.268003,0.952445
1083,895,3.30596,-0.011372,0.26786,0.952925
1085,893,3.30652,-0.0136038,0.268002,0.952482
1087,891,3.30731,-0.0140652,0.267748,0.952271
1089,889,3.30709,-0.00925683,0.267318,0.951472
1091,887,3.30533,-0.0133512,0.268499,0.951562
1093,885,3.3065,-0.00969146,0.267314,0.951269
1095,883,3.30622,-0.0155444,0.268195,0.952765
1097,881,3.30692,-0.0104297,0.267064,0.950929
1099,879,3.30453,-0.0166569,0.268898,0.950607
1101,877,3.30557,-0.0111986,0.268111,0.950343
1103,875,3.30463,-0.0169675,0.268639,0.950459
1105,873,3.30563,-0.0138092,0.267756,0.949731
1107,871,3.30496,-0.0118837,0.267764,0.950012
1109,869,3.30481,-0.0122876,0.267949,0.9496
1111,867,3.30524,-0.0148947,0.267914,0.949226
1113,865,3.30478,-0.0133106,0.268034,0.949109
1115,863,3.30466,-0.0134035,0.267951,0.949076
1117,861,3.30648,-0.0101421,0.26652,0.948609
1119,859,3.30614,-0.0104041,0.266773,0.948488
1121,857,3.3053,-0.0162041,0.26791,0.948617
1123,855,3.30492,-0.0166833,0.267907,0.948162
1125,853,3.30682,-0.0137622,0.266922,0.947527
1127,851,3.30548,-0.0118907,0.267214,0.947553
1129,849,3.3054,-0.0126991,0.267408,0.946939
1131,847,3.30598,-0.0145348,0.26745,0.946943
1133,845,3.30643,-0.0152593,0.267117,0.946612
1135,843,3.30582,-0.00981142,0.266674,0.946074
1137,841,3.30566,-0.0105751,0.266676,0.945706
1139,839,3.30374,-0.0164712,0.268265,0.94558
1141,837,3.30424,-0.0162277,0.268013,0.945702
1143,835,3.3045,-0.0113069,0.267119,0.945126
1145,833,3.30402,-0.0168698,0.268358,0.945392
1147,831,3.30553,-0.0138543,0.266829,0.944803
1149,829,3.3055,-0.0138706,0.266828,0.944794
1151,827,3.30498,-0.0147013,0.267278,0.944181
1153,825,3.30571,-0.0146158,0.266829,0.944451
1155,823,3.30507,-0.0150197,0.267285,0.944297
1157,821,3.30487,-0.0153986,0.267272,0.943842
1159,819,3.30493,-0.0154154,0.267275,0.943863
1161,817,3.3044,-0.0162423,0.267732,0.943238
1163,815,3.30413,-0.0165834,0.267483,0.943085
1165,813,3.30406,-0.0169058,0.267726,0.94293
1167,811,3.30614,-0.0136109,0.266299,0.94248
1169,809,3.30582,-0.0139387,0.266291,0.942321
1171,807,3.30483,-0.0128775,0.266774,0.941723
1173,805,3.30495,-0.0147624,0.266744,0.941699
1175,803,3.30445,-0.014771,0.266745,0.941702
1177,801,3.30343,-0.0155225,0.267596,0.941118
1179,799,3.30446,-0.00998758,0.266033,0.940807
1181,797,3.30333,-0.0161777,0.267193,0.940819
1183,795,3.30308,-0.0162475,0.267196,0.940794
1185,793,3.30324,-0.0166891,0.267194,0.940588
1187,791,3.30556,-0.0132182,0.265744,0.940178
1189,789,3.30328,-0.0177966,0.267392,0.939848
1191,787,3.30506,-0.0144359,0.266203,0.939395
1193,785,3.30601,-0.00913999,0.26524,0.938976
1195,783,3.30449,-0.0147769,0.266197,0.939231
1197,781,3.30407,-0.0155907,0.266657,0.938646
1199,779,3.30418,-0.0162891,0.266652,0.938299
1201,777,3.30446,-0.0110952,0.265944,0.937851
1203,775,3.30376,-0.0167366,0.266853,0.937888
1205,773,3.30435,-0.0119373,0.265944,0.937212
1207,771,3.30533,-0.0141178,0.266004,0.937088
1209,769,3.30487,-0.0140688,0.265658,0.937099
1211,767,3.30487,-0.014978,0.265866,0.936468
1213,765,3.30329,-0.0130876,0.266152,0.936467
1215,763,3.30403,-0.0101148,0.26541,0.935586
1217,761,3.30315,-0.0160776,0.266917,0.935725
1219,759,3.30382,-0.010817,0.265408,0.935263
1221,757,3.30302,-0.0113331,0.265868,0.934796
1223,755,3.30342,-0.0172315,0.266319,0.935205
1225,753,3.30409,-0.0139208,0.26558,0.93447
1227,751,3.3036,-0.011876,0.265399,0.934779
1229,749,3.30269,-0.0123805,0.265727,0.934322
1231,747,3.3049,-0.0149943,0.265324,0.933997
1233,745,3.30342,-0.0157119,0.266037,0.93343
1235,743,3.30388,-0.0154073,0.265585,0.933823
1237,741,3.30499,-0.0107901,0.264609,0.93281
1239,739,3.30275,-0.0170652,0.266501,0.932569
1241,737,3.30476,-0.0112203,0.264608,0.931091
1243,735,3.30397,-0.0116939,0.265149,0.932168
1245,733,3.30384,-0.0121023,0.265072,0.931986
1247,731,3.30232,-0.018448,0.266242,0.931962
1249,729,3.30411,-0.0146736,0.265039,0.931656
1251,727,3.30429,-0.0101152,0.264319,0.930616
1253,725,3.3028,-0.0164011,0.265966,0.930418
1255,723,3.30334,-0.0109121,0.264783,0.930022
1257,721,3.30303,-0.0110109,0.264784,0.929982
1259,719,3.30213,-0.0174767,0.265698,0.92993
1261,717,3.30107,-0.0175895,0.266428,0.929643
1263,715,3.30394,-0.0136418,0.264505,0.92966
1265,713,3.30296,-0.0145056,0.264965,0.929021
1267,711,3.3034,-0.0148204,0.264965,0.928891
1269,709,3.30424,-0.00945076,0.264184,0.92842
1271,707,3.3035,-0.0155685,0.264962,0.928561
1273,705,3.30379,-0.0158559,0.264708,0.928422
1275,703,3.30306,-0.0162628,0.265162,0.928235
1277,701,3.3023,-0.0174957,0.26542,0.92743
1279,699,3.30302,-0.0118026,0.264234,0.927125
1281,697,3.30246,-0.0125557,0.264699,0.926561
1283,695,3.30229,-0.0126489,0.265113,0.926526
1285,693,3.30453,-0.00944449,0.263236,0.925943
1287,691,3.30266,-0.0156974,0.26489,0.925775
1289,689,3.3036,-0.0156269,0.264307,0.92605
1291,687,3.30144,-0.0169485,0.265351,0.924966
1293,685,3.30136,-0.017272,0.265353,0.924817
1295,683,3.30098,-0.0173244,0.265353,0.924806
1297,681,3.30229,-0.0122113,0.263913,0.924235
1299,679,3.3011,-0.0127617,0.264626,0.92374
1301,677,3.30228,-0.0150733,0.264352,0.923562
1303,675,3.30276,-0.0157517,0.264101,0.923262
1305,673,3.30222,-0.0157644,0.264102,0.923265
1307,671,3.30352,-0.0108259,0.262907,0.922842
1309,669,3.30174,-0.016976,0.264568,0.922508
1311,667,3.30132,-0.0173309,0.26482,0.922329
1313,665,3.302,-0.0177478,0.264568,0.922159
1315,663,3.30331,-0.0142579,0.263351,0.921698
1317,661,3.30248,-0.0126461,0.263372,0.921558
1319,659,3.30074,-0.0194229,0.265038,0.921182
1321,657,3.30139,-0.0134988,0.263837,0.920941
1323,655,3.3022,-0.0163359,0.264032,0.920297
1325,653,3.30306,-0.0108215,0.262829,0.919865
1327,651,3.30147,-0.0170751,0.264035,0.919983
1329,649,3.30162,-0.0174362,0.264033,0.919817
1331,647,3.30093,-0.0182925,0.264333,0.919182
1333,645,3.30226,-0.0147489,0.26328,0.918734
1335,643,3.30158,-0.0132655,0.263292,0.91851
1337,641,3.30231,-0.0099938,0.262534,0.917696
1339,639,3.30177,-0.0163724,0.263494,0.917764
1341,637,3.30199,-0.0104147,0.262539,0.917521
1343,635,3.30181,-0.0113815,0.26276,0.916858
1345,633,3.30012,-0.0179406,0.264224,0.916854
1347,631,3.30081,-0.0124993,0.263008,0.91635
1349,629,3.30131,-0.0152685,0.263214,0.915769
1351,627,3.30059,-0.0136943,0.263228,0.915598
1353,625,3.30061,-0.0140007,0.263225,0.915462
1355,623,3.30103,-0.0164113,0.263411,0.915266
1357,621,3.30073,-0.0163955,0.263214,0.915275
1359,619,3.30234,-0.0109049,0.261742,0.9148
1361,617,3.30034,-0.0171653,0.263211,0.914934
1363,615,3.30166,-0.0124814,0.262219,0.914105
1365,613,3.30107,-0.0129904,0.262691,0.913409
1367,611,3.30081,-0.0133976,0.262694,0.913244
1369,609,3.30098,-0.0136879,0.262687,0.913096
1371,607,3.30052,-0.0141204,0.262687,0.912908
1373,605,3.30219,-0.011368,0.26168,0.911849
1375,603,3.30071,-0.017673,0.262896,0.911973
1377,601,3.3011,-0.0121128,0.261675,0.911509
1379,599,3.30119,-0.0121795,0.261675,0.911488
1381,597,3.29953,-0.0129922,0.262406,0.910884
1383,595,3.30076,-0.0153793,0.26214,0.910693
1385,593,3.29971,-0.0158998,0.262615,0.910232
1387,591,3.2995,-0.0162371,0.262615,0.910082
1389,589,3.29899,-0.017522,0.263092,0.90927
1391,587,3.29936,-0.0174136,0.262616,0.909566
1393,585,3.29922,-0.0183095,0.262842,0.908946
1395,583,3.29905,-0.0189641,0.262842,0.908659
1397,581,3.29998,-0.0156486,0.262084,0.907836
1399,579,3.29978,-0.0134854,0.261685,0.908133
1401,577,3.29937,-0.0144083,0.262088,0.907499
1403,575,3.30071,-0.0106536,0.260848,0.907096
1405,573,3.30039,-0.011599,0.261325,0.906429
1407,571,3.301,-0.0114943,0.260847,0.906733
1409,569,3.29911,-0.0187204,0.262561,0.906255
1411,567,3.29954,-0.0186837,0.262303,0.906282
1413,565,3.29867,-0.0196099,0.262791,0.90564
1415,563,3.30104,-0.00995182,0.260305,0.904859
1417,561,3.30128,-0.0104115,0.260307,0.904667
1419,559,3.29907,-0.0172719,0.262027,0.90436
1421,557,3.29968,-0.0176653,0.261774,0.904192
1423,555,3.29881,-0.0185707,0.262252,0.903554
1425,553,3.29916,-0.0132314,0.26126,0.902949
1427,551,3.30021,-0.0153162,0.261005,0.902911
1429,549,3.29955,-0.0165964,0.261494,0.902118
1431,547,3.29907,-0.0165723,0.261491,0.902132
1433,545,3.29902,-0.0173533,0.261496,0.901809
1435,543,3.29807,-0.0183287,0.261977,0.901139
1437,541,3.29752,-0.018581,0.261976,0.90101
1439,539,3.29985,-0.014597,0.260889,0.900692
1441,537,3.29895,-0.0154559,0.260957,0.900068
1443,535,3.29935,-0.0163311,0.260961,0.899713
1445,533,3.29874,-0.0170619,0.260962,0.899398
1447,531,3.2982,-0.0175107,0.261445,0.898956
1449,529,3.29775,-0.0179086,0.261442,0.898775
1451,527,3.29777,-0.0183262,0.261445,0.89862
1453,525,3.29797,-0.0187944,0.261191,0.898421
1455,523,3.29971,-0.0154069,0.259937,0.897823
1457,521,3.29907,-0.0164088,0.260425,0.89714
1459,519,3.2982,-0.017212,0.26091,0.89655
1461,517,3.29843,-0.0176419,0.260911,0.896374
1463,515,3.29835,-0.0179717,0.260911,0.896227
1465,513,3.29925,-0.0183938,0.260655,0.896052
1467,511,3.29945,-0.0132149,0.26008,0.89509
1469,509,3.29958,-0.0159535,0.259885,0.894772
1471,507,3.29918,-0.0159564,0.259886,0.89479
1473,505,3.29965,-0.0110313,0.259105,0.893689
1475,503,3.29924,-0.0180655,0.260129,0.893656
1477,501,3.29726,-0.0186145,0.260873,0.893167
1479,499,3.29843,-0.0128238,0.259602,0.892699
1481,497,3.29748,-0.0199111,0.260616,0.892618
1483,495,3.29877,-0.0165688,0.25985,0.891751
1485,493,3.2983,-0.0165888,0.259843,0.89172
1487,491,3.29971,-0.0111599,0.258317,0.891083
1489,489,3.29717,-0.0183352,0.26034,0.890732
1491,487,3.2967,-0.0191016,0.260332,0.890399
1493,485,3.29708,-0.0133898,0.259558,0.88965
1495,483,3.2963,-0.0201616,0.260589,0.889742
1497,481,3.29913,-0.0104324,0.258222,0.888828
1499,479,3.29716,-0.0154693,0.259307,0.888778
1501,477,3.29847,-0.0121395,0.258273,0.887853
1503,475,3.29853,-0.0125556,0.25827,0.887672
1505,473,3.29814,-0.0132921,0.258269,0.887612
1507,471,3.29632,-0.0201781,0.260051,0.887179
1509,469,3.29779,-0.0167878,0.258779,0.886534
1511,467,3.29805,-0.0173034,0.258877,0.88633
1513,465,3.29667,-0.017791,0.25927,0.885847
1515,463,3.29802,-0.0116939,0.257488,0.885728
1517,461,3.29783,-0.0130214,0.257983,0.88491
1519,459,3.29806,-0.0156679,0.258248,0.884447
1521,457,3.29773,-0.0164089,0.258238,0.884099
1523,455,3.29847,-0.0168407,0.25799,0.883954
1525,453,3.29715,-0.0178217,0.258746,0.883285
1527,451,3.29711,-0.018215,0.258734,0.883106
1529,449,3.29596,-0.019567,0.259247,0.882311
1531,447,3.29714,-0.0140342,0.257944,0.881658
1533,445,3.29743,-0.014829,0.257694,0.88133
1535,443,3.29776,-0.017245,0.257705,0.881431
1537,441,3.29692,-0.0179338,0.258209,0.88067
1539,439,3.29632,-0.018629,0.258207,0.880359
1541,437,3.29571,-0.0195258,0.258712,0.87975
1543,435,3.29782,-0.0153187,0.25717,0.879414
1545,433,3.29764,-0.0161123,0.25717,0.879087
1547,431,3.29803,-0.011052,0.256365,0.877959
1549,429,3.29614,-0.0178458,0.257675,0.878114
1551,427,3.29681,-0.0124236,0.256873,0.877159
1553,425,3.29646,-0.013214,0.25687,0.876813
1555,423,3.29551,-0.0196451,0.257929,0.877129
1557,421,3.2968,-0.0162571,0.257144,0.875133
1559,419,3.29625,-0.0170945,0.257142,0.875833
1561,417,3.29554,-0.0180997,0.257648,0.875164
1563,415,3.29703,-0.0124747,0.256081,0.874524
1565,413,3.29414,-0.0199693,0.258166,0.87416
1567,411,3.29635,-0.0163728,0.256611,0.873538
1569,409,3.29445,-0.0141394,0.256871,0.873559
1571,407,3.29503,-0.0174352,0.257124,0.872866
1573,405,3.2949,-0.0180881,0.257115,0.872575
1575,403,3.29408,-0.0195219,0.257632,0.871752
1577,401,3.29332,-0.0199942,0.257633,0.871556
1579,399,3.29396,-0.0203804,0.257801,0.871395
1581,397,3.29605,-0.0108596,0.255255,0.86994
1583,395,3.29549,-0.0178875,0.256333,0.870071
1585,393,3.29344,-0.0183762,0.2571,0.869603
1587,391,3.29342,-0.019161,0.257098,0.869293
1589,389,3.2959,-0.0157131,0.255542,0.868605
1591,387,3.29483,-0.0166134,0.25605,0.867967
1593,385,3.29567,-0.0108799,0.25471,0.86731
1595,383,3.29333,-0.0185155,0.256568,0.866933
1597,381,3.29381,-0.0170538,0.256048,0.866606
1599,379,3.29464,-0.0204658,0.254972,0.865619
1601,377,3.29393,-0.0119606,0.255228,0.865445
1603,375,3.29466,-0.0242228,0.255065,0.86497
1605,373,3.29468,-0.023044,0.254753,0.864303
1607,371,3.29386,-0.0215625,0.25448,0.863936
1609,369,3.2933,-0.0224921,0.254483,0.863566
1611,367,3.29494,-0.0185445,0.253431,0.862808
1613,365,3.29546,-0.0176263,0.252919,0.862268
1615,363,3.29534,-0.0162453,0.252471,0.861902
1617,361,3.2943,-0.0171082,0.252917,0.861305
1619,359,3.29421,-0.018056,0.252923,0.860916
1621,357,3.29632,-0.0135972,0.251361,0.860627
1623,355,3.29566,-0.0234812,0.251356,0.860239
1625,353,3.29557,-0.0221423,0.25111,0.859619
1627,351,3.29527,-0.0192989,0.250334,0.858878
1629,349,3.29372,-0.022537,0.251353,0.858263
1631,347,3.29705,-0.0143116,0.24877,0.857613
1633,345,3.29621,-0.0153438,0.249282,0.856962
1635,343,3.29545,-0.0161408,0.249281,0.856633
1637,341,3.29467,-0.017171,0.250116,0.855958
1639,339,3.29431,-0.0181125,0.249783,0.855573
1641,337,3.29578,-0.0235747,0.24873,0.854673
1643,335,3.29541,-0.0244808,0.248731,0.854308
1645,333,3.29492,-0.0247832,0.248731,0.854188
1647,331,3.29444,-0.02387,0.248726,0.853378
1649,329,3.29392,-0.024812,0.248724,0.852978
1651,327,3.29452,-0.0190711,0.2482,0.852067
1653,325,3.29447,-0.0223433,0.248176,0.851395
1655,323,3.29437,-0.0208985,0.247673,0.851049
1657,321,3.29452,-0.0217552,0.247668,0.850701
1659,319,3.29327,-0.0228567,0.24817,0.849995
1661,317,3.29538,-0.0164102,0.246101,0.849345
1663,315,3.29586,-0.0172965,0.245857,0.849215
1665,313,3.29591,-0.00911264,0.244547,0.848547
1667,311,3.29387,-0.0168542,0.246095,0.848193
1669,309,3.29287,-0.0177975,0.246601,0.847568
1671,307,3.29295,-0.0281738,0.246355,0.847057
1673,305,3.29408,-0.0246862,0.245538,0.846103
1675,303,3.29541,-0.0164895,0.243651,0.845444
1677,301,3.29582,-0.0174257,0.243415,0.845081
1679,299,3.29377,-0.0184281,0.244148,0.844401
1681,297,3.29505,-0.0192024,0.243455,0.844064
1683,295,3.29446,-0.0180009,0.24346,0.843368
1685,293,3.29424,-0.0188139,0.243457,0.843046
1687,291,3.29412,-0.0196798,0.24351,0.842703
1689,289,3.29566,-0.016086,0.242386,0.841774
1691,287,3.29519,-0.0165925,0.242388,0.841579
1693,285,3.29504,-0.0174745,0.242386,0.84122
1695,283,3.29488,-0.0165624,0.242144,0.840412
1697,281,3.29318,-0.017568,0.242889,0.839762
1699,279,3.2956,-0.023539,0.241316,0.838944
1701,277,3.29507,-0.0239698,0.241311,0.838763
1703,275,3.29678,-0.013874,0.238918,0.837897
1705,273,3.29405,-0.0216711,0.240809,0.837556
1707,271,3.2935,-0.020941,0.24081,0.836664
1709,269,3.29562,-0.0166808,0.239236,0.836246
1711,267,3.29584,-0.0180384,0.239232,0.835707
1713,265,3.29471,-0.0166746,0.23923,0.835047
1715,263,3.29522,-0.0171179,0.239,0.834909
1717,261,3.2931,-0.0277413,0.239735,0.8341
1719,259,3.29462,-0.0198167,0.237831,0.833269
1721,257,3.29492,-0.0232226,0.238153,0.832814
1723,255,3.29444,-0.0235805,0.238153,0.832444
1725,253,3.29426,-0.0244383,0.238148,0.832109
1727,251,3.29666,-0.0184963,0.236081,0.8314
1729,249,3.29682,-0.0156894,0.235591,0.830381
1731,247,3.29502,-0.019079,0.236579,0.829754
1733,245,3.29491,-0.0175273,0.236076,0.829406
1735,243,3.29706,-0.0231799,0.234507,0.82874
1737,241,3.29605,-0.0241563,0.234998,0.828108
1739,239,3.29533,-0.0232117,0.234996,0.827535
1741,237,3.29505,-0.0237652,0.234996,0.827081
1743,235,3.2944,-0.0233211,0.234996,0.826061
1745,233,3.29614,-0.016843,0.233352,0.825624
1747,231,3.29606,-0.0200299,0.233423,0.825264
1749,229,3.29684,-0.0117366,0.231996,0.8243
1751,227,3.29529,-0.0200336,0.233416,0.824068
1753,225,3.29604,-0.0122466,0.231997,0.822921
1755,223,3.29648,-0.0242617,0.231841,0.822773
1757,221,3.29536,-0.0261647,0.23233,0.821789
1759,219,3.29493,-0.0265922,0.232327,0.821631
1761,217,3.29414,-0.0253189,0.232326,0.820928
1763,215,3.29503,-0.0196676,0.230898,0.820122
1765,213,3.29569,-0.0230076,0.231241,0.819512
1767,211,3.29689,-0.0150354,0.229311,0.818629
1769,209,3.2977,-0.0135997,0.228604,0.818269
1771,207,3.29479,-0.0219921,0.230514,0.817769
1773,205,3.29614,-0.0159341,0.229161,0.816799
1775,203,3.29745,-0.0123489,0.227987,0.816153
1777,201,3.29651,-0.0200797,0.227729,0.815851
1779,199,3.29482,-0.0188183,0.22942,0.815465
1781,197,3.29556,-0.0155208,0.228556,0.814376
1783,195,3.2955,-0.0259276,0.228555,0.814023
1785,193,3.29543,-0.0268391,0.22833,0.813682
1787,191,3.29616,-0.0188588,0.226887,0.812555
1789,189,3.29442,-0.0200001,0.227603,0.811883
1791,187,3.2972,-0.0137522,0.225526,0.811218
1793,185,3.29591,-0.0216774,0.226741,0.811186
1795,183,3.29463,-0.0203918,0.227128,0.810494
1797,181,3.29399,-0.0222612,0.227232,0.809544
1799,179,3.29646,-0.0180958,0.225643,0.809047
1801,177,3.29776,-0.00998107,0.223712,0.808206
1803,175,3.29583,-0.0109487,0.224823,0.80757
1805,173,3.29649,-0.0240857,0.224279,0.807092
1807,171,3.29618,-0.0247612,0.224542,0.806616
1809,169,3.29502,-0.026676,0.225023,0.805631
1811,167,3.2964,-0.0180833,0.223379,0.804959
1813,165,3.29637,-0.0190655,0.223074,0.804587
1815,163,3.29591,-0.015289,0.222593,0.803887
1817,161,3.29516,-0.0185799,0.223071,0.80359
1819,159,3.29646,-0.0129487,0.222108,0.802404
1821,157,3.2958,-0.0185645,0.222461,0.80235
1823,155,3.29502,-0.0154242,0.222183,0.801243
1825,153,3.2957,-0.0138494,0.221474,0.80089
1827,151,3.29566,-0.0172655,0.221833,0.800256
1829,149,3.2963,-0.0186872,0.220101,0.799382
1831,147,3.29605,-0.0201182,0.220358,0.798615
1833,145,3.29535,-0.0236018,0.220942,0.797954
1835,143,3.29725,-0.0166775,0.218983,0.79782
1837,141,3.29548,-0.0189019,0.219944,0.796493
1839,139,3.29642,-0.0192654,0.219346,0.796316
1841,137,3.29601,-0.0206429,0.219341,0.79579
1843,135,3.29564,-0.0196817,0.21934,0.794961
1845,133,3.29631,-0.0182553,0.218646,0.794557
1847,131,3.29713,-0.0145287,0.217748,0.793592
1849,129,3.29624,-0.0255173,0.217887,0.793121
1851,127,3.29613,-0.0266058,0.218006,0.792503
1853,125,3.29719,-0.0203503,0.216513,0.792031
1855,123,3.29624,-0.0193891,0.216726,0.790995
1857,121,3.29555,-0.0202911,0.216727,0.790654
1859,119,3.29638,-0.0238945,0.216883,0.789983
1861,117,3.29674,-0.0175452,0.216011,0.789347
1863,115,3.2952,-0.0234119,0.216879,0.788967
1865,113,3.29605,-0.015005,0.215116,0.788132
1867,111,3.29824,-0.00975504,0.213511,0.786778
1869,109,3.29797,-0.0101721,0.213514,0.78664
1871,107,3.295,-0.0281476,0.215011,0.78659
1873,105,3.29654,-0.0228458,0.21377,0.785344
1875,103,3.29562,-0.0264612,0.214362,0.784652
1877,101,3.29589,-0.0248526,0.213887,0.784315
1879,99,3.29512,-0.0257803,0.213887,0.783976
1881,97,3.29669,-0.0205556,0.21276,0.782362
1883,95,3.29702,-0.0191366,0.212285,0.781947
1885,93,3.29769,-0.0151676,0.211239,0.781352
1887,91,3.29605,-0.0215549,0.212543,0.780819
1889,89,3.2971,-0.0122781,0.210765,0.780285
1891,87,3.29971,-0.00821887,0.209161,0.779678
1893,85,3.29833,-0.0202193,0.209629,0.778659
1895,83,3.29519,-0.0284503,0.211615,0.778388
1897,81,3.29466,-0.0290897,0.211615,0.778151
1899,79,3.29463,-0.0281123,0.211544,0.777332
1901,77,3.29717,-0.0220863,0.20954,0.776489
1903,75,3.29549,-0.0252835,0.210481,0.776038
1905,73,3.29553,-0.0241561,0.210006,0.775493
1907,71,3.29491,-0.0256957,0.210268,0.774703
1909,69,3.29791,-0.0143564,0.2078,0.773465
1911,67,3.29583,-0.0208171,0.208866,0.773194
1913,65,3.29508,-0.0211327,0.208861,0.773063
1915,63,3.29558,-0.020734,0.208938,0.772039
1917,61,3.2967,-0.0266782,0.207253,0.7714
1919,59,3.29786,-0.0103281,0.206177,0.770458
1921,57,3.29459,-0.0190612,0.208192,0.770053
1923,55,3.29712,-0.024957,0.206574,0.769463
1925,53,3.29674,-0.0233502,0.206106,0.769076
1927,51,3.29497,-0.0255374,0.207045,0.767802
1929,49,3.29477,-0.0264661,0.207042,0.767482
1931,47,3.29535,-0.0201004,0.205954,0.766509
1933,45,3.29634,-0.0211072,0.20552,0.766107
1935,43,3.29604,-0.0220517,0.205419,0.765779
1937,41,3.29488,-0.0235757,0.205886,0.764987
1939,39,3.29423,-0.0240857,0.205886,0.764811
1941,37,3.29567,-0.016107,0.204331,0.763724
1943,35,3.29482,-0.0196859,0.204737,0.762846
1945,33,3.29468,-0.0281755,0.204262,0.762499
1947,31,3.29419,-0.029206,0.204261,0.762134
1949,29,3.29618,-0.0231687,0.20264,0.760996
1951,27,3.29461,-0.0273639,0.203578,0.760223
1953,25,3.29479,-0.0257744,0.2031,0.759831
1955,23,3.29603,-0.0167595,0.20153,0.758837
1957,21,3.296,-0.0213356,0.201945,0.757867
1959,19,3.29553,-0.0217949,0.20194,0.757705
1961,17,3.29452,-0.0234747,0.202424,0.756886
1963,15,3.29496,-0.0217978,0.201741,0.756534
1965,13,3.29663,-0.0154386,0.200316,0.755486
1967,11,3.29561,-0.0269382,0.200307,0.755048
1969,9,3.29506,-0.0259945,0.200309,0.754419
1971,7,3.29451,-0.0268914,0.20031,0.753884
1973,5,3.29611,-0.0230954,0.199143,0.752876
1975,3,3.29532,-0.0224873,0.19914,0.751881