File: hust_correlation_analysis/matrices/HUST_2-5_cycle_feature_matrix.csv
cycle_number,rul,voltage,current,capacity,charge_capacity
1,1388,3.32694,0.034079,0.268583,1.01994
3,1386,3.30491,-0.0192059,0.291713,0.981148
5,1384,3.30774,-0.019668,0.290341,0.984396
7,1382,3.30948,-0.0187957,0.288995,0.988207
9,1380,3.31046,-0.0201498,0.288874,0.990464
11,1378,3.3117,-0.020551,0.287736,0.993365
13,1376,3.31216,-0.0211966,0.287357,0.995904
15,1374,3.31376,-0.0183712,0.286029,0.997972
17,1372,3.31386,-0.0202866,0.286104,0.999649
19,1370,3.31503,-0.0189056,0.285236,1.0008
21,1368,3.31649,-0.0174621,0.283931,1.0022
23,1366,3.3155,-0.0199778,0.284457,1.00333
25,1364,3.3161,-0.0193295,0.284032,1.0039
27,1362,3.31685,-0.0185738,0.283606,1.00451
29,1360,3.31743,-0.0179593,0.282753,1.00528
31,1358,3.318,-0.0177859,0.281884,1.00579
33,1356,3.31804,-0.0178593,0.282472,1.00572
35,1354,3.31843,-0.017799,0.281444,1.00596
37,1352,3.31882,-0.0177026,0.28102,1.00622
39,1350,3.31909,-0.0177342,0.280597,1.00642
41,1348,3.31941,-0.0171043,0.280177,1.0072
43,1346,3.31939,-0.0170582,0.280173,1.00697
45,1344,3.31974,-0.0169965,0.279755,1.00722
47,1342,3.31956,-0.0170773,0.279752,1.00717
49,1340,3.32005,-0.0169132,0.279423,1.00745
51,1338,3.31982,-0.0169682,0.279325,1.00742
53,1336,3.31999,-0.0176121,0.279318,1.00708
55,1334,3.32008,-0.0175715,0.278911,1.00735
57,1332,3.31971,-0.0189645,0.279313,1.00765
59,1330,3.32018,-0.0183046,0.278907,1.00697
61,1328,3.3198,-0.0182676,0.278906,1.00698
63,1326,3.3193,-0.0189824,0.279315,1.00639
65,1324,3.31967,-0.0187778,0.278891,1.00669
67,1322,3.31987,-0.018869,0.279096,1.00662
69,1320,3.31948,-0.0188765,0.278881,1.00662
71,1318,3.3215,-0.0172156,0.277516,1.00682
73,1316,3.32104,-0.0180046,0.277929,1.0062
75,1314,3.32098,-0.0180054,0.277927,1.0062
77,1312,3.32104,-0.0179528,0.277514,1.00645
79,1310,3.32118,-0.0169296,0.277104,1.00593
81,1308,3.32083,-0.0188328,0.277517,1.00601
83,1306,3.32109,-0.0176086,0.277118,1.00564
85,1304,3.32097,-0.0181998,0.277207,1.00533
87,1302,3.32088,-0.0182288,0.277118,1.00513
89,1300,3.32115,-0.0188236,0.277108,1.00499
91,1298,3.32065,-0.0188636,0.277513,1.00474
93,1296,3.32043,-0.0189265,0.277731,1.0047
95,1294,3.32221,-0.017321,0.276558,1.00465
97,1292,3.32227,-0.0179522,0.276557,1.00432
99,1290,3.32204,-0.0179659,0.27665,1.00432
101,1288,3.3215,-0.0186786,0.276966,1.00373
103,1286,3.32186,-0.0186733,0.276556,1.00377
105,1284,3.32159,-0.0176597,0.276559,1.00323
107,1282,3.32144,-0.018351,0.27657,1.00291
109,1280,3.32122,-0.018344,0.276581,1.00294
111,1278,3.32155,-0.0189834,0.27657,1.0026
113,1276,3.3211,-0.0188954,0.276565,1.00114
115,1274,3.32085,-0.018877,0.276561,1.00263
117,1272,3.32255,-0.0163373,0.275602,1.00176
119,1270,3.3224,-0.0163969,0.276193,1.00163
121,1268,3.32201,-0.0163649,0.2756,1.00174
123,1266,3.32145,-0.0187182,0.276426,1.00137
125,1264,3.32135,-0.0187475,0.276425,1.00135
127,1262,3.32139,-0.0187602,0.276424,1.00135
129,1260,3.32094,-0.017806,0.276425,1.00057
131,1258,3.32092,-0.0184263,0.276439,1.0003
133,1256,3.32103,-0.018434,0.276439,1.0003
135,1254,3.32077,-0.0184792,0.276444,1.00029
137,1252,3.32058,-0.0190912,0.276444,0.999984
139,1250,3.32056,-0.0190785,0.27644,0.999986
141,1248,3.32212,-0.0165232,0.275478,0.999121
143,1246,3.32175,-0.0165329,0.27547,0.999094
145,1244,3.32149,-0.0172522,0.275887,0.998306
147,1242,3.32185,-0.0171348,0.275468,0.99903
149,1240,3.32155,-0.0171183,0.275466,0.998786
151,1238,3.32117,-0.0178474,0.275881,0.998214
153,1236,3.32156,-0.01774,0.275469,0.998489
155,1234,3.32113,-0.0177739,0.275887,0.99678
157,1232,3.321,-0.0185563,0.275903,0.997912
159,1230,3.32045,-0.0186344,0.276327,0.997682
161,1228,3.3207,-0.0191615,0.27633,0.997433
163,1226,3.32005,-0.0193077,0.276746,0.997125
165,1224,3.32207,-0.0166529,0.275376,0.996544
167,1222,3.32196,-0.016578,0.275583,0.996577
169,1220,3.32197,-0.0166134,0.275371,0.996558
171,1218,3.32144,-0.0172958,0.275787,0.995781
173,1216,3.3214,-0.0172728,0.275788,0.996008
175,1214,3.3215,-0.0173178,0.275787,0.99598
177,1212,3.32091,-0.0180021,0.276207,0.995418
179,1210,3.32081,-0.0180328,0.276491,0.995413
181,1208,3.32048,-0.0187809,0.276843,0.993468
183,1206,3.32044,-0.0187442,0.276635,0.99485
185,1204,3.31993,-0.0195069,0.277057,0.994271
187,1202,3.31975,-0.0194299,0.277057,0.994294
189,1200,3.31967,-0.0194563,0.27706,0.9943
191,1198,3.32123,-0.016848,0.276099,0.993461
193,1196,3.32103,-0.0168591,0.276099,0.993446
195,1194,3.32094,-0.016845,0.276096,0.993446
197,1192,3.32042,-0.0175817,0.276517,0.992846
199,1190,3.3206,-0.0175266,0.276095,0.993348
201,1188,3.32033,-0.0182273,0.276517,0.99253
203,1186,3.32026,-0.0182128,0.276517,0.992538
205,1184,3.31997,-0.0182316,0.276514,0.992523
207,1182,3.31957,-0.0189346,0.276938,0.991761
209,1180,3.31961,-0.0190005,0.276938,0.991917
211,1178,3.3194,-0.0189353,0.276939,0.991962
213,1176,3.31922,-0.0195852,0.276932,0.991609
215,1174,3.31927,-0.0193437,0.276905,0.991656
217,1172,3.32081,-0.016478,0.275971,0.990776
219,1170,3.32071,-0.016956,0.275974,0.990769
221,1168,3.32055,-0.0169394,0.275972,0.990767
223,1166,3.3207,-0.0176299,0.275967,0.990427
225,1164,3.32039,-0.0176317,0.275972,0.990424
227,1162,3.31982,-0.0176406,0.276393,0.990197
229,1160,3.31993,-0.0183569,0.276395,0.98985
231,1158,3.31967,-0.0183027,0.276395,0.989871
233,1156,3.3196,-0.0183194,0.276395,0.989866
235,1154,3.3192,-0.0190367,0.276821,0.989285
237,1152,3.31905,-0.0190346,0.276822,0.989289
239,1150,3.31895,-0.0197408,0.276822,0.988945
241,1148,3.31882,-0.0196793,0.276822,0.988982
243,1146,3.32097,-0.0163358,0.275433,0.988697
245,1144,3.32033,-0.0170456,0.275854,0.988109
247,1142,3.32013,-0.017031,0.27585,0.988114
249,1140,3.32018,-0.0176342,0.27585,0.987812
251,1138,3.31992,-0.0175443,0.275827,0.987784
253,1136,3.31979,-0.0175562,0.275818,0.98776
255,1134,3.31968,-0.0175998,0.275811,0.987717
257,1132,3.31919,-0.0192989,0.276232,0.987886
259,1130,3.31881,-0.0201207,0.276869,0.987269
261,1128,3.31887,-0.0196872,0.276726,0.987403
263,1126,3.31852,-0.0199803,0.276649,0.98729
265,1124,3.31796,-0.0199173,0.277053,0.986991
267,1122,3.31739,-0.0200386,0.277074,0.986984
269,1120,3.3176,-0.0206445,0.277479,0.986411
271,1118,3.31732,-0.0214882,0.277501,0.986084
273,1116,3.3171,-0.0214806,0.277503,0.98609
275,1114,3.31963,-0.0180061,0.275677,0.986076
277,1112,3.31918,-0.0187076,0.276314,0.984251
279,1110,3.319,-0.0187404,0.276101,0.985483
281,1108,3.31899,-0.0188018,0.276102,0.985459
283,1106,3.3183,-0.0194668,0.276527,0.984891
285,1104,3.31826,-0.0194348,0.276525,0.984896
287,1102,3.31855,-0.0200961,0.276531,0.984587
289,1100,3.31788,-0.0201626,0.276538,0.984582
291,1098,3.31739,-0.0209344,0.276975,0.984008
293,1096,3.31787,-0.0209185,0.276549,0.984278
295,1094,3.31802,-0.0215336,0.27655,0.98397
297,1092,3.31786,-0.0215817,0.276548,0.983951
299,1090,3.31953,-0.018881,0.275582,0.983114
301,1088,3.31962,-0.0188318,0.275573,0.983116
303,1086,3.31922,-0.0188652,0.27557,0.983091
305,1084,3.31881,-0.0196002,0.276002,0.982506
307,1082,3.31869,-0.0195937,0.275998,0.982487
309,1080,3.31851,-0.0195718,0.275999,0.982504
311,1078,3.31807,-0.0202869,0.276431,0.981927
313,1076,3.31811,-0.0202786,0.276431,0.981931
315,1074,3.31839,-0.0202331,0.276006,0.982202
317,1072,3.31775,-0.0210259,0.276449,0.981625
319,1070,3.31827,-0.0209321,0.276017,0.981906
321,1068,3.31761,-0.0216462,0.276451,0.981344
323,1066,3.31727,-0.0217138,0.276451,0.981324
325,1064,3.31945,-0.018963,0.275049,0.980715
327,1062,3.31879,-0.0190161,0.275473,0.980439
329,1060,3.31853,-0.0190656,0.275473,0.980408
331,1058,3.31864,-0.0196847,0.275472,0.980113
333,1056,3.31793,-0.0197778,0.275899,0.979817
335,1054,3.31808,-0.0196665,0.275462,0.980081
337,1052,3.31787,-0.0203988,0.275893,0.979487
339,1050,3.31769,-0.0203879,0.275895,0.979501
341,1048,3.31705,-0.020551,0.27634,0.97901
343,1046,3.31654,-0.0212688,0.276786,0.97868
345,1044,3.31714,-0.0212807,0.276349,0.978916
347,1042,3.31696,-0.0218907,0.27635,0.978632
349,1040,3.31689,-0.0218765,0.276351,0.978651
351,1038,3.31929,-0.0190884,0.274945,0.977987
353,1036,3.31885,-0.019055,0.274943,0.978053
355,1034,3.31827,-0.0191079,0.275377,0.977799
357,1032,3.31849,-0.0198243,0.275379,0.97746
359,1030,3.31822,-0.0197918,0.275377,0.977471
361,1028,3.31767,-0.0198201,0.275805,0.977205
363,1026,3.3179,-0.0205196,0.275803,0.976861
365,1024,3.31738,-0.020481,0.276082,0.976879
367,1022,3.31713,-0.0205358,0.275805,0.976871
369,1020,3.31715,-0.021205,0.276018,0.976566
371,1018,3.31659,-0.0195215,0.275817,0.976148
373,1016,3.31648,-0.0202049,0.275822,0.975835
375,1014,3.31854,-0.0168055,0.274423,0.975549
377,1012,3.31801,-0.0174706,0.274854,0.97499
379,1010,3.31793,-0.0174676,0.27485,0.974973
381,1008,3.31801,-0.0174818,0.275053,0.974951
383,1006,3.31719,-0.0181801,0.275282,0.974381
385,1004,3.31759,-0.0199463,0.275281,0.974792
387,1002,3.31769,-0.0200534,0.27528,0.974739
389,1000,3.31704,-0.020784,0.275719,0.97416
391,998,3.31686,-0.0207541,0.275717,0.974169
393,996,3.31716,-0.0214277,0.275717,0.973844
395,994,3.31652,-0.0215079,0.276159,0.973594
397,992,3.31669,-0.0203199,0.275726,0.973163
399,990,3.31659,-0.0203587,0.275739,0.973175
401,988,3.3184,-0.0168588,0.274331,0.972925
403,986,3.31785,-0.0176899,0.274775,0.972319
405,984,3.31769,-0.0177077,0.274774,0.972305
407,982,3.31713,-0.0184268,0.275217,0.971737
409,980,3.31685,-0.0184175,0.275214,0.971737
411,978,3.31709,-0.0190667,0.275212,0.971416
413,976,3.31677,-0.0189739,0.275208,0.971445
415,974,3.31624,-0.019066,0.275653,0.971178
417,972,3.31641,-0.0197842,0.275644,0.970816
419,970,3.31661,-0.0196617,0.275195,0.971093
421,968,3.31616,-0.0198272,0.275638,0.970791
423,966,3.3163,-0.020536,0.275658,0.970507
425,964,3.31779,-0.0177394,0.27469,0.969686
427,962,3.31713,-0.0177667,0.275132,0.969442
429,960,3.3177,-0.0177127,0.274693,0.969705
431,958,3.31696,-0.0184911,0.275138,0.96912
433,956,3.31681,-0.0185014,0.275138,0.969111
435,954,3.3165,-0.019387,0.27558,0.968462
437,952,3.3163,-0.019244,0.275134,0.968756
439,950,3.31612,-0.0191378,0.275128,0.968794
441,948,3.31582,-0.0199612,0.275568,0.966654
443,946,3.31503,-0.0200318,0.27601,0.967869
445,944,3.31543,-0.0198688,0.275557,0.968161
447,942,3.31497,-0.0207122,0.275997,0.967524
449,940,3.31533,-0.0206453,0.275549,0.967779
451,938,3.31731,-0.0178916,0.274878,0.966973
453,936,3.31704,-0.0178909,0.274604,0.966994
455,934,3.31659,-0.0186267,0.275054,0.966426
457,932,3.31646,-0.0186311,0.275057,0.966442
459,930,3.31577,-0.0193871,0.275503,0.965867
461,928,3.31549,-0.0194642,0.275498,0.965829
463,926,3.31557,-0.0194841,0.275719,0.96584
465,924,3.31528,-0.0200384,0.275508,0.965574
467,922,3.31457,-0.0202334,0.275955,0.965242
469,920,3.31469,-0.0208709,0.275948,0.964921
471,918,3.31442,-0.0208699,0.276231,0.964923
473,916,3.31454,-0.0209066,0.275947,0.964911
475,914,3.31688,-0.0180874,0.274517,0.964256
477,912,3.31648,-0.0180101,0.274514,0.964288
479,910,3.31607,-0.0187905,0.274966,0.963694
481,908,3.31611,-0.0187522,0.274975,0.963761
483,906,3.31576,-0.0194324,0.27498,0.963457
485,904,3.31516,-0.0195598,0.275438,0.963195
487,902,3.31505,-0.0202188,0.275439,0.962898
489,900,3.31479,-0.020086,0.275428,0.962924
491,898,3.31437,-0.0209355,0.27587,0.96227
493,896,3.31396,-0.020916,0.275864,0.962247
495,894,3.31374,-0.0209913,0.275862,0.962208
497,892,3.31628,-0.0180746,0.274425,0.961363
499,890,3.31592,-0.0180976,0.274427,0.961595
501,888,3.31553,-0.0187391,0.274873,0.961044
503,886,3.31549,-0.0188375,0.274866,0.960977
505,884,3.31498,-0.0188722,0.274866,0.960968
507,882,3.31484,-0.0195803,0.274982,0.960646
509,880,3.31483,-0.019611,0.274884,0.96067
511,878,3.31394,-0.020355,0.27533,0.960082
513,876,3.31387,-0.020295,0.27533,0.960105
515,874,3.31341,-0.0211352,0.275994,0.959491
517,872,3.31374,-0.0210624,0.275327,0.959749
519,870,3.31612,-0.0175026,0.27389,0.959436
521,868,3.3153,-0.0181911,0.274338,0.958869
523,866,3.31477,-0.018915,0.275406,0.958292
525,864,3.31469,-0.0189783,0.274252,0.958242
527,862,3.31468,-0.0189911,0.274333,0.958495
529,860,3.31408,-0.0196714,0.274779,0.957915
531,858,3.31393,-0.0196795,0.274776,0.957906
533,856,3.31322,-0.0204806,0.275229,0.957292
535,854,3.31382,-0.0203595,0.275056,0.957583
537,852,3.3136,-0.0211138,0.274782,0.957517
539,850,3.31513,-0.0184027,0.274265,0.956126
541,848,3.31501,-0.0184276,0.274274,0.956142
543,846,3.31438,-0.0191583,0.274822,0.955584
545,844,3.3147,-0.0190598,0.274279,0.955871
547,842,3.31427,-0.0190369,0.274273,0.955863
549,840,3.31363,-0.0198673,0.274726,0.955242
551,838,3.31367,-0.0198698,0.274721,0.955225
553,836,3.31332,-0.0204872,0.274721,0.954935
555,834,3.31331,-0.0204984,0.274715,0.954926
557,832,3.3129,-0.0213637,0.275172,0.954287
559,830,3.31497,-0.0184277,0.273733,0.95368
561,828,3.31491,-0.0184419,0.273735,0.953685
563,826,3.3141,-0.0192373,0.274194,0.953097
565,824,3.3137,-0.0192775,0.274201,0.951778
567,822,3.31381,-0.0200028,0.274829,0.952792
569,820,3.31303,-0.0200392,0.27467,0.952545
571,818,3.31307,-0.0207226,0.27467,0.952246
573,816,3.31306,-0.0207909,0.274675,0.952232
575,814,3.31254,-0.0215859,0.275134,0.951636
577,812,3.31473,-0.018571,0.27368,0.951016
579,810,3.31409,-0.0185801,0.273672,0.950988
581,808,3.31387,-0.0186442,0.273672,0.950965
583,806,3.31347,-0.0194292,0.274125,0.950571
585,804,3.31314,-0.0195397,0.274119,0.950273
587,802,3.31303,-0.0199509,0.274118,0.950068
589,800,3.31297,-0.0207419,0.274113,0.949709
591,798,3.31288,-0.0207103,0.274111,0.949716
593,796,3.31256,-0.0215611,0.27458,0.949112
595,794,3.31448,-0.0179142,0.273142,0.94885
597,792,3.31426,-0.0186824,0.273152,0.948533
599,790,3.31346,-0.0194715,0.273614,0.947944
601,788,3.31269,-0.0194992,0.274084,0.947709
603,786,3.31283,-0.0202979,0.274089,0.947368
605,784,3.31258,-0.0203107,0.274081,0.94867
607,782,3.31269,-0.0210251,0.274076,0.946999
609,780,3.31235,-0.0209136,0.274073,0.947035
611,778,3.31158,-0.0217177,0.274531,0.946425
613,776,3.31124,-0.0218106,0.27453,0.946375
615,774,3.31325,-0.0187795,0.273075,0.94578
617,772,3.31274,-0.01891,0.273624,0.94548
619,770,3.31299,-0.0195098,0.273072,0.945454
621,768,3.31268,-0.0196189,0.27354,0.945169
623,766,3.31245,-0.0203722,0.274022,0.944628
625,764,3.31194,-0.0211258,0.274034,0.944329
627,762,3.31155,-0.0220267,0.274512,0.943728
629,760,3.31099,-0.0219308,0.274512,0.943768
631,758,3.31291,-0.0189274,0.273521,0.942917
633,756,3.31316,-0.0188589,0.273051,0.943191
635,754,3.31256,-0.0197914,0.273522,0.942539
637,752,3.31272,-0.019774,0.273518,0.942535
639,750,3.31187,-0.0205616,0.274278,0.94195
641,748,3.31199,-0.020405,0.273511,0.942255
643,746,3.31112,-0.0212413,0.273989,0.941634
645,744,3.31035,-0.0220681,0.27446,0.941019
647,742,3.31038,-0.0220162,0.27446,0.941049
649,740,3.31273,-0.0191409,0.272996,0.940368
651,738,3.31237,-0.0199738,0.27347,0.939769
653,736,3.31199,-0.0198949,0.273475,0.939828
655,734,3.31126,-0.0207975,0.273967,0.93922
657,732,3.3107,-0.0207648,0.27396,0.939218
659,730,3.31081,-0.021379,0.27396,0.938941
661,728,3.31067,-0.0215081,0.273963,0.938901
663,726,3.31055,-0.0221964,0.273964,0.938595
665,724,3.31246,-0.0192108,0.272969,0.937716
667,722,3.3126,-0.0172615,0.272021,0.937839
669,720,3.31108,-0.0201341,0.274075,0.937076
671,718,3.31106,-0.0208236,0.273373,0.936775
673,716,3.31069,-0.0207727,0.273446,0.936793
675,714,3.31119,-0.019682,0.272968,0.93628
677,712,3.3105,-0.0204585,0.273445,0.935698
679,710,3.30999,-0.0204785,0.27344,0.935681
681,708,3.3114,-0.0175196,0.272443,0.93477
683,706,3.31137,-0.0182692,0.27245,0.934458
685,704,3.31136,-0.0218436,0.271491,0.934283
687,702,3.31065,-0.0266239,0.273068,0.934169
689,700,3.31113,-0.0247051,0.271967,0.934022
691,698,3.31035,-0.0254193,0.272441,0.933458
693,696,3.31027,-0.0242615,0.271962,0.932974
695,694,3.31162,-0.0186595,0.271919,0.933038
697,692,3.31123,-0.0212438,0.270961,0.932083
699,690,3.31163,-0.0200767,0.270484,0.931605
701,688,3.31111,-0.0220933,0.270956,0.93171
703,686,3.31096,-0.0189143,0.270479,0.930868
705,684,3.31004,-0.0217117,0.271426,0.930395
707,682,3.3097,-0.0256824,0.2719,0.930871
709,680,3.30927,-0.0224812,0.271501,0.930044
711,678,3.31161,-0.0166407,0.269468,0.929625
713,676,3.31143,-0.0251201,0.26947,0.929328
715,674,3.3111,-0.0239081,0.26947,0.928619
717,672,3.31081,-0.0228417,0.269466,0.927849
719,670,3.31053,-0.0190383,0.269951,0.928384
721,668,3.30974,-0.0198009,0.270422,0.927791
723,666,3.30884,-0.0284406,0.270899,0.927181
725,664,3.31183,-0.0205197,0.267996,0.926912
727,662,3.31104,-0.0234042,0.268942,0.926413
729,660,3.31081,-0.0201954,0.268462,0.925563
731,658,3.31037,-0.0209153,0.268458,0.925243
733,656,3.30955,-0.024961,0.269404,0.925461
735,654,3.30995,-0.0217329,0.268452,0.924878
737,652,3.3095,-0.0217106,0.268452,0.92489
739,650,3.30919,-0.0227196,0.268924,0.924207
741,648,3.31143,-0.0252987,0.267256,0.923507
743,646,3.31052,-0.0260404,0.267396,0.922939
745,644,3.31057,-0.0190765,0.26745,0.922598
747,642,3.3097,-0.0192077,0.267922,0.922302
749,640,3.30952,-0.0256766,0.267453,0.921904
751,638,3.30908,-0.0284171,0.267929,0.921734
753,636,3.31169,-0.0234895,0.266458,0.920688
755,634,3.31117,-0.0215129,0.265979,0.920521
757,632,3.31064,-0.0242252,0.266454,0.920362
759,630,3.30971,-0.0193002,0.267399,0.919844
761,628,3.30957,-0.0229435,0.266442,0.91965
763,626,3.30872,-0.0258713,0.267393,0.919147
765,624,3.30882,-0.0246769,0.266915,0.918668
767,622,3.31103,-0.0196419,0.265439,0.917635
769,620,3.31119,-0.019548,0.264963,0.917923
771,618,3.31017,-0.0224866,0.265916,0.917426
773,616,3.30919,-0.0232888,0.266392,0.916844
775,614,3.3092,-0.0212036,0.265922,0.916755
777,612,3.30951,-0.0201714,0.265454,0.916237
779,610,3.31121,-0.0228267,0.263973,0.915269
781,608,3.31072,-0.0255009,0.264444,0.91512
783,606,3.31029,-0.0263568,0.265064,0.914769
785,604,3.31002,-0.0187115,0.264922,0.914424
787,602,3.30958,-0.0193514,0.264923,0.914156
789,600,3.30877,-0.0281272,0.265396,0.913558
791,598,3.30875,-0.0269097,0.264918,0.913067
793,596,3.31071,-0.0217532,0.262815,0.91206
795,594,3.30965,-0.023806,0.263902,0.91218
797,592,3.3096,-0.0245923,0.263902,0.91184
799,590,3.30928,-0.0214022,0.263425,0.910963
801,588,3.3094,-0.0201454,0.262951,0.9105
803,586,3.30922,-0.0202027,0.262951,0.910476
805,584,3.30879,-0.0265285,0.262457,0.910085
807,582,3.31058,-0.0236403,0.261724,0.909132
809,580,3.30922,-0.0228008,0.263346,0.908876
811,578,3.30985,-0.0185614,0.261913,0.90891
813,576,3.30872,-0.0272756,0.262384,0.908346
815,574,3.3088,-0.028142,0.262383,0.907983
817,572,3.30794,-0.029146,0.262877,0.907377
819,570,3.31023,-0.0237624,0.260917,0.906697
821,568,3.30938,-0.0246808,0.261379,0.906053
823,566,3.30838,-0.0255545,0.261857,0.905447
825,564,3.30838,-0.023479,0.261375,0.905313
827,562,3.30876,-0.0241482,0.261178,0.905283
829,560,3.30877,-0.0210043,0.260427,0.904356
831,558,3.30998,-0.019927,0.259881,0.903612
833,556,3.30959,-0.020729,0.259877,0.903269
835,554,3.30926,-0.0207386,0.259881,0.903267
837,552,3.3085,-0.0275169,0.259871,0.902508
839,550,3.30828,-0.0281902,0.259877,0.902262
841,548,3.31042,-0.0230951,0.258391,0.901215
843,546,3.31016,-0.0238304,0.258393,0.900896
845,544,3.30945,-0.0266813,0.258869,0.900739
847,542,3.30886,-0.0195451,0.259349,0.900094
849,540,3.30825,-0.0244483,0.258879,0.899227
851,538,3.30856,-0.0243416,0.258408,0.899523
853,536,3.31023,-0.0211457,0.257576,0.898639
855,534,3.31023,-0.0180024,0.256722,0.897697
857,532,3.30916,-0.0229152,0.257855,0.897667
859,530,3.30816,-0.0258292,0.258788,0.897184
861,528,3.30769,-0.0226005,0.25831,0.896284
863,526,3.3085,-0.0204252,0.257368,0.896448
865,524,3.31029,-0.0252928,0.25588,0.895825
867,522,3.30943,-0.018153,0.256824,0.894945
869,520,3.30901,-0.0267984,0.256338,0.894933
871,518,3.30832,-0.0277406,0.256877,0.894296
873,516,3.30762,-0.0265513,0.256805,0.893547
875,514,3.30753,-0.0273113,0.256803,0.893238
877,512,3.31052,-0.0200598,0.25438,0.89231
879,510,3.30961,-0.0220477,0.254853,0.892311
881,508,3.3085,-0.0250241,0.255781,0.892009
883,506,3.3085,-0.0237443,0.255309,0.891536
885,504,3.30784,-0.0225397,0.255309,0.890778
887,502,3.30758,-0.0233118,0.255296,0.890444
889,500,3.30948,-0.0262506,0.253798,0.889367
891,498,3.30914,-0.0188687,0.253797,0.889066
893,496,3.30803,-0.0220092,0.25473,0.888518
895,494,3.30744,-0.0279406,0.254259,0.888417
897,492,3.3078,-0.0266247,0.253792,0.887966
899,490,3.31003,-0.0233894,0.252306,0.888632
901,488,3.30948,-0.0221317,0.252318,0.886674
903,486,3.30889,-0.0217077,0.252319,0.88565
905,484,3.30824,-0.0240293,0.252803,0.885721
907,482,3.30711,-0.0235772,0.253269,0.884434
909,480,3.31002,-0.0182877,0.251306,0.883657
911,478,3.3095,-0.0181777,0.25129,0.882281
913,476,3.30899,-0.0189883,0.251286,0.883324
915,474,3.30781,-0.022047,0.252214,0.882808
917,472,3.30718,-0.0287615,0.251739,0.882396
919,470,3.30737,-0.0214765,0.251736,0.882033
921,468,3.30933,-0.0223264,0.249774,0.880821
923,466,3.30859,-0.023204,0.250233,0.8802
925,464,3.3078,-0.0200354,0.251163,0.88016
927,462,3.30788,-0.0240362,0.25023,0.879871
929,460,3.30739,-0.0248101,0.250233,0.879577
931,458,3.30974,-0.0203931,0.248736,0.876737
933,456,3.30886,-0.0212916,0.249216,0.877619
935,454,3.30845,-0.0241845,0.249687,0.877487
937,452,3.30726,-0.025017,0.250149,0.876897
939,450,3.30768,-0.021627,0.249237,0.876315
941,448,3.30963,-0.0184814,0.248194,0.875379
943,446,3.30914,-0.0192627,0.248192,0.875063
945,444,3.3083,-0.020135,0.248649,0.874455
947,442,3.30783,-0.020969,0.248649,0.874377
949,440,3.30724,-0.0209246,0.248644,0.874138
951,438,3.30947,-0.0258612,0.247146,0.87355
953,436,3.30888,-0.0245837,0.247137,0.872785
955,434,3.30759,-0.0277448,0.248065,0.872277
957,432,3.30711,-0.0284567,0.248064,0.872238
959,430,3.30748,-0.0250216,0.247132,0.871377
961,428,3.30924,-0.0219361,0.246095,0.870431
963,426,3.30878,-0.0206668,0.246094,0.869699
965,424,3.30752,-0.024363,0.247033,0.869002
967,422,3.30739,-0.0223632,0.246573,0.868814
969,420,3.30733,-0.0210188,0.24611,0.86837
971,418,3.30906,-0.0261871,0.245069,0.867447
973,416,3.30863,-0.0186548,0.245073,0.867135
975,414,3.30834,-0.0194311,0.245069,0.866945
977,412,3.30696,-0.0286687,0.245533,0.866229
979,410,3.30692,-0.0294903,0.245595,0.865922
981,408,3.30913,-0.0220688,0.24356,0.864655
983,406,3.30838,-0.0248798,0.243621,0.864538
985,404,3.30697,-0.0279771,0.244932,0.864048
987,402,3.30667,-0.024483,0.244465,0.863181
989,400,3.30662,-0.0255132,0.244475,0.86281
991,398,3.30898,-0.0198987,0.242497,0.862074
993,396,3.30755,-0.0230208,0.243423,0.861597
995,394,3.30753,-0.0217417,0.242959,0.861114
997,392,3.3069,-0.0204285,0.242951,0.860373
999,390,3.30618,-0.0306002,0.243424,0.859462
1001,388,3.30802,-0.027108,0.241912,0.858897
1003,386,3.30704,-0.0239678,0.243311,0.858569
1005,384,3.30676,-0.0206044,0.242851,0.857658
1007,382,3.30625,-0.0299441,0.242834,0.857316
1009,380,3.30554,-0.0306607,0.242839,0.857042
1011,378,3.30732,-0.0275807,0.241793,0.856076
1013,376,3.30685,-0.0261002,0.241327,0.855654
1015,374,3.30696,-0.0269507,0.241319,0.855324
1017,372,3.3063,-0.0256899,0.241312,0.854552
1019,370,3.3057,-0.0264621,0.241308,0.854249
1021,368,3.30738,-0.0210631,0.240394,0.853153
1023,366,3.30694,-0.0198451,0.239791,0.852384
1025,364,3.30683,-0.0207353,0.239788,0.852046
1027,362,3.30646,-0.0276865,0.239313,0.851622
1029,360,3.30476,-0.024581,0.240961,0.851255
1031,358,3.30744,-0.0230878,0.237797,0.850212
1033,356,3.30671,-0.0263162,0.238731,0.849765
1035,354,3.30683,-0.0226807,0.237811,0.849168
1037,352,3.30561,-0.0265885,0.238727,0.848427
1039,350,3.30709,-0.0233847,0.237672,0.847477
1041,348,3.30713,-0.0219611,0.237209,0.846869
1043,346,3.30679,-0.0208022,0.237214,0.846264
1045,344,3.3059,-0.0237411,0.237674,0.846141
1047,342,3.30565,-0.022338,0.23721,0.845677
1049,340,3.30698,-0.0275542,0.236149,0.844775
1051,338,3.30719,-0.0262621,0.235685,0.844267
1053,336,3.30593,-0.029419,0.236604,0.843817
1055,334,3.30571,-0.0216844,0.236602,0.843483
1057,332,3.30732,-0.0246706,0.23525,0.842453
1059,330,3.30761,-0.0234392,0.23462,0.841925
1061,328,3.30634,-0.0265525,0.23554,0.841501
1063,326,3.30555,-0.0296308,0.236005,0.841345
1065,324,3.30553,-0.0246576,0.235084,0.840019
1067,322,3.30759,-0.0215111,0.234041,0.839081
1069,320,3.30747,-0.020159,0.233591,0.838638
1071,318,3.30566,-0.0254901,0.234966,0.838358
1073,316,3.30574,-0.0218325,0.234038,0.837735
1075,314,3.30829,-0.0184367,0.232512,0.83561
1077,312,3.30686,-0.0280125,0.232967,0.836495
1079,310,3.30618,-0.0202648,0.233418,0.835867
1081,308,3.30518,-0.0296579,0.233412,0.835607
1083,306,3.30551,-0.0283926,0.232955,0.835103
1085,304,3.30691,-0.0250028,0.23248,0.834191
1087,302,3.30626,-0.0280971,0.232337,0.834024
1089,300,3.3059,-0.0253945,0.231875,0.832787
1091,298,3.30561,-0.0243057,0.231874,0.831955
1093,296,3.30507,-0.0250997,0.23187,0.831656
1095,294,3.30665,-0.0217116,0.230801,0.83074
1097,292,3.30622,-0.0201278,0.230585,0.830303
1099,290,3.30594,-0.0277452,0.230341,0.829526
1101,288,3.30531,-0.0220233,0.230801,0.829413
1103,286,3.30696,-0.0187095,0.229737,0.82849
1105,284,3.30645,-0.0290596,0.229737,0.82794
1107,282,3.30619,-0.0256038,0.229277,0.826972
1109,280,3.30547,-0.0287242,0.229734,0.826826
1111,278,3.30387,-0.0319443,0.230646,0.826369
1113,276,3.30682,-0.0261151,0.228649,0.825598
1115,274,3.30629,-0.0226607,0.228191,0.824633
1117,272,3.30532,-0.028068,0.229104,0.824637
1119,270,3.304536,-0.0244155,0.228644,0.823738
1121,268,3.30725,-0.0210016,0.227109,0.823081
1123,266,3.30617,-0.0284518,0.227109,0.822339
1125,264,3.30528,-0.0250812,0.228018,0.822309
1127,262,3.3046,-0.0311018,0.227561,0.821133
1129,260,3.30754,-0.0254455,0.225571,0.82031
1131,258,3.30641,-0.0262346,0.226015,0.819736
1133,256,3.30602,-0.0205422,0.226474,0.819576
1135,254,3.30517,-0.0281892,0.226475,0.818799
1137,252,3.30508,-0.0266874,0.226019,0.818365
1139,250,3.30616,-0.0256168,0.225641,0.817574
1141,248,3.30595,-0.0241128,0.22493,0.817126
1143,246,3.30544,-0.0256965,0.225392,0.816332
1145,244,3.30476,-0.0247101,0.225394,0.815463
1147,242,3.30624,-0.025813,0.224771,0.815147
1149,240,3.30591,-0.022149,0.224311,0.814235
1151,238,3.30599,-0.0207507,0.223855,0.813762
1153,236,3.30535,-0.0216517,0.223856,0.813452
1155,234,3.30408,-0.0225993,0.224312,0.812853
1157,232,3.30573,-0.0289907,0.223228,0.811639
1159,230,3.30613,-0.0251716,0.222314,0.811273
1161,228,3.30437,-0.0309568,0.223682,0.810694
1163,226,3.30451,-0.0271124,0.22277,0.810091
1165,224,3.30659,-0.0238208,0.221687,0.80913
1167,222,3.30637,-0.0223211,0.221238,0.808701
1169,220,3.30506,-0.0264093,0.222739,0.807999
1171,218,3.30535,-0.0226104,0.221237,0.807377
1173,216,3.30434,-0.03261,0.221693,0.806789
1175,214,3.30644,-0.0223995,0.220601,0.806305
1177,212,3.30526,-0.0300511,0.220598,0.805557
1179,210,3.30509,-0.0309892,0.220593,0.805216
1181,208,3.30443,-0.0296494,0.220589,0.804443
1183,206,3.30614,-0.0283028,0.21949,0.804235
1185,204,3.30555,-0.02703,0.219488,0.803204
1187,202,3.30575,-0.025583,0.219032,0.802713
1189,200,3.30429,-0.031114,0.21993,0.802736
1191,198,3.30333,-0.028397,0.219924,0.801197
1193,196,3.3058,-0.0248938,0.218376,0.800537
1195,194,3.30583,-0.0210039,0.217471,0.799937
1197,192,3.3044,-0.0242753,0.218369,0.79951
1199,190,3.30452,-0.0228507,0.217917,0.799038
1201,188,3.30618,-0.0285786,0.217073,0.798104
1203,186,3.30506,-0.0237359,0.217735,0.79735
1205,184,3.30491,-0.0290229,0.216838,0.796767
1207,182,3.30436,-0.0277778,0.216833,0.795949
1209,180,3.30621,-0.0264759,0.215736,0.795517
1211,178,3.30523,-0.0250519,0.215727,0.794749
1213,176,3.3053,-0.0260353,0.215726,0.79442
1215,174,3.30474,-0.0255494,0.215726,0.793351
1217,172,3.30337,-0.0310625,0.216619,0.793381
1219,170,3.30593,-0.0204672,0.214159,0.791935
1221,168,3.30551,-0.0305421,0.214155,0.791639
1223,166,3.30501,-0.0221702,0.214149,0.791341
1225,164,3.30361,-0.0323279,0.214589,0.790748
1227,162,3.30607,-0.0273783,0.213031,0.789323
1229,160,3.3057,-0.0258471,0.212581,0.788863
1231,158,3.30444,-0.0268203,0.213025,0.788256
1233,156,3.30427,-0.0276972,0.213018,0.787963
1235,154,3.30676,-0.0195023,0.211599,0.786641
1237,152,3.30491,-0.0298559,0.212804,0.787044
1239,150,3.30558,-0.0236173,0.211464,0.786244
1241,148,3.30397,-0.032542,0.211907,0.78511
1243,146,3.30389,-0.0241913,0.211906,0.784547
1245,144,3.3053,-0.020566,0.210793,0.783636
1247,142,3.30529,-0.030828,0.21079,0.783339
1249,140,3.30454,-0.0317276,0.210788,0.783034
1251,138,3.30356,-0.0303384,0.210787,0.782252
1253,136,3.30609,-0.0266341,0.209222,0.781623
1255,134,3.30592,-0.0237046,0.209012,0.780385
1257,132,3.30348,-0.0320374,0.210551,0.780248
1259,130,3.30431,-0.0256518,0.209209,0.779461
1261,128,3.30381,-0.026552,0.209207,0.779153
1263,126,3.30519,-0.0254746,0.208529,0.778348
1265,124,3.30513,-0.0238361,0.208086,0.777934
1267,122,3.30467,-0.0227096,0.20808,0.777053
1269,120,3.30361,-0.0258894,0.208523,0.776973
1271,118,3.30504,-0.0291674,0.206956,0.7759
1273,116,3.30528,-0.0310576,0.206957,0.775293
1275,114,3.30503,-0.0320257,0.206961,0.775013
1277,112,3.3031,-0.0238407,0.207854,0.774063
1279,110,3.30598,-0.0295672,0.206285,0.773464
1281,108,3.30517,-0.0303756,0.206287,0.773214
1283,106,3.30415,-0.0323434,0.206732,0.772306
1285,104,3.30359,-0.0310139,0.206728,0.771502
1287,102,3.30374,-0.0269546,0.205837,0.769529
1289,100,3.30459,-0.0282831,0.205592,0.770248
1291,98,3.30533,-0.0217998,0.204259,0.769457
1293,96,3.30481,-0.0226514,0.204257,0.769421
1295,94,3.30313,-0.0287455,0.205579,0.768846
1297,92,3.30527,-0.0209558,0.203558,0.767315
1299,90,3.30517,-0.0290412,0.20312,0.766829
1301,88,3.30402,-0.0229738,0.203998,0.766386
1303,86,3.30351,-0.0309582,0.203555,0.765941
1305,84,3.30552,-0.0273601,0.202418,0.764976
1307,82,3.30488,-0.02827,0.202417,0.764935
1309,80,3.30395,-0.0268893,0.202416,0.763898
1311,78,3.30482,-0.0239303,0.201543,0.762939
1313,76,3.30252,-0.0323811,0.203308,0.762863
1315,74,3.30481,-0.0237475,0.201285,0.76159
1317,72,3.30521,-0.0222542,0.201417,0.761114
1319,70,3.3042,-0.0255989,0.201284,0.761018
1321,68,3.30298,-0.0347004,0.201281,0.759946
1323,66,3.30524,-0.031078,0.20014,0.758998
1325,64,3.30453,-0.0321307,0.200135,0.75866
1327,62,3.30341,-0.0330679,0.200574,0.75809
1329,60,3.3038,-0.0290065,0.199695,0.757453
1331,58,3.30535,-0.026206,0.198549,0.756222
1333,56,3.30509,-0.027104,0.198458,0.755939
1335,54,3.3039,-0.0307944,0.199424,0.755467
1337,52,3.30406,-0.0266411,0.198543,0.754844
1339,50,3.30551,-0.0228489,0.197394,0.753918
1341,48,3.30551,-0.0238741,0.197393,0.753603
1343,46,3.30533,-0.0222491,0.196956,0.753157
1345,44,3.30367,-0.0339507,0.197391,0.752272
1347,42,3.30302,-0.0351082,0.197828,0.751644
1349,40,3.30541,-0.0312566,0.196241,0.751026
1351,38,3.30421,-0.0323696,0.196674,0.750403
1353,36,3.30402,-0.0333139,0.196673,0.750117
1355,34,3.30415,-0.0291856,0.195803,0.749482
1357,32,3.30535,-0.0288557,0.195095,0.748443
1359,30,3.30503,-0.027499,0.19508,0.74763
1361,28,3.30483,-0.0257488,0.194642,0.747212
1363,26,3.30313,-0.0295158,0.196079,0.746722
1365,24,3.3064,-0.0230861,0.193482,0.745923
1367,22,3.30598,-0.0214927,0.19305,0.745469
1369,20,3.30446,-0.0251016,0.193914,0.74503
1371,18,3.30419,-0.0246892,0.193915,0.743936
1373,16,3.30316,-0.0353907,0.193911,0.743688
1375,14,3.30476,-0.0316072,0.192748,0.742748
1377,12,3.3049,-0.0326745,0.192748,0.742425
1379,10,3.30415,-0.0335163,0.192747,0.742175
1381,8,3.30262,-0.0332304,0.193182,0.74075
1383,6,3.30583,-0.0266834,0.191151,0.739966
1385,4,3.30488,-0.030312,0.191591,0.739817
1386,3,3.30469,-0.0302955,0.19158,0.739798