File: hust_correlation_analysis/matrices/HUST_10-2_cycle_feature_matrix.csv
cycle_number,rul,voltage,current,capacity,charge_capacity
1,1699,3.31987,0.0102124,0.264849,1.0254
3,1697,3.30015,-0.0231996,0.279122,1.00329
5,1695,3.30177,-0.0230418,0.278408,1.0065
7,1693,3.30296,-0.0235101,0.277714,1.0094
9,1691,3.30471,-0.0238848,0.277039,1.01232
11,1689,3.30705,-0.0211049,0.275789,1.01439
13,1687,3.30737,-0.0230141,0.275965,1.01606
15,1685,3.30802,-0.0222734,0.275555,1.01696
17,1683,3.30826,-0.0221943,0.274324,1.01744
19,1681,3.30886,-0.0216161,0.273914,1.01796
21,1679,3.30908,-0.0215401,0.273507,1.01825
23,1677,3.31068,-0.0208307,0.2727,1.01908
25,1675,3.3117,-0.0200239,0.272263,1.01994
27,1673,3.31138,-0.0200929,0.271898,1.01994
29,1671,3.31218,-0.0200083,0.271097,1.02045
31,1669,3.31166,-0.020721,0.271495,1.01987
33,1667,3.31186,-0.0205952,0.271094,1.02016
35,1665,3.31222,-0.020667,0.270696,1.02037
37,1663,3.31307,-0.0177304,0.269633,1.01995
39,1661,3.31247,-0.021267,0.270693,1.02007
41,1659,3.3122,-0.0212954,0.270965,1.02007
43,1657,3.31158,-0.0216704,0.270693,1.01987
45,1655,3.31248,-0.0213162,0.270299,1.02028
47,1653,3.31357,-0.0187089,0.269236,1.01971
49,1651,3.31263,-0.0217522,0.270294,1.02008
51,1649,3.31414,-0.0194388,0.269294,1.01913
53,1647,3.31316,-0.0194452,0.269294,1.01913
55,1645,3.3121,-0.0196615,0.269628,1.01902
57,1643,3.31225,-0.0203632,0.269627,1.01867
59,1641,3.31408,-0.0205982,0.268897,1.01879
61,1639,3.31387,-0.0206939,0.269296,1.01852
63,1637,3.31434,-0.0180554,0.268229,1.01795
65,1635,3.31308,-0.0213139,0.269293,1.01821
67,1633,3.31212,-0.0220283,0.269687,1.01761
69,1631,3.31209,-0.0220367,0.269689,1.01762
71,1629,3.31477,-0.0187757,0.267895,1.0176
73,1627,3.31415,-0.0191485,0.268292,1.01718
75,1625,3.31481,-0.0199772,0.268291,1.01678
77,1623,3.31364,-0.0201322,0.268685,1.01647
79,1621,3.31325,-0.0208224,0.268683,1.01612
81,1619,3.31367,-0.021454,0.269093,1.01582
83,1617,3.31351,-0.0213805,0.268685,1.01586
85,1615,3.3136,-0.0213501,0.268685,1.0146
87,1613,3.3124,-0.0220251,0.269081,1.01531
89,1611,3.31421,-0.0188661,0.267683,1.015
91,1609,3.31483,-0.0195194,0.267682,1.01468
93,1607,3.314,-0.0195602,0.268078,1.01442
95,1605,3.31443,-0.0201835,0.268079,1.01438
97,1603,3.31385,-0.0201658,0.268078,1.01412
99,1601,3.31326,-0.0208391,0.268475,1.01356
101,1599,3.31292,-0.0209843,0.268476,1.01347
103,1597,3.31266,-0.021554,0.268471,1.0132
105,1595,3.31307,-0.0216321,0.268478,1.01318
107,1593,3.31334,-0.0215192,0.268848,1.01325
109,1591,3.31323,-0.0221438,0.268875,1.0127
111,1589,3.31461,-0.0189411,0.267472,1.01241
113,1587,3.3141,-0.0196023,0.267471,1.01208
115,1585,3.3137,-0.0197817,0.267973,1.01177
117,1583,3.31316,-0.020305,0.267865,1.01019
119,1581,3.31333,-0.0201945,0.267868,1.01155
121,1579,3.31371,-0.0203158,0.267871,1.01149
123,1577,3.31353,-0.0207888,0.267867,1.01126
125,1575,3.31307,-0.0210011,0.268268,1.01093
127,1573,3.31228,-0.0217623,0.268673,1.01032
129,1571,3.31292,-0.0216196,0.268271,1.01063
131,1569,3.31245,-0.0223521,0.26867,1.01004
133,1567,3.31243,-0.0222868,0.26867,1.01006
135,1565,3.31428,-0.0190591,0.267358,1.00976
137,1563,3.31347,-0.0197833,0.267663,1.00919
139,1561,3.31343,-0.0198278,0.267664,1.00916
141,1559,3.3128,-0.0197697,0.267663,1.00919
143,1557,3.31329,-0.0203709,0.267664,1.0089
145,1555,3.31355,-0.0203524,0.267663,1.0089
147,1553,3.31317,-0.0210759,0.268066,1.00831
149,1551,3.31299,-0.0210865,0.268062,1.00831
151,1549,3.31259,-0.0211089,0.268064,1.00831
153,1547,3.3119,-0.0218123,0.268468,1.00772
155,1545,3.3116,-0.0217884,0.268466,1.00773
157,1543,3.31144,-0.0225672,0.268872,1.00713
159,1541,3.31199,-0.0224475,0.268467,1.00742
161,1539,3.3139,-0.0191593,0.267057,1.00715
163,1537,3.31386,-0.0196151,0.267459,1.0067
165,1535,3.31338,-0.0198552,0.267458,1.00657
167,1533,3.3128,-0.019955,0.26786,1.00628
169,1531,3.31273,-0.0205775,0.267862,1.00599
171,1529,3.31256,-0.0205481,0.267861,1.00601
173,1527,3.31268,-0.0211438,0.267859,1.0057
175,1525,3.31194,-0.0212543,0.268265,1.00541
177,1523,3.31205,-0.0213255,0.268267,1.00539
179,1521,3.31181,-0.021942,0.268263,1.00507
181,1519,3.3118,-0.0219565,0.268265,1.00507
183,1517,3.31161,-0.0219077,0.268266,1.0051
185,1515,3.31178,-0.0225352,0.268672,1.00457
187,1513,3.31176,-0.022611,0.268672,1.00452
189,1511,3.31102,-0.02261,0.269079,1.00429
191,1509,3.31376,-0.0199079,0.267252,1.00395
193,1507,3.31333,-0.0199561,0.267252,1.00392
195,1505,3.31242,-0.019983,0.268064,1.00367
197,1503,3.31151,-0.0207753,0.268065,1.00305
199,1501,3.31192,-0.0207004,0.267659,1.00333
201,1499,3.31208,-0.0206601,0.267658,1.00335
203,1497,3.31186,-0.0213708,0.268064,1.00278
205,1495,3.31199,-0.0213534,0.268065,1.00278
207,1493,3.31183,-0.0213382,0.268064,1.0028
209,1491,3.31214,-0.0219452,0.268061,1.00249
211,1489,3.31091,-0.022069,0.268468,1.00218
213,1487,3.31086,-0.0220729,0.268468,1.00217
215,1485,3.3118,-0.0220793,0.26806,1.00241
217,1483,3.31075,-0.0227162,0.268462,1.00188
219,1481,3.31084,-0.0227703,0.268473,1.00185
221,1479,3.31221,-0.0195414,0.267457,1.00129
223,1477,3.31217,-0.0201067,0.267457,1.00102
225,1475,3.31157,-0.0201256,0.267454,1.00124
227,1473,3.31151,-0.0200871,0.267458,1.00103
229,1471,3.31193,-0.020207,0.267456,1.00098
231,1469,3.31135,-0.0208781,0.267866,1.00042
233,1467,3.31219,-0.020793,0.267827,1.00069
235,1465,3.31179,-0.0208499,0.267869,1.00044
237,1463,3.3122,-0.0214831,0.267867,1.00012
239,1461,3.31126,-0.0215056,0.267866,1.00011
241,1459,3.31117,-0.02149,0.268241,0.998791
243,1457,3.31069,-0.0222833,0.268278,0.999517
245,1455,3.31008,-0.0221748,0.268279,0.99956
247,1453,3.31014,-0.022627,0.267876,0.999591
249,1451,3.31017,-0.0223039,0.268278,0.999506
251,1449,3.31039,-0.0229897,0.268687,0.998937
253,1447,3.30947,-0.0229088,0.268686,0.998959
255,1445,3.31012,-0.0228927,0.268275,0.999204
257,1443,3.30926,-0.0230628,0.268684,0.998877
259,1441,3.31122,-0.0197059,0.267257,0.998584
261,1439,3.31108,-0.0203781,0.267668,0.998042
263,1437,3.31001,-0.0200589,0.267998,0.998172
265,1435,3.31121,-0.020429,0.267667,0.998013
267,1433,3.31093,-0.020749,0.267666,0.997846
269,1431,3.31117,-0.0209849,0.26767,0.997751
271,1429,3.31064,-0.0209634,0.267668,0.997762
273,1427,3.31071,-0.021035,0.267666,0.997728
275,1425,3.30959,-0.021759,0.268078,0.997128
277,1423,3.30944,-0.0217339,0.268079,0.997155
279,1421,3.30936,-0.0217421,0.268174,0.997137
281,1419,3.30905,-0.0225152,0.268494,0.996545
283,1417,3.30972,-0.0224433,0.268082,0.996827
285,1415,3.30945,-0.0224275,0.268079,0.996819
287,1413,3.30936,-0.0232254,0.268494,0.996218
289,1411,3.30945,-0.0231137,0.268081,0.996508
291,1409,3.31139,-0.0196886,0.266649,0.996263
293,1407,3.31086,-0.0204417,0.267061,0.995664
295,1405,3.31093,-0.0203897,0.267064,0.995689
297,1403,3.31074,-0.0203886,0.267062,0.995686
299,1401,3.31052,-0.021168,0.267476,0.995075
301,1399,3.3114,-0.0209401,0.267059,0.995418
303,1397,3.31098,-0.0210169,0.267059,0.995376
305,1395,3.31096,-0.0210297,0.267059,0.995378
307,1393,3.3103,-0.0218297,0.267474,0.994763
309,1391,3.31005,-0.0218519,0.267474,0.994747
311,1389,3.30879,-0.0219174,0.26789,0.994475
313,1387,3.30895,-0.0225417,0.267892,0.994194
315,1385,3.30921,-0.022574,0.26789,0.994185
317,1383,3.30902,-0.0225651,0.267888,0.994188
319,1381,3.30923,-0.0231575,0.267887,0.993905
321,1379,3.30927,-0.0231799,0.267892,0.9939
323,1377,3.30958,-0.0232015,0.267889,0.99389
325,1375,3.31084,-0.0198462,0.266456,0.993599
327,1373,3.31072,-0.0206182,0.266889,0.99299
329,1371,3.31039,-0.0206092,0.26687,0.992996
331,1369,3.31018,-0.0205217,0.266868,0.993023
333,1367,3.31,-0.0205447,0.266867,0.993005
335,1365,3.31075,-0.0212006,0.267135,0.992703
337,1363,3.31012,-0.0212454,0.267067,0.99244
339,1361,3.3101,-0.0212566,0.267382,0.992448
341,1359,3.31045,-0.0217869,0.267283,0.992192
343,1357,3.30983,-0.0218822,0.267282,0.992158
345,1355,3.30989,-0.0220171,0.267283,0.992096
347,1353,3.30887,-0.0227428,0.267654,0.991514
349,1351,3.30951,-0.022641,0.267284,0.991794
351,1349,3.30839,-0.0227405,0.2677,0.99151
353,1347,3.30864,-0.0227273,0.2677,0.991514
355,1345,3.30875,-0.0233422,0.267704,0.991222
357,1343,3.30878,-0.0233075,0.2677,0.991234
359,1341,3.30843,-0.0233186,0.267697,0.991219
361,1339,3.30991,-0.0206309,0.267055,0.990371
363,1337,3.30986,-0.0206909,0.266677,0.990343
365,1335,3.3096,-0.0207147,0.266944,0.990326
367,1333,3.30984,-0.021422,0.266676,0.989993
369,1331,3.30967,-0.0212201,0.266679,0.990104
371,1329,3.31007,-0.0213962,0.267055,0.990024
373,1327,3.30986,-0.0219649,0.266678,0.989762
375,1325,3.30995,-0.0218511,0.266676,0.989812
377,1323,3.30978,-0.0220605,0.267097,0.98948
379,1321,3.30939,-0.022019,0.267098,0.989491
381,1319,3.3094,-0.0226529,0.267092,0.989183
383,1317,3.30921,-0.0226703,0.267095,0.989182
385,1315,3.30867,-0.0228203,0.267515,0.988869
387,1313,3.30878,-0.0226991,0.267093,0.989168
389,1311,3.30859,-0.0234343,0.267515,0.988584
391,1309,3.30821,-0.0235537,0.26744,0.988535
393,1307,3.31051,-0.0200836,0.26607,0.988274
395,1305,3.31031,-0.0206429,0.266338,0.988013
397,1303,3.31072,-0.0206859,0.266069,0.987982
399,1301,3.30963,-0.0207881,0.266489,0.987696
401,1299,3.30953,-0.0214305,0.266491,0.98741
403,1297,3.30926,-0.0214627,0.266894,0.987378
405,1295,3.3086,-0.0215298,0.266911,0.987108
407,1293,3.30861,-0.0222115,0.266911,0.986793
409,1291,3.30852,-0.0222353,0.267292,0.986785
411,1289,3.30843,-0.0222711,0.26691,0.986764
413,1287,3.30847,-0.0222809,0.26691,0.986766
415,1285,3.30856,-0.022875,0.26691,0.986487
417,1283,3.30861,-0.022861,0.266911,0.986493
419,1281,3.30882,-0.0229044,0.267315,0.985119
421,1279,3.3077,-0.0236522,0.267333,0.985893
423,1277,3.30781,-0.0236533,0.267331,0.985892
425,1275,3.30755,-0.0236724,0.267334,0.985884
427,1273,3.3091,-0.0210086,0.266306,0.984992
429,1271,3.30891,-0.020958,0.266306,0.984821
431,1269,3.30974,-0.0208606,0.265883,0.985293
433,1267,3.30914,-0.0215667,0.266304,0.984724
435,1265,3.30925,-0.0215349,0.266308,0.984757
437,1263,3.30968,-0.0215699,0.266305,0.984736
439,1261,3.30913,-0.0215136,0.266302,0.984744
441,1259,3.3087,-0.0223085,0.266727,0.984138
443,1257,3.30862,-0.0223223,0.266727,0.984139
445,1255,3.30855,-0.0223731,0.266723,0.984107
447,1253,3.30773,-0.0231391,0.267153,0.983527
449,1251,3.30809,-0.0231723,0.267152,0.983505
451,1249,3.3076,-0.0231191,0.267149,0.983531
453,1247,3.30805,-0.0238329,0.267153,0.983204
455,1245,3.30762,-0.0237813,0.267151,0.983221
457,1243,3.30797,-0.0237835,0.267152,0.983234
459,1241,3.30983,-0.0208819,0.265695,0.982666
461,1239,3.30976,-0.02088,0.265698,0.982679
463,1237,3.30945,-0.0209131,0.265696,0.982659
465,1235,3.30973,-0.0210189,0.265696,0.982619
467,1233,3.30861,-0.0217701,0.266121,0.98202
469,1231,3.30862,-0.0217325,0.26612,0.982038
471,1229,3.30827,-0.0217497,0.266119,0.982023
473,1227,3.30777,-0.0224901,0.266544,0.981439
475,1225,3.30786,-0.022524,0.266549,0.981441
477,1223,3.30781,-0.0225091,0.266547,0.981446
479,1221,3.30783,-0.023133,0.266549,0.981156
481,1219,3.30728,-0.0231999,0.266976,0.980886
483,1217,3.30815,-0.0231649,0.266927,0.981143
485,1215,3.30721,-0.0239504,0.266976,0.980546
487,1213,3.30695,-0.0239115,0.266974,0.980564
489,1211,3.30661,-0.0239991,0.266974,0.980513
491,1209,3.30628,-0.0240173,0.266973,0.980281
493,1207,3.30773,-0.0212156,0.265941,0.979657
495,1205,3.30867,-0.0210995,0.265513,0.979952
497,1203,3.3074,-0.0212141,0.265936,0.979647
499,1201,3.30824,-0.0211539,0.265512,0.979923
501,1199,3.30774,-0.0218186,0.265622,0.979377
503,1197,3.30826,-0.0220375,0.265939,0.979285
505,1195,3.3078,-0.0218812,0.266346,0.979344
507,1193,3.30799,-0.0225495,0.265936,0.979034
509,1191,3.30776,-0.0225812,0.265935,0.979014
511,1189,3.30764,-0.0226179,0.265936,0.979001
513,1187,3.30637,-0.022695,0.266743,0.978724
515,1185,3.30682,-0.0233926,0.266365,0.978409
517,1183,3.30614,-0.0233655,0.266364,0.978416
519,1181,3.30624,-0.0233172,0.266365,0.978443
521,1179,3.30682,-0.0241429,0.266362,0.978059
523,1177,3.3065,-0.0240169,0.266361,0.978114
525,1175,3.30638,-0.0240395,0.266362,0.978108
527,1173,3.30865,-0.0205195,0.264897,0.977819
529,1171,3.30808,-0.0213253,0.265326,0.977204
531,1169,3.30783,-0.0212947,0.265328,0.97722
533,1167,3.30799,-0.0219569,0.265328,0.976927
535,1165,3.30769,-0.0219566,0.265329,0.976932
537,1163,3.30764,-0.0219783,0.265327,0.976911
539,1161,3.30693,-0.0227334,0.265758,0.976329
541,1159,3.30703,-0.0227815,0.265758,0.976314
543,1157,3.30648,-0.0227755,0.265756,0.976311
545,1155,3.30681,-0.0227941,0.265754,0.976308
547,1153,3.30676,-0.02343,0.265757,0.976018
549,1151,3.30698,-0.0234467,0.265759,0.976021
551,1149,3.30666,-0.0233779,0.265753,0.976039
553,1147,3.30667,-0.0242243,0.266188,0.975416
555,1145,3.30594,-0.0242013,0.266186,0.975425
557,1143,3.30822,-0.0207237,0.264722,0.975121
559,1141,3.30827,-0.0214172,0.264723,0.974798
561,1139,3.30747,-0.0215313,0.265152,0.974505
563,1137,3.30719,-0.0221151,0.265151,0.974235
565,1135,3.3076,-0.0221791,0.265152,0.974213
567,1133,3.3068,-0.0221684,0.265152,0.974216
569,1131,3.30721,-0.022789,0.265151,0.973936
571,1129,3.30704,-0.0228118,0.265153,0.973927
573,1127,3.30715,-0.0227861,0.265151,0.973943
575,1125,3.30712,-0.0227788,0.265149,0.973945
577,1123,3.30687,-0.0236117,0.265581,0.973327
579,1121,3.3064,-0.0235965,0.26558,0.97332
581,1119,3.30621,-0.0236153,0.265577,0.97331
583,1117,3.30598,-0.0242959,0.265578,0.973004
585,1115,3.30621,-0.0243677,0.26558,0.972795
587,1113,3.30702,-0.0208815,0.264542,0.97241
589,1111,3.30774,-0.0215145,0.264544,0.972124
591,1109,3.30729,-0.0215228,0.264543,0.972113
593,1107,3.30741,-0.0222193,0.264542,0.971804
595,1105,3.3072,-0.0222254,0.264544,0.972057
597,1103,3.30721,-0.0222259,0.264539,0.971795
599,1101,3.30675,-0.0222127,0.264539,0.971801
601,1099,3.30752,-0.0228414,0.264542,0.97153
603,1097,3.30654,-0.0229863,0.264973,0.969771
605,1095,3.30661,-0.022978,0.264974,0.971227
607,1093,3.30641,-0.0236589,0.264971,0.970906
609,1091,3.30636,-0.023691,0.264974,0.970902
611,1089,3.30584,-0.0237288,0.264971,0.970874
613,1087,3.30558,-0.024545,0.265406,0.970268
615,1085,3.30475,-0.0246348,0.265846,0.970235
617,1083,3.30708,-0.0216904,0.264363,0.969395
619,1081,3.30668,-0.021691,0.264371,0.969404
621,1079,3.3069,-0.0216759,0.264367,0.969408
623,1077,3.30611,-0.0224016,0.2648,0.968836
625,1075,3.30674,-0.0223125,0.264367,0.969125
627,1073,3.30663,-0.0223666,0.264365,0.969101
629,1071,3.30634,-0.02317,0.264803,0.968513
631,1069,3.30601,-0.0231301,0.264803,0.968335
633,1067,3.30639,-0.0231732,0.265183,0.968493
635,1065,3.30512,-0.0238381,0.265235,0.967945
637,1063,3.30604,-0.0238443,0.2648,0.968186
639,1061,3.30528,-0.0245773,0.265232,0.967605
641,1059,3.30528,-0.024638,0.265234,0.967581
643,1057,3.30677,-0.0210153,0.263754,0.967287
645,1055,3.30632,-0.0218727,0.264193,0.966664
647,1053,3.30579,-0.0218598,0.264192,0.966672
649,1051,3.30601,-0.0218674,0.264194,0.966679
651,1049,3.30605,-0.0221816,0.26419,0.966526
653,1047,3.30614,-0.0225697,0.264193,0.966361
655,1045,3.3049,-0.0225246,0.264518,0.96637
657,1043,3.30594,-0.0233832,0.264631,0.96576
659,1041,3.30527,-0.0233246,0.264579,0.965772
661,1039,3.30634,-0.0232584,0.264191,0.96606
663,1037,3.3054,-0.0240166,0.264626,0.965464
665,1035,3.30552,-0.0240748,0.264628,0.965446
667,1033,3.30499,-0.0248497,0.265067,0.964851
669,1031,3.30536,-0.0247105,0.264626,0.96516
671,1029,3.30735,-0.0210985,0.263143,0.964868
673,1027,3.30687,-0.021971,0.263581,0.964227
675,1025,3.306134,-0.0219072,0.263987,0.964255
677,1023,3.30656,-0.0226286,0.263578,0.963923
679,1021,3.306111,-0.0226097,0.26358,0.963947
681,1019,3.3061,-0.0226031,0.263581,0.964131
683,1017,3.3055,-0.0233852,0.264019,0.963359
685,1015,3.30559,-0.0234645,0.264019,0.963322
687,1013,3.30543,-0.0237129,0.264018,0.963204
689,1011,3.30653,-0.0204876,0.262859,0.962724
691,1009,3.30569,-0.0241465,0.26402,0.963021
693,1007,3.30517,-0.0240974,0.264018,0.963042
695,1005,3.30481,-0.0249236,0.264458,0.96243
697,1003,3.30519,-0.0248306,0.264018,0.962715
699,1001,3.30684,-0.0212992,0.262973,0.961951
701,999,3.30666,-0.0219648,0.262967,0.961822
703,997,3.30647,-0.0219662,0.26297,0.961832
705,995,3.30586,-0.0228802,0.263409,0.961181
707,993,3.30557,-0.0228264,0.263796,0.961209
709,991,3.30571,-0.0227732,0.26297,0.961473
711,989,3.30524,-0.023534,0.263408,0.960889
713,987,3.30462,-0.0234282,0.26341,0.960938
715,985,3.30515,-0.0236181,0.263408,0.960846
717,983,3.30476,-0.0206398,0.262684,0.959996
719,981,3.30409,-0.0243893,0.26385,0.960266
721,979,3.30349,-0.0243651,0.26385,0.960285
723,977,3.30385,-0.0250437,0.264256,0.959987
725,975,3.30352,-0.0250988,0.263847,0.959955
727,973,3.30578,-0.0214265,0.262357,0.959664
729,971,3.30544,-0.022158,0.262798,0.959095
731,969,3.30537,-0.0221704,0.262801,0.959094
733,967,3.3055,-0.0229106,0.263204,0.95877
735,965,3.3055,-0.0229013,0.262798,0.958776
737,963,3.30534,-0.0237458,0.263241,0.958155
739,961,3.30538,-0.0236276,0.2628,0.95846
741,959,3.30547,-0.0235868,0.262798,0.958717
743,957,3.30502,-0.0244459,0.26324,0.957842
745,955,3.30479,-0.024353,0.263242,0.957898
747,953,3.30584,-0.0215144,0.262072,0.957219
749,951,3.30455,-0.0251931,0.263242,0.957527
751,949,3.30573,-0.0222996,0.262189,0.956624
753,947,3.30607,-0.0223025,0.262188,0.95662
755,945,3.30534,-0.0223143,0.26219,0.956617
757,943,3.30528,-0.0231648,0.262633,0.955831
759,941,3.30484,-0.0231356,0.262635,0.956018
761,939,3.30463,-0.0231311,0.262628,0.956013
763,937,3.30442,-0.0237586,0.262634,0.955747
765,935,3.30424,-0.0238326,0.262723,0.955709
767,933,3.30357,-0.0245908,0.263078,0.955136
769,931,3.30416,-0.0244992,0.262633,0.955424
771,929,3.30417,-0.0245104,0.26263,0.955417
773,927,3.30314,-0.0253774,0.263075,0.954789
775,925,3.30333,-0.0253705,0.262815,0.954805
777,923,3.30552,-0.0223214,0.261834,0.954207
779,921,3.30542,-0.0222808,0.261576,0.954227
781,919,3.30564,-0.0223576,0.261576,0.954198
783,917,3.30501,-0.0231571,0.262022,0.953599
785,915,3.30478,-0.0231882,0.262021,0.953587
787,913,3.30463,-0.0240112,0.262019,0.953216
789,911,3.30417,-0.0239317,0.262406,0.953263
791,909,3.30421,-0.0246046,0.262467,0.952727
793,907,3.30437,-0.0246365,0.262018,0.95295
795,905,3.30366,-0.0247838,0.262464,0.952641
797,903,3.30388,-0.025488,0.262098,0.952336
799,901,3.30582,-0.0217836,0.26096,0.952023
801,899,3.30512,-0.0225651,0.261411,0.951441
803,897,3.30499,-0.022626,0.261812,0.951409
805,895,3.3048,-0.0231896,0.261406,0.95116
807,893,3.30456,-0.0233008,0.26141,0.951119
809,891,3.30434,-0.0233059,0.261407,0.951125
811,889,3.30398,-0.0240019,0.261401,0.950804
813,887,3.3041,-0.0241128,0.261407,0.950756
815,885,3.30354,-0.0240521,0.261406,0.950786
817,883,3.3029,-0.0246299,0.261851,0.950282
819,881,3.30287,-0.0248842,0.261854,0.950175
821,879,3.30229,-0.0257283,0.26271,0.949574
823,877,3.30278,-0.025538,0.261855,0.949902
825,875,3.30507,-0.0218857,0.260343,0.949561
827,873,3.30434,-0.0226647,0.260794,0.949186
829,871,3.30448,-0.0227089,0.260794,0.948956
831,869,3.30461,-0.0233972,0.260796,0.948658
833,867,3.30444,-0.0233025,0.260883,0.948705
835,865,3.3046,-0.024307,0.261246,0.948036
837,863,3.3039,-0.0242285,0.261244,0.94807
839,861,3.30408,-0.0249437,0.261245,0.947764
841,859,3.3039,-0.0248932,0.261243,0.948019
843,857,3.30322,-0.0257453,0.261694,0.947155
845,855,3.30329,-0.0257691,0.261693,0.947147
847,853,3.3052,-0.0227847,0.260179,0.946498
849,851,3.30512,-0.022809,0.260183,0.946506
851,849,3.30482,-0.0228142,0.26018,0.946503
853,847,3.30459,-0.0234882,0.260183,0.946215
855,845,3.30442,-0.0234937,0.260182,0.946208
857,843,3.30388,-0.0244495,0.26063,0.945542
859,841,3.30315,-0.0243462,0.260632,0.945598
861,839,3.30336,-0.0251335,0.260633,0.945262
863,837,3.3023,-0.0252066,0.261082,0.944974
865,835,3.30217,-0.0258981,0.261082,0.944921
867,833,3.30207,-0.0258942,0.261083,0.944679
869,831,3.30147,-0.0258805,0.261083,0.944683
871,829,3.30403,-0.0231015,0.26002,0.943702
873,827,3.30322,-0.0230019,0.260019,0.943748
875,825,3.30364,-0.0237542,0.260019,0.943425
877,823,3.30344,-0.0237109,0.260019,0.943445
879,821,3.30327,-0.0244184,0.260016,0.943131
881,819,3.30362,-0.0243999,0.260018,0.943153
883,817,3.30279,-0.0253262,0.26047,0.942502
885,815,3.30293,-0.0252975,0.26047,0.942524
887,813,3.30256,-0.0260003,0.260471,0.940897
889,811,3.30222,-0.0259999,0.26047,0.942216
891,809,3.30391,-0.023122,0.259408,0.941281
893,807,3.30359,-0.0231054,0.259407,0.941284
895,805,3.30358,-0.023798,0.259404,0.940981
897,803,3.30347,-0.0238185,0.259404,0.940976
899,801,3.30336,-0.0238257,0.259402,0.940977
901,799,3.30226,-0.024628,0.259856,0.940368
903,797,3.30321,-0.0245423,0.259659,0.940662
905,795,3.3021,-0.0254159,0.259859,0.940042
907,793,3.30278,-0.0255314,0.259855,0.939991
909,791,3.30172,-0.0262539,0.260315,0.939443
911,789,3.30475,-0.0223237,0.258332,0.939428
913,787,3.3043,-0.0232055,0.258789,0.938816
915,785,3.30416,-0.0239019,0.258787,0.938499
917,783,3.30443,-0.0239289,0.258787,0.938304
919,781,3.30375,-0.0247056,0.259645,0.937917
921,779,3.30341,-0.0247445,0.259244,0.937896
923,777,3.3034,-0.0254919,0.259244,0.93758
925,775,3.30282,-0.0255068,0.259244,0.937571
927,773,3.30259,-0.0263132,0.259699,0.936982
929,771,3.30156,-0.0263279,0.260102,0.936971
931,769,3.30429,-0.0225384,0.258169,0.936643
933,767,3.30384,-0.0232259,0.258168,0.936344
935,765,3.30388,-0.0232261,0.258169,0.936345
937,763,3.30306,-0.0241,0.258627,0.935718
939,761,3.30291,-0.0241065,0.258625,0.935719
941,759,3.30243,-0.0250114,0.259342,0.935087
943,757,3.30213,-0.025023,0.259085,0.935079
945,755,3.30232,-0.0258959,0.259083,0.934701
947,753,3.30218,-0.0265387,0.259131,0.934438
949,751,3.30177,-0.0265364,0.259081,0.934428
951,749,3.30401,-0.023483,0.258009,0.933525
953,747,3.30353,-0.0234757,0.258008,0.933532
955,745,3.30347,-0.023461,0.257643,0.933545
957,743,3.30307,-0.0242153,0.258008,0.933214
959,741,3.30211,-0.0243363,0.258468,0.932915
961,739,3.30218,-0.0251392,0.25847,0.932591
963,737,3.30161,-0.0251129,0.258467,0.932588
965,735,3.3016,-0.025787,0.258469,0.932309
967,733,3.30122,-0.0257752,0.258465,0.931011
969,731,3.30061,-0.0267269,0.259332,0.931656
971,729,3.30017,-0.0267043,0.258928,0.931662
973,727,3.30223,-0.0237213,0.257853,0.930722
975,725,3.30246,-0.0235419,0.25739,0.931054
977,723,3.302,-0.0244738,0.257848,0.930396
979,721,3.30196,-0.0245118,0.25785,0.930632
981,719,3.30196,-0.0251891,0.257849,0.930104
983,717,3.3019,-0.0252289,0.257849,0.930084
985,715,3.30131,-0.0260324,0.258707,0.929498
987,713,3.30107,-0.025944,0.257845,0.929783
989,711,3.30059,-0.0268397,0.258311,0.929168
991,709,3.30229,-0.0229101,0.256765,0.928856
993,707,3.30231,-0.023649,0.257021,0.92855
995,705,3.30204,-0.0236196,0.256764,0.928557
997,703,3.30131,-0.0246107,0.257229,0.92789
999,701,3.30127,-0.0245443,0.257228,0.927914
1001,699,3.30085,-0.0253213,0.257225,0.927577
1003,697,3.30111,-0.0253597,0.257229,0.927577
1005,695,3.30055,-0.0262308,0.257693,0.926967
1007,693,3.300475,-0.0270294,0.257695,0.926635
1009,691,3.30038,-0.0270692,0.25749,0.92662
1011,689,3.30222,-0.0239125,0.256611,0.925723
1013,687,3.30229,-0.0239841,0.25661,0.925691
1015,685,3.30169,-0.0247124,0.257004,0.925387
1017,683,3.30177,-0.024749,0.256609,0.92538
1019,681,3.30149,-0.0254204,0.256609,0.925104
1021,679,3.30034,-0.026285,0.257076,0.924485
1023,677,3.30065,-0.0263646,0.257077,0.924456
1025,675,3.29992,-0.0271273,0.25707,0.924122
1027,673,3.29999,-0.0271455,0.257076,0.924125
1029,671,3.30161,-0.0239687,0.255988,0.923232
1031,669,3.30167,-0.02402,0.256389,0.923211
1033,667,3.30119,-0.024943,0.256458,0.922576
1035,665,3.30162,-0.0247673,0.255989,0.922911
1037,663,3.30102,-0.0256642,0.256455,0.922284
1039,661,3.30109,-0.0264347,0.256456,0.921963
1041,659,3.30072,-0.0263968,0.256458,0.92175
1043,657,3.30024,-0.0274306,0.256926,0.921301
1045,655,3.30238,-0.0241805,0.255369,0.920686
1047,653,3.3017,-0.0241341,0.255369,0.920709
1049,651,3.30202,-0.0247879,0.255366,0.920436
1051,649,3.3006,-0.0249635,0.256231,0.920099
1053,647,3.3007,-0.0257809,0.255837,0.919763
1055,645,3.30044,-0.0257838,0.255834,0.919765
1057,643,3.29956,-0.0266833,0.256307,0.919138
1059,641,3.30024,-0.0265518,0.255833,0.919446
1061,639,3.2992,-0.0274318,0.256304,0.91737
1063,637,3.3019,-0.024314,0.254742,0.918152
1065,635,3.30197,-0.0242377,0.254739,0.918179
1067,633,3.30117,-0.0250427,0.255213,0.917587
1069,631,3.30135,-0.0259485,0.255213,0.917219
1071,629,3.3008,-0.0258019,0.25561,0.917278
1073,627,3.30007,-0.0268288,0.255684,0.916612
1075,625,3.29994,-0.0275399,0.255687,0.916324
1077,623,3.29929,-0.0275643,0.255683,0.916305
1079,621,3.30157,-0.0235998,0.254518,0.915966
1081,619,3.30097,-0.0244366,0.254591,0.915363
1083,617,3.30068,-0.0252122,0.25459,0.915033
1085,615,3.30079,-0.0251699,0.254591,0.915071
1087,613,3.30013,-0.0261964,0.255465,0.914387
1089,611,3.29989,-0.0261148,0.255064,0.914425
1091,609,3.30018,-0.0269481,0.255063,0.914087
1093,607,3.29887,-0.027781,0.255539,0.91348
1095,605,3.30145,-0.0238037,0.253968,0.913133
1097,603,3.30098,-0.0245217,0.253965,0.91284
1099,601,3.30034,-0.0255021,0.254445,0.912184
1101,599,3.29998,-0.0254465,0.25444,0.912206
1103,597,3.29951,-0.0262364,0.254443,0.911893
1105,595,3.29927,-0.0262934,0.254436,0.911846
1107,593,3.29901,-0.0271166,0.254918,0.911266
1109,591,3.29849,-0.0279307,0.254915,0.910925
1111,589,3.30124,-0.0238045,0.253339,0.910627
1113,587,3.30104,-0.0246677,0.253339,0.910273
1115,585,3.30027,-0.0256085,0.253819,0.90964
1117,583,3.30004,-0.0256394,0.253816,0.909629
1119,581,3.30017,-0.0263366,0.254217,0.909351
1121,579,3.29969,-0.0263085,0.253814,0.909358
1123,577,3.29873,-0.0273149,0.254293,0.908686
1125,575,3.29796,-0.0282215,0.254775,0.908067
1127,573,3.30049,-0.0239702,0.252707,0.908055
1129,571,3.30026,-0.0249623,0.253589,0.907401
1131,569,3.29881,-0.0258411,0.253669,0.906779
1133,567,3.29908,-0.02587,0.253672,0.906776
1135,565,3.299,-0.0266073,0.25367,0.90647
1137,563,3.29879,-0.026663,0.253367,0.906455
1139,561,3.2987,-0.0275253,0.253668,0.906108
1141,559,3.29809,-0.0283764,0.254151,0.90551
1143,557,3.30032,-0.0242584,0.252565,0.905181
1145,555,3.30004,-0.0250765,0.252565,0.904843
1147,553,3.29923,-0.0259832,0.253048,0.904232
1149,551,3.29846,-0.0259968,0.253047,0.904232
1151,549,3.2985,-0.0267817,0.253044,0.903904
1153,547,3.29771,-0.0276539,0.253527,0.903292
1155,545,3.29707,-0.027712,0.253526,0.903269
1157,543,3.29722,-0.0285183,0.253529,0.902954
1159,541,3.29891,-0.0252428,0.252416,0.901998
1161,539,3.29889,-0.0252881,0.252419,0.901996
1163,537,3.29913,-0.0261522,0.252417,0.901651
1165,535,3.29805,-0.0270462,0.252907,0.901036
1167,533,3.29808,-0.0278332,0.252901,0.900712
1169,531,3.29776,-0.0278292,0.252903,0.900723
1171,529,3.29676,-0.0288375,0.253389,0.900053
1173,527,3.29875,-0.0252959,0.251793,0.899474
1175,525,3.29871,-0.0253661,0.251791,0.899456
1177,523,3.2977,-0.02627,0.252277,0.89882
1179,521,3.2975,-0.0263464,0.252354,0.898783
1181,519,3.29743,-0.0271727,0.252278,0.898465
1183,517,3.29718,-0.0279779,0.252276,0.898151
1185,515,3.29664,-0.0290542,0.252765,0.89746
1187,513,3.29935,-0.0247849,0.251162,0.897166
1189,511,3.29859,-0.0254631,0.251161,0.896885
1191,509,3.29827,-0.0265622,0.251649,0.89619
1193,507,3.29785,-0.0265651,0.251649,0.896191
1195,505,3.29749,-0.0273311,0.251648,0.895888
1197,503,3.29645,-0.0282089,0.252136,0.895272
1199,501,3.29658,-0.0283408,0.252543,0.895229
1201,499,3.29577,-0.0290487,0.252136,0.894942
1203,497,3.29801,-0.0258095,0.251023,0.893968
1205,495,3.29805,-0.0266888,0.25102,0.893621
1207,493,3.29783,-0.0267114,0.251019,0.893616
1209,491,3.2976,-0.0275062,0.25102,0.893294
1211,489,3.29733,-0.0284569,0.251511,0.892658
1213,487,3.29647,-0.0292087,0.251511,0.892357
1215,485,3.29832,-0.025957,0.25039,0.891374
1217,483,3.29808,-0.0259017,0.250389,0.891401
1219,481,3.29749,-0.0267049,0.250793,0.891072
1221,479,3.2965,-0.0276975,0.250883,0.890413
1223,477,3.29662,-0.0277667,0.250882,0.890396
1225,475,3.29651,-0.0284827,0.250878,0.890107
1227,473,3.29563,-0.0295809,0.251375,0.889418
1229,471,3.2983,-0.0260474,0.249756,0.888793
1231,469,3.29862,-0.0268844,0.249756,0.888466
1233,467,3.29772,-0.026821,0.249755,0.888492
1235,465,3.29669,-0.0278818,0.250253,0.887812
1237,463,3.29661,-0.0285994,0.250325,0.887533
1239,461,3.29519,-0.0287779,0.250747,0.887195
1241,459,3.29483,-0.0296478,0.250746,0.886851
1243,457,3.29711,-0.026352,0.249621,0.885851
1245,455,3.29674,-0.027105,0.249619,0.885565
1247,453,3.29662,-0.0280383,0.249618,0.885198
1249,451,3.29674,-0.0280647,0.249616,0.885188
1251,449,3.2952,-0.0289067,0.250115,0.884587
1253,447,3.29432,-0.0300607,0.250619,0.883879
1255,445,3.29626,-0.0264349,0.248985,0.883258
1257,443,3.29637,-0.0264767,0.248984,0.883245
1259,441,3.29534,-0.0273622,0.249487,0.882628
1261,439,3.29515,-0.0282525,0.249483,0.882283
1263,437,3.2956,-0.0290682,0.249487,0.881978
1265,435,3.29462,-0.02998,0.249986,0.881358
1267,433,3.29676,-0.0256941,0.248352,0.88098
1269,431,3.29632,-0.0264624,0.248758,0.880689
1271,429,3.29553,-0.0274896,0.248855,0.88003
1273,427,3.29437,-0.0284523,0.249357,0.879371
1275,425,3.29448,-0.0286241,0.249357,0.879314
1277,423,3.29431,-0.0294285,0.249354,0.879008
1279,421,3.29693,-0.0258949,0.247714,0.87834
1281,419,3.29594,-0.0269394,0.248218,0.877619
1283,417,3.29604,-0.0277298,0.248216,0.877368
1285,415,3.29476,-0.0286416,0.248725,0.876748
1287,413,3.29455,-0.0295723,0.248723,0.876386
1289,411,3.29374,-0.029526,0.248723,0.876418
1291,409,3.29605,-0.0260973,0.247655,0.875412
1293,407,3.29628,-0.0270475,0.24758,0.875052
1295,405,3.29551,-0.0277788,0.247578,0.874768
1297,403,3.29512,-0.0288792,0.248088,0.874087
1299,401,3.29448,-0.0297014,0.248088,0.873769
1301,399,3.2932,-0.030676,0.2486,0.873132
1303,397,3.29535,-0.0261404,0.247012,0.872805
1305,395,3.29534,-0.0270997,0.246943,0.872438
1307,393,3.29464,-0.0279788,0.247454,0.871842
1309,391,3.29416,-0.0289545,0.247863,0.871469
1311,389,3.29367,-0.0301492,0.247964,0.870748
1313,387,3.29274,-0.0309171,0.247964,0.870456
1315,385,3.29486,-0.0263359,0.246304,0.870143
1317,383,3.2939,-0.0273224,0.246817,0.869487
1319,381,3.29386,-0.0283373,0.246814,0.869104
1321,379,3.29354,-0.0293233,0.247328,0.868468
1323,377,3.29305,-0.0301113,0.247327,0.868163
1325,375,3.29203,-0.0311951,0.247842,0.867479
1327,373,3.29409,-0.0274545,0.246175,0.866832
1329,371,3.294,-0.0275419,0.246173,0.866805
1331,369,3.29314,-0.0285388,0.24669,0.866162
1333,367,3.293,-0.0294822,0.246687,0.865808
1335,365,3.29308,-0.030445,0.246687,0.865436
1337,363,3.29506,-0.0268234,0.245534,0.864482
1339,361,3.29433,-0.0276193,0.245532,0.864169
1341,359,3.2931,-0.0286735,0.246439,0.863497
1343,357,3.29323,-0.0296103,0.246051,0.863155
1345,355,3.29249,-0.03066,0.24657,0.86249
1347,353,3.29476,-0.0269051,0.244889,0.861831
1349,351,3.29475,-0.0278472,0.24489,0.86148
1351,349,3.29303,-0.0288953,0.24541,0.860808
1353,347,3.29296,-0.0297288,0.245407,0.859203
1355,345,3.29187,-0.0307171,0.245933,0.859858
1357,343,3.29117,-0.0308421,0.24632,0.85981
1359,341,3.29416,-0.0271359,0.244246,0.859117
1361,339,3.29302,-0.0281543,0.244766,0.858459
1363,337,3.29234,-0.0289983,0.244765,0.858151
1365,335,3.29116,-0.0300691,0.245287,0.857464
1367,333,3.29085,-0.030919,0.245287,0.857158
1369,331,3.29333,-0.0274833,0.244123,0.856079
1371,329,3.29319,-0.0282456,0.244125,0.855806
1373,327,3.29172,-0.0293826,0.244648,0.855099
1375,325,3.29125,-0.0302821,0.244645,0.854761
1377,323,3.29058,-0.0312888,0.245177,0.854128
1379,321,3.29351,-0.0276582,0.24348,0.853383
1381,319,3.29257,-0.0294454,0.244394,0.85244
1383,317,3.29193,-0.0304463,0.244003,0.852076
1385,315,3.29137,-0.0303936,0.244002,0.852098
1387,313,3.29011,-0.0314174,0.244535,0.851447
1389,311,3.29324,-0.0276911,0.242831,0.850732
1391,309,3.29217,-0.0287227,0.243361,0.850071
1393,307,3.2916,-0.0295878,0.243356,0.849739
1395,305,3.29031,-0.0307481,0.243891,0.849045
1397,303,3.28944,-0.0315964,0.24389,0.848718
1399,301,3.29207,-0.0280051,0.242713,0.847668
1401,299,3.29181,-0.0289427,0.242714,0.847329
1403,297,3.29037,-0.0299765,0.243249,0.846669
1405,295,3.29003,-0.0309687,0.243246,0.846304
1407,293,3.28901,-0.031989,0.243783,0.845655
1409,291,3.29172,-0.0280755,0.242064,0.844978
1411,289,3.29143,-0.0291848,0.242064,0.844585
1413,287,3.2906,-0.0311668,0.242598,0.843577
1415,285,3.2893,-0.0322131,0.243559,0.842912
1417,283,3.28918,-0.0330516,0.243135,0.8426
1419,281,3.2912,-0.0293941,0.241951,0.841548
1421,279,3.29077,-0.0303234,0.241948,0.841202
1423,277,3.28962,-0.0314754,0.24249,0.840505
1425,275,3.28858,-0.0323355,0.242489,0.840203
1427,273,3.2904,-0.0285376,0.241301,0.839161
1429,271,3.29059,-0.0296149,0.241298,0.838785
1431,269,3.28929,-0.0316525,0.241843,0.837765
1433,267,3.28838,-0.0325941,0.241842,0.837424
1435,265,3.28767,-0.0325353,0.241839,0.837446
1437,263,3.28981,-0.0296525,0.240647,0.836073
1439,261,3.28941,-0.0309571,0.241192,0.835328
1441,259,3.28892,-0.0318341,0.241191,0.835012
1443,257,3.287,-0.0329501,0.241737,0.832809
1445,255,3.29031,-0.0263687,0.239444,0.833687
1447,253,3.28961,-0.0360267,0.239443,0.8327
1449,251,3.28902,-0.0369895,0.239437,0.832351
1451,249,3.28828,-0.0378653,0.23944,0.832056
1453,247,3.28983,-0.0339325,0.238241,0.831055
1455,245,3.28872,-0.0361381,0.238782,0.829982
1457,243,3.28871,-0.0345751,0.238236,0.82968
1459,241,3.28687,-0.0381757,0.239329,0.828969
1461,239,3.28577,-0.0368001,0.239755,0.828316
1463,237,3.28928,-0.0302746,0.237026,0.827658
1465,235,3.28939,-0.0286221,0.236482,0.827399
1467,233,3.28772,-0.0307182,0.237023,0.826362
1469,231,3.28674,-0.0417571,0.237019,0.826049
1471,229,3.28945,-0.0354151,0.235271,0.825044
1473,227,3.2887,-0.034884,0.235269,0.824082
1475,225,3.28777,-0.0358294,0.235265,0.823751
1477,223,3.2874,-0.0367014,0.235265,0.823448
1479,221,3.28866,-0.0354557,0.234596,0.822338
1481,219,3.28866,-0.0338756,0.23405,0.822041
1483,217,3.28813,-0.0308633,0.233507,0.821103
1485,215,3.28654,-0.031919,0.234048,0.820443
1487,213,3.28977,-0.0278742,0.232291,0.819741
1489,211,3.2887,-0.0392891,0.232829,0.819056
1491,209,3.28731,-0.0413795,0.233371,0.81805
1493,207,3.28616,-0.042342,0.23337,0.817717
1495,205,3.28975,-0.0330457,0.230525,0.817125
1497,203,3.28981,-0.031363,0.229989,0.816868
1499,201,3.28875,-0.0335122,0.230528,0.815837
1501,199,3.28699,-0.0346258,0.23106,0.815154
1503,197,3.28904,-0.0304821,0.229299,0.814475
1505,195,3.28797,-0.0318804,0.229829,0.813686
1507,193,3.28771,-0.0403845,0.229295,0.813482
1509,191,3.28646,-0.0425414,0.229878,0.812463
1511,189,3.28802,-0.0386443,0.228599,0.811407
1513,187,3.28861,-0.0343984,0.227528,0.811165
1515,185,3.28848,-0.033916,0.227523,0.810177
1517,183,3.29046,-0.0296415,0.225761,0.809781
1519,181,3.28802,-0.033449,0.226823,0.808791
1521,179,3.2881,-0.0318961,0.226287,0.808481
1523,177,3.2876,-0.0314102,0.226284,0.807507
1525,175,3.28991,-0.0272206,0.224513,0.806825
1527,173,3.28859,-0.0284036,0.225045,0.806125
1529,171,3.28796,-0.0397671,0.225043,0.805826
1531,169,3.28734,-0.0392705,0.225041,0.804857
1533,167,3.29026,-0.032495,0.22274,0.804201
1535,165,3.28904,-0.0346878,0.223271,0.803173
1537,163,3.28811,-0.0330977,0.223409,0.802565
1539,161,3.28769,-0.0342371,0.223262,0.802183
1541,159,3.29002,-0.0389766,0.221487,0.800884
1543,157,3.28903,-0.0294239,0.221488,0.800796
1545,155,3.28687,-0.0332433,0.222544,0.799832
1547,153,3.28695,-0.0316788,0.222013,0.799519
1549,151,3.28924,-0.0364785,0.220235,0.798203
1551,149,3.28772,-0.0377599,0.220757,0.797481
1553,147,3.28703,-0.0386618,0.221171,0.797173
1555,145,3.28708,-0.0355264,0.220229,0.796247
1557,143,3.29039,-0.0286286,0.217925,0.7956
1559,141,3.28874,-0.0307323,0.218445,0.794611
1561,139,3.28649,-0.0345865,0.219493,0.793874
1563,137,3.28913,-0.0303898,0.217707,0.793165
1565,135,3.28891,-0.0287153,0.217182,0.79289
1567,133,3.28737,-0.0416088,0.217704,0.791856
1569,131,3.28594,-0.0427618,0.218227,0.79118
1571,129,3.28906,-0.0358097,0.215915,0.790543
1573,127,3.28948,-0.0327072,0.215392,0.789581
1575,125,3.28859,-0.0321039,0.215579,0.788635
1577,123,3.28696,-0.0357849,0.215909,0.788276
1579,121,3.28847,-0.0316762,0.215053,0.785858
1581,119,3.28873,-0.0300735,0.214115,0.786916
1583,117,3.28735,-0.0322411,0.214634,0.785904
1585,115,3.28926,-0.0387117,0.212841,0.785223
1587,113,3.28797,-0.0399449,0.21336,0.784527
1589,111,3.28843,-0.0367757,0.212836,0.783577
1591,109,3.28772,-0.0375922,0.212835,0.783309
1593,107,3.28883,-0.034548,0.211207,0.78192
1595,105,3.28747,-0.0357673,0.212068,0.781214
1597,103,3.28753,-0.0341922,0.211552,0.780903
1599,101,3.29076,-0.0281358,0.209238,0.779936
1601,99,3.28814,-0.0320219,0.210262,0.779433
1603,97,3.2875,-0.0304316,0.210264,0.778586
1605,95,3.28734,-0.0434316,0.210261,0.777914
1607,93,3.29043,-0.0348197,0.207947,0.776627
1609,91,3.28806,-0.0386828,0.208972,0.775919
1611,89,3.28733,-0.0397819,0.208971,0.775582
1613,87,3.28706,-0.036553,0.208454,0.774625
1615,85,3.28953,-0.0321238,0.206649,0.773972
1617,83,3.28704,-0.0346843,0.207675,0.772552
1619,81,3.28638,-0.035669,0.207671,0.772236
1621,79,3.28967,-0.039605,0.205345,0.771557
1623,77,3.28894,-0.0389347,0.205343,0.770628
1625,75,3.28803,-0.0400462,0.205341,0.770279
1627,73,3.28678,-0.0421749,0.205852,0.769323
1629,71,3.28919,-0.0352999,0.204034,0.768261
1631,69,3.28707,-0.0403395,0.205057,0.767226
1633,67,3.28597,-0.0414811,0.205056,0.767084
1635,65,3.28883,-0.0316697,0.20272,0.765881
1637,63,3.28925,-0.0420237,0.20221,0.765284
1639,61,3.28768,-0.0443491,0.202717,0.764262
1641,59,3.28952,-0.0401636,0.201401,0.763199
1643,57,3.28853,-0.0411068,0.201399,0.762903
1645,55,3.28864,-0.0393538,0.200892,0.762623
1647,53,3.28689,-0.0416675,0.201394,0.761595
1649,51,3.28856,-0.0374797,0.200075,0.760527
1651,49,3.28828,-0.0370178,0.200072,0.759536
1653,47,3.28832,-0.0337214,0.199563,0.75858
1655,45,3.29034,-0.0290774,0.197737,0.757947
1657,43,3.28828,-0.0331487,0.199151,0.757213
1659,41,3.28825,-0.0324643,0.198237,0.756604
1661,39,3.28692,-0.0450928,0.198739,0.755874
1663,37,3.28831,-0.0418092,0.197408,0.754514
1665,35,3.28809,-0.0400884,0.196898,0.754203
1667,33,3.28769,-0.0395899,0.196896,0.753225
1669,31,3.29107,-0.0322094,0.194563,0.752589
1671,29,3.28894,-0.0344637,0.195058,0.751588
1673,27,3.28686,-0.0385959,0.196374,0.750857
1675,25,3.28706,-0.036871,0.195557,0.750558
1677,23,3.2897,-0.0306915,0.193712,0.749228
1679,21,3.28756,-0.0443649,0.194208,0.74823
1681,19,3.28694,-0.0454392,0.194206,0.747906
1683,17,3.28935,-0.0393571,0.192359,0.746551
1685,15,3.28861,-0.0405634,0.192358,0.746192
1687,13,3.2868,-0.0417984,0.192852,0.745507
1689,11,3.28961,-0.0357094,0.191001,0.744143
1691,9,3.29025,-0.0320666,0.190011,0.743595
1693,7,3.28839,-0.0332995,0.190501,0.742912
1695,5,3.29052,-0.0300279,0.189139,0.741515
1697,3,3.29007,-0.0310464,0.189139,0.741218