File: hust_correlation_analysis/matrices/HUST_4-1_cycle_feature_matrix.csv
cycle_number,rul,voltage,current,capacity,charge_capacity
1,2219,3.3331,-0.0145019,0.267736,0.990407
4,2216,3.31359,-0.0189958,0.274984,0.983872
7,2213,3.31561,-0.0170743,0.273407,0.982859
10,2210,3.31573,-0.0180474,0.27329,0.982785
13,2207,3.31605,-0.0188021,0.272937,0.982488
16,2204,3.31581,-0.0196338,0.272934,0.982162
19,2201,3.31562,-0.0202901,0.272932,0.981909
22,2198,3.31819,-0.0172465,0.270899,0.981623
25,2195,3.31781,-0.0180056,0.271461,0.981023
28,2192,3.31747,-0.0188326,0.271931,0.980521
31,2189,3.31716,-0.0194135,0.271359,0.980505
34,2186,3.31698,-0.0194673,0.271344,0.980417
37,2183,3.31676,-0.019491,0.270866,0.980645
40,2180,3.31664,-0.0202903,0.270861,0.980326
43,2177,3.31802,-0.0192302,0.270202,0.979578
46,2174,3.31803,-0.0192027,0.269743,0.979887
49,2171,3.31771,-0.0200397,0.270191,0.979236
52,2168,3.31816,-0.0199219,0.269726,0.979549
55,2165,3.31784,-0.020683,0.269723,0.979233
58,2162,3.31739,-0.0214871,0.270179,0.978621
61,2159,3.31708,-0.0215029,0.270174,0.978605
64,2156,3.3167,-0.022313,0.270169,0.978293
67,2153,3.31675,-0.0223766,0.270176,0.97827
70,2150,3.31867,-0.0192089,0.268595,0.977709
73,2147,3.31884,-0.0192262,0.268125,0.977961
76,2144,3.31897,-0.0201267,0.268584,0.977326
79,2141,3.31817,-0.0200413,0.268684,0.977338
82,2138,3.31844,-0.0208432,0.268575,0.977013
85,2135,3.31819,-0.0208003,0.268576,0.977033
88,2132,3.31793,-0.021527,0.268585,0.976789
91,2129,3.31797,-0.0216377,0.268584,0.976737
94,2126,3.31764,-0.0222669,0.268593,0.976787
97,2123,3.31716,-0.0223586,0.269044,0.976106
100,2120,3.31912,-0.0193137,0.267459,0.975564
103,2117,3.31912,-0.0194962,0.267464,0.975501
106,2114,3.31931,-0.0193292,0.267455,0.975549
109,2111,3.31867,-0.020094,0.267451,0.975221
112,2108,3.31894,-0.0201039,0.267449,0.975215
115,2105,3.3183,-0.0208663,0.267646,0.974647
118,2102,3.31867,-0.020875,0.267464,0.974964
121,2099,3.31823,-0.0216633,0.26793,0.9744
124,2096,3.31817,-0.0216649,0.267932,0.974409
127,2093,3.31784,-0.0223678,0.267926,0.97412
130,2090,3.31778,-0.0224223,0.267921,0.974088
133,2087,3.32009,-0.0186446,0.266333,0.973733
136,2084,3.31914,-0.0194358,0.266791,0.97314
139,2081,3.31979,-0.0193651,0.266337,0.973452
142,2078,3.31962,-0.0200746,0.266785,0.972868
145,2075,3.31893,-0.0202257,0.266787,0.972819
148,2072,3.3196,-0.0209385,0.266798,0.972574
151,2069,3.31923,-0.020979,0.266806,0.972596
154,2066,3.3191,-0.0209082,0.266804,0.972608
157,2063,3.31919,-0.0216185,0.2668,0.972328
160,2060,3.31895,-0.0216145,0.266794,0.972319
163,2057,3.31903,-0.0223171,0.266795,0.972039
166,2054,3.31854,-0.022196,0.266788,0.972074
169,2051,3.31856,-0.0224116,0.266793,0.971991
172,2048,3.32039,-0.0194268,0.265666,0.971064
175,2045,3.31986,-0.0195272,0.266089,0.971039
178,2042,3.32121,-0.0195804,0.26523,0.97137
181,2039,3.31939,-0.0203082,0.266148,0.9705
184,2036,3.31988,-0.0201903,0.265682,0.97084
187,2033,3.3205,-0.021043,0.265686,0.970512
190,2030,3.31901,-0.0211221,0.26614,0.970189
193,2027,3.31997,-0.0210751,0.265687,0.969218
196,2024,3.31918,-0.0218981,0.266142,0.970112
199,2021,3.31879,-0.0218623,0.266146,0.969899
202,2018,3.31891,-0.0219503,0.266145,0.969875
205,2015,3.3181,-0.0228271,0.266612,0.969253
208,2012,3.318,-0.0227325,0.266612,0.969315
211,2009,3.32021,-0.0197479,0.265028,0.968674
214,2006,3.32,-0.0178153,0.264574,0.968517
217,2003,3.32011,-0.0197022,0.265032,0.968712
220,2000,3.31943,-0.0185704,0.265028,0.967915
223,1997,3.31983,-0.0185313,0.264574,0.968236
226,1994,3.31924,-0.0185381,0.265028,0.967919
229,1991,3.3189,-0.0212337,0.265488,0.967805
232,1988,3.31904,-0.0212534,0.265484,0.967789
235,1985,3.31882,-0.02128,0.265485,0.968023
238,1982,3.31877,-0.0219563,0.265486,0.967526
241,1979,3.31845,-0.0218428,0.265479,0.967543
244,1976,3.31853,-0.0219304,0.265463,0.96744
247,1973,3.31825,-0.0219078,0.265478,0.967522
250,1970,3.31767,-0.0227567,0.26594,0.966903
253,1967,3.31778,-0.0227971,0.265935,0.966874
256,1964,3.31737,-0.0226719,0.266504,0.966916
259,1961,3.31972,-0.0198049,0.264349,0.96624
262,1958,3.31976,-0.0197758,0.264343,0.966235
265,1955,3.31948,-0.0196838,0.264343,0.966283
268,1952,3.31898,-0.0205951,0.264812,0.965643
271,1949,3.31883,-0.0204964,0.264809,0.965687
274,1946,3.31928,-0.0205529,0.264349,0.965953
277,1943,3.31887,-0.0206783,0.264805,0.965588
280,1940,3.31841,-0.0211999,0.265365,0.965375
283,1937,3.31852,-0.0213327,0.264789,0.965283
286,1934,3.31844,-0.0212473,0.264778,0.965524
289,1931,3.31771,-0.0212571,0.264761,0.965211
292,1928,3.31827,-0.0213797,0.264752,0.965133
295,1925,3.31768,-0.022085,0.265551,0.964529
298,1922,3.31714,-0.0219304,0.265186,0.964547
301,1919,3.3175,-0.0223836,0.265201,0.964366
304,1916,3.31709,-0.0222685,0.265142,0.964419
307,1913,3.31691,-0.0228195,0.265202,0.964235
310,1910,3.31714,-0.0228552,0.265212,0.96424
313,1907,3.31946,-0.0197115,0.263598,0.963607
316,1904,3.31935,-0.0197383,0.263599,0.963589
319,1901,3.31921,-0.0197166,0.263702,0.963617
322,1898,3.31937,-0.0205799,0.263598,0.963256
325,1895,3.31885,-0.0207317,0.264071,0.962949
328,1892,3.31873,-0.0214323,0.264082,0.962718
331,1889,3.31843,-0.0214984,0.264091,0.962724
334,1886,3.31982,-0.0213568,0.263578,0.963316
337,1883,3.31837,-0.0220739,0.264074,0.962465
340,1880,3.31793,-0.0222715,0.264644,0.962384
343,1877,3.31792,-0.0223677,0.264537,0.962045
346,1874,3.31724,-0.0229984,0.264638,0.961789
349,1871,3.31706,-0.0230964,0.264532,0.961755
352,1868,3.31676,-0.023126,0.264529,0.961725
355,1865,3.3189,-0.0201121,0.263403,0.960811
358,1862,3.31901,-0.0199949,0.262958,0.961208
361,1859,3.31855,-0.020813,0.263426,0.960611
364,1856,3.31866,-0.0207526,0.263421,0.96063
367,1853,3.31824,-0.0206797,0.263413,0.960629
370,1850,3.31777,-0.021602,0.263866,0.959948
373,1847,3.31823,-0.0214522,0.263399,0.960299
376,1844,3.31752,-0.0214469,0.263856,0.959978
379,1841,3.3177,-0.0214659,0.26339,0.960257
382,1838,3.31732,-0.0224326,0.264279,0.959598
385,1835,3.31724,-0.022442,0.263867,0.959628
388,1832,3.31648,-0.0232305,0.264344,0.959071
391,1829,3.31631,-0.0233176,0.264349,0.959053
394,1826,3.31877,-0.0200521,0.262739,0.958478
397,1823,3.31885,-0.020054,0.262739,0.958455
400,1820,3.31861,-0.020078,0.262734,0.958456
403,1817,3.31824,-0.0208895,0.263197,0.957836
406,1814,3.31897,-0.0209126,0.262732,0.95812
409,1811,3.31824,-0.0208885,0.263773,0.957846
412,1808,3.31855,-0.0208274,0.26273,0.958158
415,1805,3.31872,-0.0214813,0.262737,0.957918
418,1802,3.3181,-0.0216731,0.263215,0.957597
421,1799,3.31779,-0.0225781,0.263223,0.957286
424,1796,3.31778,-0.0225719,0.263225,0.957295
427,1793,3.31775,-0.0225783,0.263211,0.957255
430,1790,3.31688,-0.0233432,0.263677,0.956656
433,1787,3.3172,-0.0233455,0.263204,0.956741
436,1784,3.31622,-0.0233011,0.263672,0.956663
439,1781,3.31881,-0.0201864,0.262056,0.95601
442,1778,3.31876,-0.0203086,0.262058,0.955954
445,1775,3.31821,-0.0200862,0.262059,0.956074
448,1772,3.31855,-0.0209722,0.262072,0.955762
451,1769,3.31881,-0.0209589,0.262081,0.955802
454,1766,3.31741,-0.0209509,0.262547,0.955504
457,1763,3.31772,-0.0218982,0.262546,0.955146
460,1760,3.31806,-0.0219701,0.262555,0.955137
463,1757,3.31729,-0.0218143,0.262547,0.955182
466,1754,3.31731,-0.0217626,0.26254,0.955189
469,1751,3.31723,-0.0226214,0.263009,0.954544
472,1748,3.31695,-0.0225796,0.263006,0.954549
475,1745,3.31702,-0.0230564,0.263005,0.954203
478,1742,3.31732,-0.0233793,0.263014,0.954307
481,1739,3.31683,-0.023445,0.263025,0.954304
484,1736,3.31936,-0.0202741,0.261407,0.95367
487,1733,3.31921,-0.0202788,0.261406,0.953672
490,1730,3.31811,-0.0203994,0.261878,0.953327
493,1727,3.31889,-0.020321,0.261396,0.953643
496,1724,3.31825,-0.0211829,0.26186,0.952985
499,1721,3.31762,-0.0212517,0.261866,0.952974
502,1718,3.31742,-0.0212404,0.26219,0.952939
505,1715,3.31805,-0.021901,0.261865,0.952723
508,1712,3.31685,-0.0220192,0.26235,0.952434
511,1709,3.31696,-0.0226776,0.262351,0.952198
514,1706,3.3172,-0.0207589,0.261887,0.952026
517,1703,3.31706,-0.0206948,0.261453,0.952058
520,1700,3.31611,-0.0216694,0.262359,0.951388
523,1697,3.31604,-0.0215415,0.262354,0.95143
526,1694,3.31609,-0.0217154,0.262355,0.951364
529,1691,3.31833,-0.0204524,0.261537,0.950906
532,1688,3.31825,-0.0203959,0.261199,0.950915
535,1685,3.31816,-0.0204691,0.261197,0.95089
538,1682,3.31865,-0.021141,0.261207,0.950658
541,1679,3.31857,-0.0191218,0.260743,0.950542
544,1676,3.31797,-0.0201366,0.261217,0.949881
547,1673,3.31775,-0.0201051,0.261211,0.949891
550,1670,3.31765,-0.0200984,0.261197,0.949848
553,1667,3.31684,-0.0222092,0.261661,0.949915
556,1664,3.31675,-0.0221301,0.261656,0.949735
559,1661,3.31669,-0.0228913,0.261656,0.949635
562,1658,3.31652,-0.0228163,0.261652,0.949645
565,1655,3.31613,-0.0228093,0.261654,0.949658
568,1652,3.31564,-0.0237993,0.262123,0.948986
571,1649,3.31542,-0.0237692,0.262121,0.948991
574,1646,3.31804,-0.0198119,0.260504,0.948663
577,1643,3.31725,-0.0207131,0.260978,0.948034
580,1640,3.31699,-0.0206931,0.261304,0.948015
583,1637,3.3175,-0.0207514,0.260963,0.947969
586,1634,3.3177,-0.0213848,0.26097,0.947736
589,1631,3.31704,-0.0213799,0.260966,0.94775
592,1628,3.31726,-0.0222232,0.260964,0.947429
595,1625,3.31742,-0.0223187,0.260963,0.947382
598,1622,3.3168,-0.0222133,0.260959,0.947401
601,1619,3.31598,-0.0232988,0.261771,0.946735
604,1616,3.31588,-0.0231807,0.261446,0.946797
607,1613,3.31611,-0.0237794,0.261451,0.946607
610,1610,3.31555,-0.0236747,0.261454,0.946641
613,1607,3.31521,-0.0237871,0.261452,0.94658
616,1604,3.31735,-0.0207887,0.260381,0.945534
619,1601,3.31699,-0.020935,0.260285,0.945488
622,1598,3.31699,-0.0208238,0.260282,0.945528
625,1595,3.31709,-0.0215077,0.260282,0.945262
628,1592,3.31625,-0.0215711,0.260757,0.944943
631,1589,3.31694,-0.0223905,0.260769,0.944676
634,1586,3.31774,-0.0222135,0.260304,0.945084
637,1583,3.31646,-0.0223717,0.260777,0.944726
640,1580,3.31622,-0.0231849,0.260773,0.944427
643,1577,3.31633,-0.0232995,0.260768,0.94436
646,1574,3.31594,-0.0232038,0.260755,0.944341
649,1571,3.3148,-0.0240498,0.261228,0.943708
652,1568,3.31517,-0.0242498,0.260749,0.944158
655,1565,3.31545,-0.0239618,0.260747,0.944025
658,1562,3.31692,-0.020814,0.25958,0.943038
661,1559,3.31655,-0.0209056,0.259245,0.943018
664,1556,3.31664,-0.0218508,0.260081,0.942415
667,1553,3.3164,-0.0217003,0.260084,0.942507
670,1550,3.31668,-0.0224461,0.260096,0.942271
673,1547,3.31668,-0.020329,0.259611,0.942125
676,1544,3.31655,-0.0224194,0.260089,0.94225
679,1541,3.31616,-0.0234424,0.260074,0.941833
682,1538,3.31596,-0.0234233,0.260072,0.941824
685,1535,3.31577,-0.0234694,0.260071,0.941811
688,1532,3.31478,-0.0242185,0.26055,0.941228
691,1529,3.31438,-0.0241689,0.260547,0.941229
694,1526,3.31758,-0.0209411,0.258928,0.940684
697,1523,3.31658,-0.0190037,0.258942,0.940228
700,1520,3.31637,-0.0197721,0.258944,0.939962
703,1517,3.31658,-0.0198887,0.258948,0.939922
706,1514,3.31662,-0.0206135,0.259419,0.939339
709,1511,3.3161,-0.0205377,0.259422,0.939379
712,1508,3.31628,-0.0204858,0.258946,0.939716
715,1505,3.31623,-0.0214128,0.259422,0.939058
718,1502,3.31576,-0.0214218,0.259423,0.93907
721,1499,3.3151,-0.0215035,0.259425,0.939035
724,1496,3.31503,-0.0223144,0.259431,0.938743
727,1493,3.31704,-0.0183181,0.258267,0.938114
730,1490,3.31689,-0.0190237,0.258268,0.937853
733,1487,3.3162,-0.0191435,0.258267,0.937793
736,1484,3.31661,-0.0197177,0.258255,0.93757
739,1481,3.31577,-0.019944,0.258753,0.937226
742,1478,3.31622,-0.0199259,0.258748,0.93722
745,1475,3.31624,-0.0206744,0.258748,0.937199
748,1472,3.31599,-0.0206859,0.258746,0.936945
751,1469,3.3156,-0.0214616,0.258749,0.936676
754,1466,3.31541,-0.0216046,0.258746,0.936601
757,1463,3.31482,-0.0225171,0.259233,0.935971
760,1460,3.31425,-0.0223703,0.259227,0.936029
763,1457,3.31403,-0.0223977,0.259233,0.936021
766,1454,3.31676,-0.019268,0.257576,0.935317
769,1451,3.316,-0.0191663,0.25805,0.935029
772,1448,3.31595,-0.0200454,0.258051,0.934703
775,1445,3.316,-0.0200052,0.258055,0.934728
778,1442,3.31681,-0.0199314,0.257568,0.935302
781,1439,3.31601,-0.0208089,0.258043,0.934404
784,1436,3.31538,-0.0207917,0.258047,0.934416
787,1433,3.31531,-0.0209041,0.258044,0.934365
790,1430,3.31526,-0.0216006,0.258037,0.934091
793,1427,3.31497,-0.0215374,0.258042,0.934133
796,1424,3.31424,-0.0225186,0.25853,0.933483
799,1421,3.31392,-0.022569,0.258533,0.933469
802,1418,3.31657,-0.0192194,0.256869,0.932834
805,1415,3.31676,-0.019197,0.256868,0.93283
808,1412,3.31687,-0.0191723,0.256865,0.932843
811,1409,3.31643,-0.0199603,0.256858,0.932541
814,1406,3.31602,-0.0201538,0.256861,0.932461
817,1403,3.31579,-0.0210388,0.257333,0.931802
820,1400,3.31545,-0.0209064,0.257325,0.931832
823,1397,3.31516,-0.0215993,0.257333,0.931606
826,1394,3.31471,-0.0218445,0.25792,0.931541
829,1391,3.31465,-0.0227173,0.257829,0.930946
832,1388,3.31425,-0.022549,0.257829,0.930991
835,1385,3.31666,-0.0192847,0.256168,0.930333
838,1382,3.31671,-0.0193414,0.256177,0.930336
841,1379,3.3171,-0.019473,0.25617,0.930322
844,1376,3.31561,-0.0202849,0.256653,0.929655
847,1373,3.31512,-0.0202209,0.256649,0.929676
850,1370,3.31514,-0.0210541,0.256647,0.929614
853,1367,3.31552,-0.0210764,0.256653,0.92937
856,1364,3.31426,-0.0219129,0.25714,0.92878
859,1361,3.31405,-0.0219042,0.257145,0.928805
862,1358,3.31445,-0.022694,0.257148,0.928534
865,1355,3.31745,-0.0187202,0.255845,0.928119
868,1352,3.31601,-0.0194252,0.255973,0.927565
871,1349,3.31521,-0.0195983,0.255969,0.927506
874,1346,3.31569,-0.0203025,0.255968,0.92725
877,1343,3.31575,-0.020337,0.255967,0.927228
880,1340,3.31474,-0.0211665,0.256452,0.926618
883,1337,3.3142,-0.021229,0.256451,0.926587
886,1334,3.31525,-0.0209422,0.255945,0.926927
889,1331,3.31499,-0.0220716,0.256424,0.926414
892,1328,3.31423,-0.0221459,0.25643,0.926175
895,1325,3.31373,-0.0229568,0.256428,0.925865
898,1322,3.31354,-0.0228618,0.256434,0.925749
901,1319,3.31583,-0.0196655,0.255259,0.924972
904,1316,3.31525,-0.0195524,0.255259,0.924996
907,1313,3.31464,-0.0206076,0.255742,0.924293
910,1310,3.31553,-0.0204189,0.255253,0.924678
913,1307,3.31529,-0.0214177,0.255741,0.924003
916,1304,3.31513,-0.0211392,0.255567,0.924384
919,1301,3.31407,-0.0212974,0.255717,0.923977
922,1298,3.314,-0.0221902,0.255738,0.923702
925,1295,3.31394,-0.022247,0.255738,0.923702
928,1292,3.31303,-0.0231575,0.25623,0.923058
931,1289,3.3155,-0.0190183,0.254553,0.922701
934,1286,3.31592,-0.0196336,0.255136,0.922512
937,1283,3.31604,-0.0206545,0.254555,0.922134
940,1280,3.31554,-0.0206378,0.254555,0.922147
943,1277,3.3147,-0.0215724,0.25504,0.921473
946,1274,3.31423,-0.0213894,0.255035,0.921522
949,1271,3.31413,-0.0215256,0.255032,0.921471
952,1268,3.31414,-0.0221366,0.255024,0.921226
955,1265,3.31348,-0.0223601,0.255523,0.920821
958,1262,3.31414,-0.0230623,0.25503,0.9209
961,1259,3.31353,-0.0231664,0.255027,0.920859
964,1256,3.31577,-0.0201583,0.253842,0.919781
967,1253,3.31529,-0.019792,0.253842,0.919919
970,1250,3.31453,-0.0208155,0.254324,0.919218
973,1247,3.31425,-0.0208275,0.254317,0.919173
976,1244,3.31483,-0.0230696,0.254805,0.919231
979,1241,3.31464,-0.0237615,0.254804,0.91898
982,1238,3.31389,-0.0238156,0.254803,0.918959
985,1235,3.31344,-0.0248011,0.254803,0.919916
988,1232,3.31352,-0.0235985,0.254822,0.917941
991,1229,3.31311,-0.0235463,0.254824,0.917959
994,1226,3.31489,-0.020002,0.253629,0.917053
997,1223,3.31537,-0.0197591,0.252608,0.91745
1000,1220,3.31589,-0.0208057,0.253126,0.917044
1003,1217,3.31569,-0.0208959,0.253123,0.917
1006,1214,3.31415,-0.0208038,0.253611,0.918204
1009,1211,3.31369,-0.0238991,0.254102,0.916466
1012,1208,3.31347,-0.0239724,0.254091,0.916407
1015,1205,3.31429,-0.0247331,0.254093,0.916136
1018,1202,3.31418,-0.0223693,0.25361,0.916121
1021,1199,3.31298,-0.023584,0.254113,0.915433
1024,1196,3.31534,-0.0201875,0.252999,0.914786
1027,1193,3.31564,-0.0201261,0.252432,0.914843
1030,1190,3.31531,-0.0199574,0.252415,0.914851
1033,1187,3.31415,-0.0209992,0.252919,0.914203
1036,1184,3.31457,-0.0217569,0.252918,0.913938
1039,1181,3.31481,-0.0219446,0.25292,0.913876
1042,1178,3.31468,-0.0219723,0.252913,0.913843
1045,1175,3.31313,-0.0227177,0.253407,0.91325
1048,1172,3.3126,-0.0227844,0.253408,0.913236
1051,1169,3.31281,-0.0237199,0.253403,0.912892
1054,1166,3.31614,-0.0194928,0.25172,0.912553
1057,1163,3.31521,-0.0202574,0.252219,0.911989
1060,1160,3.31443,-0.0204007,0.252219,0.911951
1063,1157,3.31433,-0.0211513,0.252215,0.911685
1066,1154,3.31478,-0.0219707,0.252214,0.911391
1069,1151,3.31365,-0.0221827,0.252717,0.910995
1072,1148,3.31348,-0.0220521,0.252715,0.911038
1075,1145,3.31353,-0.022906,0.252704,0.910716
1078,1142,3.31334,-0.0230004,0.252704,0.910675
1081,1139,3.31304,-0.0239276,0.252704,0.910347
1084,1136,3.31263,-0.0235768,0.252696,0.910464
1087,1133,3.3142,-0.0203818,0.251494,0.909391
1090,1130,3.31456,-0.0203844,0.251492,0.909375
1093,1127,3.31481,-0.0211771,0.251496,0.90912
1096,1124,3.31426,-0.0213638,0.251501,0.909071
1099,1121,3.31359,-0.0221741,0.251988,0.908441
1102,1118,3.31309,-0.0222695,0.252004,0.908459
1105,1115,3.3123,-0.0231792,0.252497,0.907794
1108,1112,3.31316,-0.0230542,0.251991,0.90816
1111,1109,3.31329,-0.023072,0.251985,0.908118
1114,1106,3.31203,-0.0240919,0.252484,0.907445
1117,1103,3.3148,-0.0194388,0.250267,0.90749
1120,1100,3.31359,-0.0226506,0.251254,0.906847
1123,1097,3.31408,-0.0228895,0.251262,0.906797
1126,1094,3.31454,-0.0235897,0.251846,0.906571
1129,1091,3.31414,-0.0212402,0.250763,0.906533
1132,1088,3.31274,-0.0224277,0.251265,0.90581
1135,1085,3.313011,-0.0231754,0.251279,0.905599
1138,1082,3.31299,-0.0233194,0.251272,0.905514
1141,1079,3.31307,-0.0231389,0.251268,0.905561
1144,1076,3.31199,-0.0241137,0.251767,0.904904
1147,1073,3.3119,-0.0241327,0.251259,0.9052
1150,1070,3.3143,-0.0207187,0.250044,0.904183
1153,1067,3.31427,-0.0207164,0.25005,0.904206
1156,1064,3.31317,-0.0214607,0.250876,0.90363
1159,1061,3.31364,-0.0224889,0.250574,0.903363
1162,1058,3.31325,-0.0225554,0.25058,0.903389
1165,1055,3.31349,-0.0234144,0.250579,0.903058
1168,1052,3.31227,-0.0233465,0.251064,0.902684
1171,1049,3.31181,-0.0242857,0.25107,0.902397
1174,1046,3.31198,-0.0241674,0.251374,0.9024
1177,1043,3.31485,-0.0208249,0.249337,0.901675
1180,1040,3.31435,-0.0208409,0.249336,0.901646
1183,1037,3.31378,-0.0206837,0.249334,0.901709
1186,1034,3.31288,-0.0217345,0.249831,0.900999
1189,1031,3.31306,-0.0238812,0.250905,0.899765
1192,1028,3.31359,-0.0226272,0.24983,0.900692
1195,1025,3.3129,-0.0227145,0.250161,0.900726
1198,1022,3.31214,-0.0237812,0.250355,0.900049
1201,1019,3.31176,-0.0236944,0.25035,0.900069
1204,1016,3.31206,-0.0242995,0.250349,0.899858
1207,1013,3.31458,-0.0200107,0.248612,0.899419
1210,1010,3.31419,-0.0209829,0.248856,0.899056
1213,1007,3.31407,-0.0208187,0.248606,0.89911
1216,1004,3.3131,-0.0218183,0.249105,0.898427
1219,1001,3.31306,-0.0218333,0.249108,0.898431
1222,998,3.31326,-0.0226141,0.249108,0.898182
1225,995,3.31261,-0.022905,0.249099,0.898032
1228,992,3.31211,-0.0235936,0.249612,0.897502
1231,989,3.31115,-0.0236954,0.24962,0.897482
1234,986,3.31168,-0.0245136,0.249613,0.897187
1237,983,3.31451,-0.0208707,0.248189,0.895221
1240,980,3.31353,-0.0212862,0.248398,0.896137
1243,977,3.31336,-0.0217923,0.248401,0.895974
1246,974,3.31206,-0.0221714,0.248914,0.895515
1249,971,3.31271,-0.0228375,0.248908,0.895284
1252,968,3.31254,-0.0229506,0.248909,0.895247
1255,965,3.31232,-0.0238593,0.24891,0.894943
1258,962,3.31142,-0.0237438,0.248913,0.895
1261,959,3.3108,-0.0248503,0.249426,0.894308
1264,956,3.31464,-0.0201937,0.247173,0.894315
1267,953,3.31376,-0.0212532,0.247693,0.893664
1270,950,3.31281,-0.0221782,0.2482,0.893029
1273,947,3.31231,-0.0221198,0.248197,0.893031
1276,944,3.3124,-0.0222841,0.248202,0.892988
1279,941,3.31277,-0.0230458,0.248196,0.8927
1282,938,3.31194,-0.0231717,0.248587,0.892606
1285,935,3.31165,-0.0239112,0.248182,0.892372
1288,932,3.31049,-0.0240449,0.248781,0.891996
1291,929,3.31124,-0.0250273,0.248693,0.891655
1294,926,3.31418,-0.0203139,0.246441,0.891721
1297,923,3.31305,-0.021143,0.246958,0.891146
1300,920,3.31238,-0.0223697,0.247473,0.89042
1303,917,3.31239,-0.0222102,0.247479,0.890477
1306,914,3.31272,-0.0232684,0.247474,0.890127
1309,911,3.31209,-0.0231598,0.247474,0.890147
1312,908,3.31101,-0.0240947,0.24797,0.88945
1315,905,3.31129,-0.0240026,0.247456,0.889787
1318,902,3.31131,-0.0250859,0.24796,0.88908
1321,899,3.31059,-0.0252345,0.247961,0.889022
1324,896,3.31299,-0.0212946,0.246196,0.888414
1327,893,3.31248,-0.0214394,0.246197,0.888368
1330,890,3.31254,-0.0224705,0.24671,0.88791
1333,887,3.3123,-0.0224233,0.246708,0.887712
1336,884,3.31179,-0.0233725,0.246704,0.88761
1339,881,3.31096,-0.0241934,0.24723,0.886803
1342,878,3.31085,-0.024282,0.247223,0.886739
1345,875,3.31169,-0.0241937,0.246705,0.887119
1348,872,3.3105,-0.0252134,0.247215,0.886418
1351,869,3.31281,-0.0206732,0.245447,0.886
1354,866,3.31193,-0.0216426,0.245962,0.885349
1357,863,3.31277,-0.0239277,0.245961,0.885742
1360,860,3.31173,-0.0250891,0.246482,0.885025
1363,857,3.31148,-0.0257141,0.246474,0.885037
1366,854,3.3104,-0.0261294,0.247317,0.884131
1369,851,3.31106,-0.0244236,0.246491,0.884133
1372,848,3.31076,-0.0245577,0.246493,0.884105
1375,845,3.31029,-0.0252903,0.246501,0.883872
1378,842,3.3121,-0.0218267,0.245251,0.882787
1381,839,3.31252,-0.0218241,0.245245,0.882776
1384,836,3.31217,-0.0226008,0.245237,0.882484
1387,833,3.31179,-0.0227314,0.245232,0.882429
1390,830,3.31076,-0.0236699,0.245754,0.88179
1393,827,3.31093,-0.023663,0.245747,0.881783
1396,824,3.3107,-0.0246195,0.245754,0.881496
1399,821,3.30976,-0.0280252,0.246791,0.880811
1402,818,3.30935,-0.0256686,0.246276,0.880791
1405,815,3.31245,-0.0217596,0.244501,0.880427
1408,812,3.31176,-0.0218658,0.244505,0.880193
1411,809,3.31104,-0.0229142,0.245337,0.879519
1414,806,3.31111,-0.0239565,0.245036,0.879195
1417,803,3.31143,-0.0236265,0.245026,0.879275
1420,800,3.30975,-0.0249523,0.246135,0.87848
1423,797,3.30992,-0.0247165,0.245021,0.878888
1426,794,3.30923,-0.0258037,0.245948,0.878194
1429,791,3.31267,-0.0210638,0.243758,0.877832
1432,788,3.31129,-0.022275,0.244282,0.877089
1435,785,3.31096,-0.0230775,0.24428,0.876822
1438,782,3.31036,-0.022969,0.24428,0.876864
1441,779,3.31095,-0.0239507,0.244284,0.876549
1444,776,3.31002,-0.0251245,0.245117,0.875855
1447,773,3.30944,-0.0250593,0.244807,0.875869
1450,770,3.30892,-0.0260403,0.245344,0.875213
1453,767,3.31215,-0.0211908,0.243014,0.875214
1456,764,3.31094,-0.022301,0.243544,0.874502
1459,761,3.31001,-0.0233498,0.24407,0.873812
1462,758,3.31118,-0.0232354,0.243544,0.87421
1465,755,3.3101,-0.0242121,0.244479,0.873556
1468,752,3.30992,-0.0251615,0.244077,0.873251
1471,749,3.30834,-0.0251511,0.244604,0.872919
1474,746,3.30875,-0.0262015,0.244602,0.872585
1477,743,3.31118,-0.022418,0.242804,0.871889
1480,740,3.31108,-0.0224477,0.242812,0.871904
1483,737,3.31071,-0.0233798,0.243339,0.871245
1486,734,3.31013,-0.0234312,0.24334,0.871241
1489,731,3.30933,-0.0244136,0.243337,0.87092
1492,728,3.30854,-0.0253675,0.244461,0.870269
1495,725,3.30992,-0.0253291,0.243335,0.870615
1498,722,3.30854,-0.0265167,0.243868,0.869899
1501,719,3.31115,-0.022421,0.242057,0.869284
1504,716,3.31008,-0.0225981,0.242589,0.868871
1507,713,3.31016,-0.0236799,0.242586,0.868522
1510,710,3.30908,-0.0246592,0.243122,0.867875
1513,707,3.30841,-0.0247711,0.243525,0.867847
1516,704,3.30935,-0.0255718,0.243129,0.867612
1519,701,3.30874,-0.0266184,0.243131,0.867293
1522,698,3.31035,-0.021694,0.241851,0.866604
1525,695,3.30992,-0.0227339,0.241851,0.866261
1528,692,3.31004,-0.0236324,0.24185,0.865985
1531,689,3.30926,-0.0248316,0.242383,0.86525
1534,686,3.30898,-0.0249143,0.242379,0.865197
1537,683,3.30926,-0.0255994,0.242374,0.864977
1540,680,3.3083,-0.0257128,0.242376,0.864954
1543,677,3.30712,-0.0266225,0.242912,0.8643
1546,674,3.31056,-0.0229579,0.241092,0.863533
1549,671,3.30978,-0.0228787,0.241087,0.86354
1552,668,3.30878,-0.0239307,0.241632,0.862892
1555,665,3.30844,-0.0249754,0.242168,0.862204
1558,662,3.30859,-0.0259821,0.242169,0.861898
1561,659,3.30755,-0.0258697,0.242173,0.861946
1564,656,3.30626,-0.0270437,0.242715,0.861234
1567,653,3.31032,-0.0229237,0.24034,0.860933
1570,650,3.30913,-0.0232697,0.240878,0.860469
1573,647,3.30898,-0.0241215,0.240879,0.8602
1576,644,3.30848,-0.0250875,0.241421,0.861065
1579,641,3.30804,-0.0261548,0.241416,0.859209
1582,638,3.3071,-0.0260798,0.241718,0.859229
1585,635,3.30695,-0.0272111,0.241956,0.858507
1588,632,3.30906,-0.0232384,0.240109,0.857791
1591,629,3.30887,-0.0242157,0.240118,0.857515
1594,626,3.30895,-0.0241922,0.240105,0.85747
1597,623,3.30801,-0.0254585,0.240645,0.856716
1600,620,3.30774,-0.0262112,0.240645,0.856487
1603,617,3.30674,-0.0264233,0.241194,0.856069
1606,614,3.30623,-0.0274107,0.241192,0.855761
1609,611,3.30898,-0.0233907,0.239341,0.855057
1612,608,3.30896,-0.0232459,0.239336,0.855089
1615,605,3.30839,-0.0243769,0.239337,0.854725
1618,602,3.30735,-0.0252991,0.239875,0.85407
1621,599,3.30695,-0.0265801,0.240719,0.853308
1624,596,3.30722,-0.0264926,0.239871,0.853686
1627,593,3.30896,-0.0225519,0.238566,0.852615
1630,590,3.308,-0.0236128,0.239115,0.851927
1633,587,3.30789,-0.0247554,0.239121,0.851593
1636,584,3.30759,-0.0255037,0.239122,0.851384
1639,581,3.30696,-0.0267435,0.239678,0.85065
1642,578,3.30618,-0.0268576,0.239673,0.850618
1645,575,3.30573,-0.0276791,0.239671,0.850346
1648,572,3.30856,-0.0238124,0.238347,0.849188
1651,569,3.30723,-0.025103,0.239186,0.84839
1654,566,3.30727,-0.0246792,0.238337,0.848876
1657,563,3.30675,-0.0258616,0.238883,0.848149
1660,560,3.30623,-0.0269794,0.238878,0.84778
1663,557,3.30499,-0.0280824,0.23943,0.847077
1666,554,3.30782,-0.0256627,0.238106,0.846607
1669,551,3.30746,-0.0239345,0.237553,0.845202
1672,548,3.30641,-0.025118,0.238112,0.845661
1675,545,3.30668,-0.0260589,0.238112,0.845384
1678,542,3.30516,-0.0272148,0.238674,0.844693
1681,539,3.30519,-0.028169,0.238673,0.844401
1684,536,3.30828,-0.0241172,0.236789,0.843655
1687,533,3.30705,-0.025017,0.237341,0.843
1690,530,3.30668,-0.025205,0.237337,0.842931
1693,527,3.30575,-0.0289867,0.237885,0.842513
1696,524,3.30471,-0.030056,0.23845,0.841827
1699,521,3.30507,-0.0309798,0.238449,0.841535
1702,518,3.30639,-0.0271245,0.237711,0.840339
1705,515,3.30598,-0.0271174,0.237112,0.840351
1708,512,3.30617,-0.0280327,0.237104,0.840061
1711,509,3.30505,-0.0293162,0.23768,0.839334
1714,506,3.30483,-0.0302901,0.237678,0.839034
1717,503,3.30353,-0.0314625,0.238844,0.838318
1720,500,3.30645,-0.0244859,0.235785,0.837726
1723,497,3.30697,-0.02548,0.235785,0.837439
1726,494,3.30499,-0.0292363,0.236912,0.836669
1729,491,3.30408,-0.0306459,0.237475,0.835852
1732,488,3.30364,-0.0316359,0.237472,0.835562
1735,485,3.30563,-0.0273758,0.236125,0.835662
1738,482,3.30563,-0.0274514,0.236124,0.834441
1741,479,3.30495,-0.0293817,0.236117,0.833849
1744,476,3.30388,-0.0297178,0.236693,0.833383
1747,473,3.30345,-0.0309625,0.236693,0.833026
1750,470,3.30206,-0.0320254,0.237556,0.832345
1753,467,3.30616,-0.0250825,0.234778,0.83171
1756,464,3.30513,-0.0260975,0.234847,0.831395
1759,461,3.30467,-0.0272401,0.235352,0.830699
1762,458,3.30399,-0.0282644,0.23536,0.830443
1765,455,3.30258,-0.029476,0.235929,0.829692
1768,452,3.30608,-0.0250634,0.233999,0.828989
1771,449,3.30468,-0.0263529,0.234567,0.828212
1774,446,3.30456,-0.0272575,0.234566,0.82794
1777,443,3.30291,-0.0285404,0.235141,0.827193
1780,440,3.30234,-0.0294603,0.235133,0.82692
1783,437,3.30495,-0.0254485,0.233776,0.825729
1786,434,3.30429,-0.0262973,0.233778,0.825478
1789,431,3.30354,-0.0276975,0.234423,0.824692
1792,428,3.30257,-0.0287448,0.234352,0.824376
1795,425,3.30159,-0.0298625,0.234937,0.823688
1798,422,3.30449,-0.0257027,0.23299,0.822902
1801,419,3.30317,-0.0267112,0.233574,0.822242
1804,416,3.30319,-0.0279269,0.233577,0.821904
1807,413,3.30253,-0.0287901,0.233573,0.821648
1810,410,3.30539,-0.0248004,0.232194,0.820392
1813,407,3.30358,-0.0260041,0.232769,0.81963
1816,404,3.30363,-0.0270213,0.232776,0.819355
1819,401,3.3027,-0.0281867,0.232769,0.818997
1822,398,3.30175,-0.0293755,0.233357,0.818283
1825,395,3.30487,-0.0249887,0.231389,0.817532
1828,392,3.30331,-0.0260734,0.231967,0.816815
1831,389,3.30338,-0.0272018,0.231969,0.816487
1834,386,3.30194,-0.028437,0.23256,0.815748
1837,383,3.30227,-0.0304132,0.232557,0.815192
1840,380,3.30395,-0.0263483,0.231175,0.813963
1843,377,3.30376,-0.0273665,0.231183,0.813697
1846,374,3.30206,-0.0284922,0.231766,0.812987
1849,371,3.30215,-0.0296446,0.231769,0.812664
1852,368,3.30396,-0.0254845,0.23037,0.8114
1855,365,3.30295,-0.0264684,0.230957,0.810703
1858,362,3.302375,-0.0286418,0.230952,0.810082
1861,359,3.30099,-0.0290213,0.231548,0.809574
1864,356,3.30058,-0.0301921,0.231545,0.809243
1867,353,3.30279,-0.0268108,0.230137,0.80774
1870,350,3.30263,-0.0279231,0.230133,0.807413
1873,347,3.30093,-0.0291848,0.230732,0.806884
1876,344,3.30058,-0.0303315,0.230728,0.806353
1879,341,3.29969,-0.0314035,0.230732,0.806059
1882,338,3.30258,-0.0270891,0.229943,0.80485
1885,335,3.30122,-0.0293063,0.229935,0.803853
1888,332,3.30088,-0.0305377,0.229954,0.803597
1891,329,3.29893,-0.0317409,0.230539,0.802775
1894,326,3.30232,-0.0270836,0.228494,0.801953
1897,323,3.30055,-0.0285555,0.229091,0.801098
1900,320,3.30054,-0.0295839,0.229083,0.800794
1903,317,3.29875,-0.0308149,0.229686,0.800025
1906,314,3.30212,-0.0273119,0.227651,0.798938
1909,311,3.30034,-0.0285493,0.228254,0.798174
1912,308,3.30049,-0.0268694,0.228037,0.797986
1915,305,3.29855,-0.0310563,0.228857,0.797055
1918,302,3.30204,-0.0234634,0.226198,0.796414
1921,299,3.30075,-0.0257179,0.226805,0.79538
1924,296,3.29973,-0.0387909,0.226804,0.795034
1927,293,3.29876,-0.0283574,0.227428,0.794287
1930,290,3.30181,-0.0324883,0.224765,0.793673
1933,287,3.30089,-0.0347978,0.225636,0.792649
1936,284,3.30063,-0.0330791,0.224765,0.792477
1939,281,3.29991,-0.0312155,0.224767,0.79192
1942,278,3.30237,-0.0266407,0.222702,0.791059
1945,275,3.30151,-0.0278268,0.223681,0.790306
1948,272,3.30061,-0.0390159,0.222694,0.78985
1951,269,3.29982,-0.0403389,0.223293,0.789087
1954,266,3.30222,-0.0356577,0.221236,0.786799
1957,263,3.30224,-0.0337099,0.220633,0.788158
1960,260,3.30056,-0.0361801,0.22123,0.787088
1963,257,3.29946,-0.0374487,0.221829,0.786322
1966,254,3.30237,-0.0296057,0.219163,0.785726
1969,251,3.30216,-0.0309429,0.219169,0.785391
1972,248,3.3006,-0.0333198,0.220141,0.784319
1975,245,3.29971,-0.0315354,0.21977,0.783783
1978,242,3.30128,-0.030093,0.2189,0.782347
1981,239,3.3017,-0.0263113,0.217711,0.782099
1984,236,3.30039,-0.0275117,0.218306,0.781361
1987,233,3.29959,-0.0408684,0.218298,0.78103
1990,230,3.30268,-0.0358564,0.216221,0.780279
1993,227,3.30159,-0.0354382,0.216218,0.779316
1996,224,3.30135,-0.0365606,0.216213,0.779018
1999,221,3.29984,-0.0350066,0.216589,0.778371
2002,218,3.30376,-0.0270312,0.213549,0.777777
2005,215,3.30231,-0.0294565,0.214138,0.776726
2008,212,3.30226,-0.0277023,0.213546,0.776547
2011,209,3.30045,-0.0289019,0.214134,0.775819
2014,206,3.30363,-0.0241838,0.212053,0.775019
2017,203,3.30165,-0.0285143,0.213229,0.774095
2020,200,3.30124,-0.0403451,0.212635,0.773553
2023,197,3.29964,-0.041343,0.21322,0.772861
2026,194,3.30218,-0.0338705,0.211129,0.771708
2029,191,3.30246,-0.0326826,0.210545,0.771392
2032,188,3.30133,-0.0339904,0.21054,0.771045
2035,185,3.30129,-0.0352199,0.210589,0.770732
2038,182,3.30337,-0.027233,0.20844,0.769681
2041,179,3.30377,-0.0265676,0.20786,0.76922
2044,176,3.30186,-0.0279952,0.208445,0.768436
2047,173,3.30097,-0.0414335,0.208436,0.768135
2050,170,3.30328,-0.0243972,0.206916,0.766866
2053,167,3.30295,-0.0360463,0.206339,0.766421
2056,164,3.30157,-0.0373702,0.206917,0.765667
2059,161,3.30181,-0.033447,0.205756,0.765365
2062,158,3.30534,-0.0285365,0.203667,0.764615
2065,155,3.30382,-0.0267862,0.203659,0.763986
2068,152,3.30325,-0.0403691,0.20365,0.76365
2071,149,3.30176,-0.0306002,0.204575,0.762558
2074,146,3.30447,-0.0380106,0.202116,0.761809
2077,143,3.30347,-0.0391176,0.202115,0.761518
2080,140,3.30256,-0.0376372,0.202111,0.760835
2083,137,3.30126,-0.040283,0.202693,0.759776
2086,134,3.30467,-0.0320399,0.200016,0.759203
2089,131,3.30464,-0.0298162,0.19945,0.759123
2092,128,3.30316,-0.0325959,0.200015,0.75801
2095,125,3.30721,-0.0247024,0.197351,0.757354
2098,122,3.30611,-0.0267927,0.197344,0.756811
2101,119,3.30467,-0.0409115,0.1979,0.75599
2104,116,3.30396,-0.0293929,0.197898,0.755739
2107,113,3.30638,-0.03525,0.195786,0.754329
2110,110,3.30518,-0.0395661,0.19634,0.753888
2113,107,3.30525,-0.0345612,0.195224,0.753843
2116,104,3.30451,-0.0339201,0.195223,0.752942
2119,101,3.30755,-0.0289639,0.19312,0.7522
2122,98,3.3074,-0.0405439,0.192572,0.751803
2125,95,3.3055,-0.0419591,0.193117,0.751042
2128,92,3.30893,-0.0372504,0.191009,0.75022
2131,89,3.30699,-0.0398437,0.191551,0.749143
2134,86,3.30688,-0.0377308,0.190996,0.749011
2137,83,3.30529,-0.0405451,0.191542,0.747899
2140,80,3.30917,-0.0292608,0.188339,0.747389
2143,77,3.30773,-0.0317957,0.189204,0.746324
2146,74,3.30728,-0.029974,0.188333,0.746138
2149,71,3.31049,-0.0385817,0.186218,0.745119
2152,68,3.30948,-0.0398023,0.186215,0.744816
2155,65,3.30883,-0.0393114,0.186239,0.743874
2158,62,3.31129,-0.0341306,0.184094,0.743159
2161,59,3.31135,-0.0334585,0.183568,0.742668
2164,56,3.30953,-0.0350202,0.184094,0.741896
2167,53,3.3097,-0.0310279,0.183047,0.741584
2170,50,3.31161,-0.0294728,0.181969,0.740207
2173,47,3.310908,-0.0413015,0.181472,0.73977
2176,44,3.31012,-0.0405383,0.181449,0.738893
2179,41,3.31289,-0.0356767,0.179326,0.738099
2182,38,3.31358,-0.0316476,0.178301,0.737779
2185,35,3.31109,-0.0375114,0.17932,0.736561
2188,32,3.31596,-0.0257909,0.175681,0.736572
2191,29,3.31395,-0.0317397,0.176685,0.735335
2194,26,3.3122,-0.0437924,0.176682,0.734423
2197,23,3.31556,-0.0261631,0.174558,0.733642
2200,20,3.31384,-0.0382483,0.174554,0.732726
2203,17,3.31757,-0.0311642,0.171931,0.731806
2206,14,3.3163,-0.0306449,0.171928,0.73086
2209,11,3.31634,-0.0298589,0.171432,0.730389
2212,8,3.31806,-0.026262,0.169797,0.728861
2215,5,3.31762,-0.0382033,0.169308,0.728392
2217,3,3.31692,-0.0394546,0.169305,0.728081