File: hust_correlation_analysis/matrices/HUST_10-5_cycle_feature_matrix.csv
cycle_number,rul,voltage,current,capacity,charge_capacity
1,2032,3.30997,0.0257154,0.281011,1.04889
3,2030,3.29563,-0.00805278,0.295396,1.01884
5,2028,3.29777,-0.00805846,0.294617,1.02188
7,2026,3.30012,-0.00798116,0.293436,1.02509
9,2024,3.30048,-0.0108238,0.293927,1.02836
11,2022,3.30237,-0.00845548,0.292338,1.03053
13,2020,3.3027,-0.00958632,0.29229,1.0326
15,2018,3.3038,-0.00775884,0.290837,1.03428
17,2016,3.30511,-0.00719703,0.290062,1.03501
19,2014,3.30444,-0.00893737,0.290518,1.03633
21,2012,3.30518,-0.0082966,0.289752,1.0371
23,2010,3.30541,-0.00843699,0.289373,1.03723
25,2008,3.30641,-0.00762926,0.288604,1.03807
27,2006,3.30709,-0.00768901,0.288211,1.03819
29,2004,3.30788,-0.00661798,0.287448,1.03918
31,2002,3.30837,-0.00660005,0.287067,1.03938
33,2000,3.30684,-0.00894604,0.2879,1.04007
35,1998,3.30679,-0.00902927,0.287895,1.04
37,1996,3.30779,-0.00892644,0.28751,1.04022
39,1994,3.30789,-0.00902259,0.287781,1.04014
41,1992,3.30839,-0.00844317,0.287118,1.04065
43,1990,3.30828,-0.00849067,0.287116,1.04062
45,1988,3.30849,-0.00852905,0.286742,1.04105
47,1986,3.3085,-0.00854473,0.286743,1.04078
49,1984,3.30854,-0.00977736,0.286736,1.04128
51,1982,3.30916,-0.00905571,0.286375,1.04065
53,1980,3.30917,-0.00904574,0.286366,1.03933
55,1978,3.30869,-0.00905446,0.286791,1.04064
57,1976,3.30914,-0.00902737,0.285979,1.04081
59,1974,3.31092,-0.00625658,0.284774,1.04055
61,1972,3.31109,-0.00677821,0.28477,1.04021
63,1970,3.31114,-0.00681317,0.284769,1.0402
65,1968,3.31069,-0.00676627,0.284767,1.04048
67,1966,3.31046,-0.00747369,0.284777,1.0398
69,1964,3.31064,-0.00774114,0.284751,1.0396
71,1962,3.31042,-0.00797418,0.284795,1.03957
73,1960,3.31052,-0.00838409,0.284794,1.03931
75,1958,3.31028,-0.0084677,0.284796,1.03925
77,1956,3.31055,-0.00834061,0.284417,1.0395
79,1954,3.31012,-0.00904788,0.284788,1.03889
81,1952,3.31015,-0.00901218,0.284791,1.03891
83,1950,3.31012,-0.00905704,0.284787,1.03888
85,1948,3.31194,-0.00619049,0.283573,1.03867
87,1946,3.31158,-0.00680386,0.283941,1.0381
89,1944,3.31135,-0.00681825,0.283578,1.03825
91,1942,3.31096,-0.00741757,0.283954,1.03777
93,1940,3.31114,-0.00791982,0.283971,1.03751
95,1938,3.31113,-0.00787463,0.283971,1.03755
97,1936,3.31125,-0.00839385,0.283887,1.03721
99,1934,3.31087,-0.0083654,0.283963,1.03721
101,1932,3.31078,-0.00843989,0.283962,1.03717
103,1930,3.31065,-0.00843071,0.284383,1.03712
105,1928,3.31088,-0.00903641,0.283951,1.03675
107,1926,3.31032,-0.00909529,0.284323,1.03656
109,1924,3.31074,-0.00901818,0.283954,1.03676
111,1922,3.31181,-0.00680107,0.28312,1.036
113,1920,3.31175,-0.00677059,0.283128,1.03605
115,1918,3.31194,-0.00726124,0.28314,1.03576
117,1916,3.31199,-0.00731802,0.283142,1.03575
119,1914,3.31161,-0.00782913,0.283504,1.03524
121,1912,3.31174,-0.00778252,0.283131,1.0357
123,1910,3.31172,-0.00777778,0.283116,1.03539
125,1908,3.31125,-0.00792406,0.283488,1.03514
127,1906,3.31146,-0.00839947,0.283483,1.03483
129,1904,3.3113,-0.00837833,0.283482,1.03482
131,1902,3.31117,-0.00838002,0.283768,1.03484
133,1900,3.31054,-0.00905385,0.283861,1.03425
135,1898,3.31065,-0.00914357,0.28388,1.03425
137,1896,3.3125,-0.0066531,0.282765,1.03384
139,1894,3.31249,-0.00667223,0.28268,1.03385
141,1892,3.31255,-0.00713655,0.282681,1.03355
143,1890,3.31233,-0.0071663,0.282679,1.03353
145,1888,3.31218,-0.00721842,0.282679,1.03349
147,1886,3.31189,-0.00783953,0.28305,1.03292
149,1884,3.31189,-0.00783693,0.283047,1.03294
151,1882,3.3118,-0.00779723,0.283048,1.03295
153,1880,3.31164,-0.00778061,0.283043,1.03295
155,1878,3.31119,-0.00839275,0.283416,1.0324
157,1876,3.31113,-0.00840257,0.28342,1.0324
159,1874,3.31132,-0.00835494,0.283423,1.03245
161,1872,3.31124,-0.00888877,0.283425,1.03212
163,1870,3.31171,-0.00609676,0.282959,1.0315
165,1868,3.31292,-0.00658619,0.282588,1.03138
167,1866,3.31218,-0.00665498,0.282585,1.03132
169,1864,3.31228,-0.00662477,0.282583,1.03134
171,1862,3.31237,-0.00658313,0.282582,1.03137
173,1860,3.31239,-0.0071305,0.28258,1.03103
175,1858,3.31208,-0.00717534,0.282582,1.031
177,1856,3.31198,-0.00720283,0.282572,1.03095
179,1854,3.31197,-0.00721145,0.282575,1.03095
181,1852,3.31167,-0.00784026,0.28295,1.03039
183,1850,3.31162,-0.00784103,0.282951,1.03039
185,1848,3.31157,-0.00773958,0.282935,1.03041
187,1846,3.31085,-0.00743584,0.283281,1.03033
189,1844,3.31067,-0.00797801,0.283313,1.03009
191,1842,3.31086,-0.00845208,0.283315,1.0298
193,1840,3.31078,-0.00845513,0.283316,1.0298
195,1838,3.31086,-0.00844196,0.283403,1.02981
197,1836,3.31058,-0.00847003,0.283311,1.02977
199,1834,3.31025,-0.00915575,0.283687,1.02919
201,1832,3.30986,-0.00915652,0.283691,1.02919
203,1830,3.31039,-0.00916775,0.283741,1.02936
205,1828,3.31184,-0.00680115,0.282478,1.02866
207,1826,3.3116,-0.00684103,0.282476,1.02864
209,1824,3.31114,-0.00679412,0.282477,1.02867
211,1822,3.31126,-0.00679617,0.282624,1.02867
213,1820,3.31086,-0.00740005,0.282852,1.02811
215,1818,3.3114,-0.00735131,0.282474,1.0283
217,1816,3.31105,-0.00736802,0.283256,1.02807
219,1814,3.31076,-0.00740432,0.282818,1.02798
221,1812,3.31046,-0.0074684,0.283174,1.02771
223,1810,3.31055,-0.00751747,0.283167,1.02765
225,1808,3.31101,-0.0075141,0.283148,1.02735
227,1806,3.31049,-0.00908541,0.283535,1.02777
229,1804,3.31017,-0.00844583,0.28351,1.02806
231,1802,3.30938,-0.00892827,0.283901,1.02762
233,1800,3.30941,-0.00883245,0.2839,1.02766
235,1798,3.31028,-0.00915074,0.283525,1.02768
237,1796,3.31002,-0.00977578,0.283899,1.02738
239,1794,3.30979,-0.00975335,0.283899,1.02712
241,1792,3.30974,-0.00983631,0.283898,1.02708
243,1790,3.30984,-0.00976584,0.283982,1.02711
245,1788,3.31005,-0.0103667,0.283891,1.02674
247,1786,3.30982,-0.0103625,0.283891,1.02673
249,1784,3.30969,-0.0104295,0.283902,1.02673
251,1782,3.30937,-0.0108524,0.283912,1.02651
253,1780,3.31095,-0.00711346,0.282708,1.02555
255,1778,3.31135,-0.0069264,0.282331,1.02585
257,1776,3.31144,-0.00687972,0.282331,1.02588
259,1774,3.31089,-0.00752736,0.282702,1.02529
261,1772,3.31093,-0.00754357,0.282782,1.02526
263,1770,3.31079,-0.00760095,0.282692,1.02523
265,1768,3.31051,-0.00904763,0.283069,1.02544
267,1766,3.31051,-0.00908643,0.283069,1.02542
269,1764,3.31043,-0.00908548,0.283068,1.0254
271,1762,3.31008,-0.0082868,0.283073,1.02463
273,1760,3.31006,-0.00823568,0.282714,1.0249
275,1758,3.31008,-0.00863048,0.28272,1.02467
277,1756,3.31007,-0.00871163,0.28272,1.02464
279,1754,3.30978,-0.00932146,0.282885,1.0241
281,1752,3.30954,-0.0093448,0.283091,1.02405
283,1750,3.30936,-0.00940206,0.283087,1.02399
285,1748,3.30911,-0.00942672,0.283092,1.02399
287,1746,3.30937,-0.00932956,0.283074,1.02401
289,1744,3.3088,-0.0093951,0.283452,1.02378
291,1742,3.30862,-0.00940351,0.283449,1.02376
293,1740,3.31023,-0.00708494,0.28223,1.02317
295,1738,3.3102,-0.00706191,0.28225,1.02326
297,1736,3.31049,-0.00758899,0.282255,1.02295
299,1734,3.31059,-0.00757182,0.282259,1.02297
301,1732,3.31044,-0.00750727,0.282259,1.02303
303,1730,3.31032,-0.00756772,0.282259,1.023
305,1728,3.31053,-0.0080994,0.282252,1.02265
307,1726,3.31067,-0.00812556,0.282252,1.02262
309,1724,3.31051,-0.00806909,0.282337,1.02265
311,1722,3.3101,-0.00815755,0.28262,1.0224
313,1720,3.31031,-0.00809903,0.282243,1.0226
315,1718,3.31028,-0.00877491,0.282619,1.02201
317,1716,3.31023,-0.00874651,0.282619,1.02202
319,1714,3.31002,-0.00879874,0.282731,1.02209
321,1712,3.30998,-0.00919114,0.282653,1.02187
323,1710,3.30983,-0.00917673,0.282658,1.0219
325,1708,3.30958,-0.00917704,0.282651,1.02187
327,1706,3.311,-0.0069114,0.2818,1.02104
329,1704,3.31085,-0.00697171,0.281793,1.021
331,1702,3.31085,-0.00696376,0.281787,1.02098
333,1700,3.3106,-0.00701442,0.28179,1.02094
335,1698,3.31036,-0.00703802,0.281785,1.02093
337,1696,3.31043,-0.00700294,0.281785,1.02093
339,1694,3.31011,-0.00767757,0.282166,1.02036
341,1692,3.31009,-0.00762,0.282181,1.02044
343,1690,3.31006,-0.0081005,0.28219,1.02018
345,1688,3.30994,-0.00811405,0.282194,1.02018
347,1686,3.30996,-0.00810009,0.282198,1.0202
349,1684,3.31061,-0.008069,0.281817,1.0204
351,1682,3.31032,-0.00877987,0.2822,1.01981
353,1680,3.31012,-0.00862688,0.282195,1.01989
355,1678,3.30987,-0.00867554,0.282195,1.01985
357,1676,3.30983,-0.00925805,0.282572,1.01932
359,1674,3.30994,-0.00924943,0.282569,1.01932
361,1672,3.30977,-0.00924008,0.282715,1.01931
363,1670,3.30963,-0.00933165,0.282581,1.0191
365,1668,3.30948,-0.00923333,0.282579,1.01937
367,1666,3.31127,-0.0068552,0.28136,1.01879
369,1664,3.31107,-0.00681152,0.281361,1.01883
371,1662,3.31093,-0.00687664,0.281648,1.0188
373,1660,3.31075,-0.00682922,0.281362,1.01884
375,1658,3.31018,-0.00752529,0.281739,1.01823
377,1656,3.31015,-0.00753479,0.281668,1.01823
379,1654,3.30996,-0.00755334,0.281736,1.01819
381,1652,3.31007,-0.00756174,0.282015,1.01816
383,1650,3.31005,-0.00751035,0.281721,1.01816
385,1648,3.30986,-0.00758991,0.281721,1.0181
387,1646,3.30949,-0.00814475,0.282121,1.01766
389,1644,3.31011,-0.00804014,0.281748,1.01792
391,1642,3.31025,-0.00803561,0.281748,1.01794
393,1640,3.31045,-0.00858341,0.28175,1.01761
395,1638,3.30965,-0.00866019,0.282133,1.01719
397,1636,3.30973,-0.00916824,0.282137,1.0171
399,1634,3.30989,-0.00913428,0.282135,1.01712
401,1632,3.30989,-0.00918648,0.282133,1.01708
403,1630,3.30969,-0.00912388,0.282132,1.01711
405,1628,3.30934,-0.00915021,0.282126,1.01708
407,1626,3.30893,-0.00926901,0.282505,1.01682
409,1624,3.31064,-0.00681842,0.281223,1.01628
411,1622,3.31064,-0.00689872,0.281293,1.01628
413,1620,3.31035,-0.00684866,0.281378,1.01632
415,1618,3.31011,-0.00749729,0.281679,1.01577
417,1616,3.3098,-0.0074821,0.281686,1.0158
419,1614,3.30984,-0.00735942,0.281676,1.01584
421,1612,3.30972,-0.00748402,0.281664,1.01572
423,1610,3.31004,-0.00747847,0.281663,1.01572
425,1608,3.30965,-0.0074745,0.281652,1.01569
427,1606,3.30963,-0.00758292,0.281655,1.01563
429,1604,3.31017,-0.00753242,0.281353,1.01581
431,1602,3.31026,-0.00824056,0.281653,1.01522
433,1600,3.31029,-0.00815419,0.281649,1.01503
435,1598,3.31002,-0.00849956,0.281653,1.01506
437,1596,3.30997,-0.00810445,0.282076,1.0153
439,1594,3.30976,-0.00876527,0.282036,1.01472
441,1592,3.31008,-0.0086623,0.28165,1.01495
443,1590,3.30953,-0.00871064,0.282021,1.01472
445,1588,3.30889,-0.00874554,0.282315,1.01471
447,1586,3.30883,-0.00885594,0.281959,1.01463
449,1584,3.30874,-0.0088245,0.28202,1.01464
451,1582,3.3093,-0.00873535,0.281628,1.01484
453,1580,3.30881,-0.00935611,0.28201,1.01427
455,1578,3.30871,-0.00937246,0.282004,1.01425
457,1576,3.30859,-0.00944997,0.282008,1.01422
459,1574,3.31023,-0.00707069,0.281186,1.01353
461,1572,3.31073,-0.00700442,0.28081,1.01378
463,1570,3.31083,-0.00689141,0.280806,1.01385
465,1568,3.31036,-0.00756866,0.28119,1.01327
467,1566,3.31013,-0.00749242,0.281182,1.01328
469,1564,3.31032,-0.00758686,0.28118,1.01321
471,1562,3.3103,-0.00760499,0.281183,1.01301
473,1560,3.31036,-0.00757537,0.281172,1.01321
475,1558,3.30979,-0.00757335,0.281177,1.0132
477,1556,3.30929,-0.00827654,0.281562,1.01262
479,1554,3.30972,-0.00822644,0.281469,1.01284
481,1552,3.3097,-0.00820366,0.281192,1.01289
483,1550,3.30912,-0.00872382,0.281577,1.0124
485,1548,3.30881,-0.00875361,0.28158,1.0124
487,1546,3.30879,-0.00869878,0.281577,1.01242
489,1544,3.30892,-0.00875204,0.28158,1.01239
491,1542,3.30913,-0.00929089,0.281575,1.01206
493,1540,3.30924,-0.00934217,0.281573,1.01202
495,1538,3.30905,-0.00937078,0.281562,1.01195
497,1536,3.30895,-0.00943253,0.281557,1.0119
499,1534,3.30909,-0.00938462,0.281549,1.0119
501,1532,3.30926,-0.00940009,0.281545,1.01189
503,1530,3.31095,-0.00642454,0.280133,1.01169
505,1528,3.31008,-0.00703481,0.280725,1.01121
507,1526,3.30978,-0.00700232,0.280735,1.01151
509,1524,3.30978,-0.00756217,0.280737,1.01093
511,1522,3.30978,-0.00754685,0.280742,1.01095
513,1520,3.3095,-0.00746688,0.280728,1.01095
515,1518,3.30937,-0.0075229,0.280728,1.01091
517,1516,3.30894,-0.0076334,0.281113,1.01067
519,1514,3.30949,-0.00823451,0.281111,1.01031
521,1512,3.3095,-0.00828609,0.281111,1.01029
523,1510,3.30949,-0.00819933,0.281107,1.01033
525,1508,3.30934,-0.00827212,0.281102,1.01026
527,1506,3.30978,-0.00884007,0.281116,1.01021
529,1504,3.30954,-0.00871288,0.281127,1.01007
531,1502,3.30912,-0.00874979,0.281512,1.00988
533,1500,3.30898,-0.00922267,0.281943,1.0096
535,1498,3.30856,-0.00920604,0.281513,1.00961
537,1496,3.30829,-0.00926968,0.281519,1.00958
539,1494,3.31017,-0.00631136,0.280285,1.00934
541,1492,3.30992,-0.00693908,0.280672,1.00878
543,1490,3.30971,-0.00693471,0.280669,1.00878
545,1488,3.30943,-0.0069393,0.280666,1.00877
547,1486,3.30947,-0.00698464,0.28067,1.00874
549,1484,3.31014,-0.00751964,0.280667,1.00842
551,1482,3.30991,-0.00753521,0.280671,1.00841
553,1480,3.30984,-0.00739373,0.280671,1.00851
555,1478,3.3098,-0.00806711,0.280667,1.00809
557,1476,3.30978,-0.00803702,0.281057,1.00794
559,1474,3.3094,-0.00808666,0.281057,1.00791
561,1472,3.30914,-0.00802056,0.281058,1.00795
563,1470,3.30934,-0.00799916,0.280671,1.00841
565,1468,3.30904,-0.00813495,0.280527,1.00806
567,1466,3.30858,-0.00868691,0.281056,1.00756
569,1464,3.30855,-0.00875434,0.281057,1.00751
571,1462,3.30861,-0.00863145,0.281058,1.0076
573,1460,3.30876,-0.00924958,0.281055,1.00721
575,1458,3.308764,-0.00926275,0.281058,1.00722
577,1456,3.30865,-0.00923941,0.281055,1.00723
579,1454,3.31067,-0.00635892,0.279824,1.00693
581,1452,3.31083,-0.00682075,0.280108,1.00664
583,1450,3.31011,-0.00693332,0.280209,1.0064
585,1448,3.31027,-0.00686871,0.27982,1.00661
587,1446,3.31019,-0.00683196,0.279816,1.00662
589,1444,3.30958,-0.00697196,0.280203,1.00636
591,1442,3.30961,-0.00751139,0.280202,1.00602
593,1440,3.30952,-0.00754389,0.280195,1.00599
595,1438,3.30918,-0.00758458,0.280196,1.00596
597,1436,3.30944,-0.0075292,0.280194,1.00599
599,1434,3.30969,-0.0075809,0.280198,1.00598
601,1432,3.30995,-0.00814493,0.280198,1.00564
603,1430,3.30988,-0.0081289,0.2802,1.00565
605,1428,3.30902,-0.0081917,0.280588,1.00545
607,1426,3.30933,-0.00874636,0.280588,1.00493
609,1424,3.30938,-0.00880817,0.280585,1.00507
611,1422,3.30887,-0.00877544,0.280581,1.00508
613,1420,3.30821,-0.00883828,0.280579,1.00502
615,1418,3.30828,-0.00893928,0.280581,1.00498
617,1416,3.30847,-0.0089254,0.280579,1.00499
619,1414,3.30805,-0.0094594,0.280965,1.00448
621,1412,3.30812,-0.00943258,0.280963,1.00448
623,1410,3.30863,-0.00942406,0.280579,1.00468
625,1408,3.31033,-0.00638218,0.279346,1.00448
627,1406,3.31031,-0.00700278,0.279739,1.00395
629,1404,3.31008,-0.00692858,0.279826,1.004
631,1402,3.31048,-0.00689474,0.279349,1.00419
633,1400,3.310095,-0.00755303,0.27974,1.00362
635,1398,3.30943,-0.00758023,0.280131,1.00343
637,1396,3.30953,-0.00759643,0.279741,1.0036
639,1394,3.30957,-0.00754953,0.279887,1.00363
641,1392,3.30891,-0.00821343,0.280132,1.00306
643,1390,3.3087,-0.00816275,0.280129,1.00309
645,1388,3.30881,-0.00809766,0.280129,1.00312
647,1386,3.30901,-0.00821853,0.280136,1.00307
649,1384,3.30918,-0.00878004,0.280137,1.00274
651,1382,3.30892,-0.00871491,0.280138,1.00278
653,1380,3.30895,-0.00873687,0.280133,1.00277
655,1378,3.30919,-0.00876367,0.280135,1.00301
657,1376,3.30851,-0.00937775,0.280527,1.00222
659,1374,3.30859,-0.00928302,0.280138,1.00246
661,1372,3.31012,-0.00624521,0.278902,1.00198
663,1370,3.30978,-0.00693212,0.279288,1.00164
665,1368,3.30966,-0.00683647,0.279289,1.00169
667,1366,3.30936,-0.0069568,0.279967,1.00145
669,1364,3.30968,-0.00694582,0.279283,1.00162
671,1362,3.30953,-0.00713633,0.279262,1.00144
673,1360,3.30986,-0.00713105,0.27927,1.00144
675,1358,3.30989,-0.00710633,0.279265,1.00145
677,1356,3.31022,-0.00759245,0.279262,1.00116
679,1354,3.30934,-0.00778872,0.279667,1.00066
681,1352,3.30882,-0.007663,0.279669,1.001
683,1350,3.30903,-0.00822153,0.279668,1.00066
685,1348,3.30876,-0.00829384,0.279667,1.00087
687,1346,3.30847,-0.00820187,0.279665,1.00066
689,1344,3.30824,-0.00887172,0.280046,1.00007
691,1342,3.30868,-0.00885608,0.279656,1.00026
693,1340,3.30869,-0.00892747,0.279658,1.00021
695,1338,3.30846,-0.00919624,0.28004,0.999846
697,1336,3.30923,-0.00887288,0.279658,1.00024
699,1334,3.30837,-0.00951746,0.280049,0.999698
701,1332,3.30825,-0.00949139,0.280053,0.999725
703,1330,3.30974,-0.00647419,0.278962,0.999481
705,1328,3.30938,-0.00710366,0.279215,0.998956
707,1326,3.3096,-0.00700174,0.278821,0.999192
709,1324,3.30894,-0.00705789,0.279213,0.998759
711,1322,3.30897,-0.0076076,0.279213,0.998651
713,1320,3.30924,-0.00770203,0.279211,0.998604
715,1318,3.3093,-0.00773983,0.279214,0.998583
717,1316,3.30921,-0.0076706,0.279211,0.998613
719,1314,3.30921,-0.00772999,0.279199,0.998537
721,1312,3.3091,-0.00777415,0.279198,0.998518
723,1310,3.30907,-0.00825168,0.2792,0.998235
725,1308,3.3087,-0.00834339,0.279206,0.998191
727,1306,3.3086,-0.00845347,0.279207,0.99813
729,1304,3.30796,-0.00897104,0.279593,0.997639
731,1302,3.308,-0.00891431,0.279882,0.997667
733,1300,3.30825,-0.00900585,0.279584,0.997469
735,1298,3.30824,-0.0090187,0.27958,0.997574
737,1296,3.30817,-0.00910932,0.279576,0.997511
739,1294,3.30818,-0.00961836,0.279582,0.997211
741,1292,3.30821,-0.00961747,0.279579,0.997456
743,1290,3.30818,-0.00953959,0.279577,0.99725
745,1288,3.30926,-0.00720602,0.278827,0.996473
747,1286,3.30891,-0.00726075,0.278751,0.996451
749,1284,3.30903,-0.00770527,0.278751,0.996203
751,1282,3.30897,-0.00775034,0.278484,0.996184
753,1280,3.30909,-0.00770179,0.278751,0.996196
755,1278,3.30923,-0.00774169,0.278751,0.996191
757,1276,3.30909,-0.00775876,0.27874,0.996144
759,1274,3.30875,-0.00838942,0.279137,0.995595
761,1272,3.30923,-0.00833991,0.278737,0.995787
763,1270,3.30915,-0.00829678,0.278737,0.995809
765,1268,3.30867,-0.00842054,0.279166,0.99574
767,1266,3.30795,-0.00893065,0.279134,0.995265
769,1264,3.30805,-0.00903062,0.279145,0.99525
771,1262,3.30773,-0.00962503,0.279542,0.99473
773,1260,3.30776,-0.00954362,0.279547,0.994798
775,1258,3.30797,-0.00944777,0.279144,0.995012
777,1256,3.30978,-0.00706049,0.278303,0.994226
779,1254,3.30971,-0.00691582,0.278303,0.994315
781,1252,3.30973,-0.00701799,0.278303,0.99425
783,1250,3.30967,-0.00757589,0.278296,0.993896
785,1248,3.30872,-0.00791518,0.278689,0.99352
787,1246,3.30845,-0.00778948,0.278695,0.993611
789,1244,3.30898,-0.00760391,0.278301,0.993895
791,1242,3.30837,-0.00836032,0.279091,0.993098
793,1240,3.30876,-0.00823711,0.278697,0.993358
795,1238,3.30864,-0.00828662,0.278697,0.993317
797,1236,3.30837,-0.00888677,0.279092,0.992801
799,1234,3.30895,-0.00886025,0.278701,0.992999
801,1232,3.30889,-0.00882364,0.278698,0.993016
803,1230,3.30796,-0.00883189,0.279096,0.99284
805,1228,3.30769,-0.00950448,0.279089,0.992427
807,1226,3.30753,-0.00952555,0.27909,0.992412
809,1224,3.30898,-0.00637295,0.277843,0.992208
811,1222,3.30876,-0.00699021,0.278665,0.991678
813,1220,3.30932,-0.00702538,0.277842,0.991839
815,1218,3.30908,-0.00716132,0.278317,0.991547
817,1216,3.3096,-0.00706387,0.277836,0.991792
819,1214,3.30929,-0.00768339,0.278232,0.991246
821,1212,3.3091,-0.00767335,0.278235,0.991264
823,1210,3.30843,-0.00767864,0.278231,0.9915
825,1208,3.30829,-0.00775272,0.278648,0.991184
827,1206,3.308,-0.00835031,0.278631,0.9907
829,1204,3.30806,-0.00831626,0.278629,0.990706
831,1202,3.30808,-0.0083569,0.278226,0.990838
833,1200,3.30795,-0.00908538,0.278619,0.990223
835,1198,3.30805,-0.00910388,0.278616,0.990203
837,1196,3.30854,-0.00895781,0.278215,0.990446
839,1194,3.30803,-0.00903527,0.278599,0.990181
841,1192,3.30735,-0.0092082,0.278602,0.990083
843,1190,3.30701,-0.00997615,0.279002,0.989481
845,1188,3.30911,-0.00663217,0.277368,0.989589
847,1186,3.30879,-0.00720178,0.277762,0.989072
849,1184,3.30886,-0.00727468,0.277771,0.989059
851,1182,3.30896,-0.00717111,0.277771,0.989129
853,1180,3.30844,-0.00785111,0.278168,0.988548
855,1178,3.30894,-0.00777193,0.277764,0.988754
857,1176,3.30887,-0.0078223,0.277762,0.988716
859,1174,3.30824,-0.00780932,0.277761,0.988727
861,1172,3.30763,-0.00856144,0.278155,0.988099
863,1170,3.3076,-0.00848505,0.278157,0.988145
865,1168,3.30784,-0.00856655,0.278451,0.988099
867,1166,3.30789,-0.00903091,0.27817,0.987878
869,1164,3.30776,-0.00899485,0.278176,0.987926
871,1162,3.30741,-0.00949311,0.27858,0.98747
873,1160,3.30797,-0.00953863,0.277806,0.98759
875,1158,3.30731,-0.00969409,0.27857,0.987314
877,1156,3.30873,-0.00704143,0.27732,0.986816
879,1154,3.3086,-0.00714948,0.277317,0.986749
881,1152,3.30795,-0.0071718,0.277712,0.986544
883,1150,3.30844,-0.00716192,0.277313,0.986711
885,1148,3.30885,-0.00784083,0.277307,0.986565
887,1146,3.30822,-0.00791821,0.277705,0.986087
889,1144,3.30829,-0.00774259,0.277687,0.985894
891,1142,3.30865,-0.00791822,0.2773,0.986242
893,1140,3.30793,-0.00847749,0.277709,0.985777
895,1138,3.30753,-0.00846263,0.277711,0.985798
897,1136,3.30692,-0.00907168,0.278113,0.985275
899,1134,3.30675,-0.00913686,0.278114,0.985221
901,1132,3.30716,-0.00909021,0.278113,0.985266
903,1130,3.30735,-0.00975998,0.27811,0.984863
905,1128,3.30699,-0.0096989,0.278191,0.984905
907,1126,3.3071,-0.00983562,0.278111,0.984815
909,1124,3.30893,-0.00661475,0.276858,0.984642
911,1122,3.30812,-0.00725165,0.277259,0.984094
913,1120,3.30795,-0.00727963,0.277229,0.984055
915,1118,3.3078,-0.00733491,0.277248,0.983999
917,1116,3.30752,-0.00795056,0.277656,0.983488
919,1114,3.3081,-0.0079243,0.277259,0.983697
921,1112,3.308,-0.00855398,0.277653,0.983141
923,1110,3.30754,-0.00865135,0.277659,0.983107
925,1108,3.3073,-0.00845547,0.277662,0.983489
927,1106,3.30721,-0.00909893,0.27766,0.982857
929,1104,3.30701,-0.00912225,0.27766,0.98282
931,1102,3.30631,-0.00915235,0.278061,0.982641
933,1100,3.30628,-0.00976297,0.27806,0.982285
935,1098,3.30707,-0.00969458,0.277661,0.982514
937,1096,3.30873,-0.00662042,0.276885,0.982057
939,1094,3.30865,-0.00709795,0.276811,0.98178
941,1092,3.30836,-0.00710186,0.276813,0.981792
943,1090,3.30764,-0.00787048,0.277212,0.981172
945,1088,3.30737,-0.00779739,0.277215,0.981221
947,1086,3.30746,-0.0077831,0.277643,0.981234
949,1084,3.30762,-0.00839564,0.277213,0.980863
951,1082,3.30741,-0.00848271,0.277212,0.980823
953,1080,3.30765,-0.00840167,0.27721,0.980852
955,1078,3.30776,-0.00903275,0.277207,0.980484
957,1076,3.30748,-0.00904281,0.277208,0.98047
959,1074,3.30628,-0.00915372,0.277606,0.980222
961,1072,3.30615,-0.00980189,0.277605,0.979838
963,1070,3.30647,-0.00977539,0.277637,0.979859
965,1068,3.30791,-0.00730529,0.276764,0.979083
967,1066,3.30823,-0.00714637,0.276364,0.979379
969,1064,3.30818,-0.00785569,0.276771,0.978805
971,1062,3.30807,-0.00777544,0.276768,0.978832
973,1060,3.30761,-0.00778351,0.276768,0.978586
975,1058,3.30754,-0.00771192,0.27676,0.978849
977,1056,3.30682,-0.00846832,0.277159,0.978219
979,1054,3.30659,-0.00847833,0.277157,0.978187
981,1052,3.30722,-0.00858992,0.27675,0.978301
983,1050,3.30726,-0.0092014,0.277155,0.977769
985,1048,3.30697,-0.00923488,0.27715,0.977743
987,1046,3.30665,-0.00923546,0.277144,0.97772
989,1044,3.30631,-0.00922972,0.277144,0.97773
991,1042,3.3057,-0.0100967,0.277554,0.977059
993,1040,3.30544,-0.00989319,0.277551,0.977187
995,1038,3.3075,-0.00729065,0.276296,0.976614
997,1036,3.30772,-0.00745903,0.276296,0.976784
999,1034,3.30775,-0.00739624,0.276293,0.976555
1001,1032,3.30791,-0.00796076,0.276285,0.976198
1003,1030,3.30742,-0.00797191,0.276281,0.976184
1005,1028,3.30642,-0.00813882,0.276687,0.975906
1007,1026,3.30626,-0.0081205,0.276686,0.97592
1009,1024,3.30615,-0.00877482,0.277167,0.975354
1011,1022,3.30669,-0.00876994,0.276683,0.975542
1013,1020,3.30658,-0.00880161,0.276681,0.975517
1015,1018,3.30674,-0.00939803,0.276697,0.97521
1017,1016,3.30632,-0.00996036,0.277107,0.974749
1019,1014,3.30583,-0.00987502,0.277109,0.974807
1021,1012,3.3071,-0.00742193,0.276251,0.973958
1023,1010,3.30687,-0.00733741,0.275998,0.974014
1025,1008,3.30753,-0.00727573,0.275846,0.974216
1027,1006,3.30752,-0.00805022,0.276392,0.973579
1029,1004,3.30729,-0.00799857,0.276245,0.973607
1031,1002,3.30689,-0.00804379,0.276245,0.973577
1033,1000,3.30649,-0.00806452,0.276239,0.973537
1035,998,3.30604,-0.00878805,0.276651,0.972967
1037,996,3.30571,-0.00871044,0.27665,0.972998
1039,994,3.30579,-0.00878345,0.276651,0.972964
1041,992,3.30604,-0.00931871,0.276657,0.972675
1043,990,3.30582,-0.00996412,0.27707,0.972158
1045,988,3.30563,-0.00993413,0.27707,0.972177
1047,986,3.30711,-0.00728895,0.275804,0.971602
1049,984,3.30672,-0.00734279,0.275802,0.971564
1051,982,3.3067,-0.00728028,0.275803,0.971598
1053,980,3.30652,-0.00810929,0.276635,0.97095
1055,978,3.30704,-0.00804681,0.275801,0.970957
1057,976,3.3065,-0.00806453,0.276208,0.970973
1059,974,3.3066,-0.00868521,0.27635,0.970616
1061,972,3.30626,-0.00872484,0.276206,0.970601
1063,970,3.30565,-0.00874201,0.276205,0.970572
1065,968,3.30515,-0.00936522,0.276615,0.970028
1067,966,3.30543,-0.00936013,0.276614,0.970057
1069,964,3.30558,-0.0100479,0.276616,0.969653
1071,962,3.30552,-0.00999204,0.276617,0.969697
1073,960,3.30717,-0.00674058,0.27535,0.969475
1075,958,3.30624,-0.00750298,0.275757,0.968851
1077,956,3.30581,-0.00746505,0.275758,0.968878
1079,954,3.30628,-0.00806728,0.275759,0.968525
1081,952,3.30635,-0.00812885,0.275757,0.968506
1083,950,3.30628,-0.00811246,0.275758,0.968501
1085,948,3.30608,-0.00877437,0.276168,0.967941
1087,946,3.3057,-0.00872912,0.276167,0.967978
1089,944,3.30524,-0.00938586,0.276167,0.967596
1091,942,3.30444,-0.00952369,0.276583,0.967358
1093,940,3.30468,-0.0100865,0.27688,0.96705
1095,938,3.30718,-0.00673577,0.274906,0.967057
1097,936,3.30692,-0.00734504,0.275315,0.966522
1099,934,3.30659,-0.00743432,0.275315,0.966471
1101,932,3.30607,-0.00741264,0.275311,0.966482
1103,930,3.30557,-0.00818782,0.275724,0.966118
1105,928,3.30554,-0.00809219,0.275724,0.965915
1107,926,3.30588,-0.00803263,0.275307,0.966112
1109,924,3.30547,-0.00879265,0.275864,0.965514
1111,922,3.30572,-0.00876461,0.275723,0.96554
1113,920,3.30546,-0.00930227,0.275721,0.965213
1115,918,3.30495,-0.00939027,0.275721,0.96517
1117,916,3.30435,-0.0101036,0.276137,0.964591
1119,914,3.30439,-0.0100348,0.276141,0.964645
1121,912,3.30677,-0.00741889,0.27487,0.96406
1123,910,3.30683,-0.00733496,0.274873,0.964116
1125,908,3.30588,-0.00799124,0.275283,0.963553
1127,906,3.30537,-0.00802726,0.275285,0.963535
1129,904,3.30518,-0.00808771,0.275281,0.963486
1131,902,3.30505,-0.00874657,0.275696,0.962928
1133,900,3.30533,-0.00876114,0.275282,0.963112
1135,898,3.3052,-0.0094555,0.275695,0.962531
1137,896,3.30503,-0.0094957,0.275692,0.962512
1139,894,3.30463,-0.00941276,0.275693,0.96256
1141,892,3.30366,-0.0101943,0.276109,0.961943
1143,890,3.30549,-0.00680485,0.274837,0.961772
1145,888,3.30583,-0.00741461,0.274839,0.961446
1147,886,3.3061,-0.00806441,0.274841,0.961068
1149,884,3.30572,-0.00808158,0.274842,0.961076
1151,882,3.30531,-0.00805256,0.274753,0.961097
1153,880,3.30479,-0.00881205,0.275258,0.960483
1155,878,3.3046,-0.00869222,0.275258,0.960545
1157,876,3.30473,-0.00934452,0.275254,0.960167
1159,874,3.30471,-0.00942568,0.275253,0.960118
1161,872,3.30441,-0.0101243,0.275671,0.959559
1163,870,3.30402,-0.0101376,0.275667,0.959789
1165,868,3.30557,-0.00687009,0.27439,0.95929
1167,866,3.30473,-0.00756888,0.274807,0.958701
1169,864,3.30549,-0.00741199,0.274685,0.958965
1171,862,3.3056,-0.00759151,0.274383,0.958857
1173,860,3.30522,-0.00824459,0.274798,0.958308
1175,858,3.30468,-0.00820118,0.274798,0.958343
1177,856,3.30444,-0.00884604,0.274798,0.957966
1179,854,3.30434,-0.00884941,0.274798,0.957954
1181,852,3.30415,-0.00963087,0.275208,0.957329
1183,850,3.30391,-0.00969974,0.275207,0.957272
1185,848,3.30391,-0.00971523,0.275201,0.957254
1187,846,3.30365,-0.0103051,0.2752,0.956916
1189,844,3.30266,-0.0104197,0.275621,0.95668
1191,842,3.30446,-0.00708415,0.274339,0.956443
1193,840,3.3048,-0.00777479,0.274348,0.95609
1195,838,3.30521,-0.00834165,0.274354,0.956048
1197,836,3.30526,-0.00821036,0.274359,0.955901
1199,834,3.30423,-0.00890846,0.274779,0.955327
1201,832,3.30371,-0.0090088,0.274783,0.955288
1203,830,3.30332,-0.00964889,0.275205,0.954748
1205,828,3.3041,-0.00957605,0.274783,0.954968
1207,826,3.30357,-0.0102349,0.275191,0.954382
1209,824,3.30338,-0.0103748,0.275192,0.954302
1211,822,3.30492,-0.00704039,0.273908,0.954057
1213,820,3.30472,-0.00772497,0.273902,0.953648
1215,818,3.30408,-0.00775383,0.274318,0.953441
1217,816,3.30459,-0.00778718,0.273892,0.953582
1219,814,3.30422,-0.00851999,0.274312,0.953001
1221,812,3.30414,-0.0084835,0.274309,0.953017
1223,810,3.30352,-0.00916226,0.274313,0.95264
1225,808,3.30315,-0.00912863,0.274461,0.952677
1227,806,3.30319,-0.0098358,0.274748,0.952139
1229,804,3.3035,-0.0105045,0.274751,0.951771
1231,802,3.30336,-0.0104137,0.274747,0.95182
1233,800,3.30488,-0.00706235,0.273462,0.951562
1235,798,3.30399,-0.00783672,0.273875,0.950933
1237,796,3.30376,-0.00782948,0.273872,0.950926
1239,794,3.30418,-0.00850326,0.273943,0.950546
1241,792,3.30391,-0.00853792,0.273872,0.950532
1243,790,3.30367,-0.00925541,0.27429,0.949936
1245,788,3.30362,-0.0091581,0.273864,0.95017
1247,786,3.30275,-0.00930891,0.274431,0.948575
1249,784,3.30253,-0.00987155,0.274293,0.949605
1251,782,3.30267,-0.0106052,0.274726,0.949051
1253,780,3.30532,-0.00706802,0.273025,0.949113
1255,778,3.30444,-0.00774434,0.273445,0.948563
1257,776,3.30373,-0.00782888,0.273444,0.94716
1259,774,3.30321,-0.00847759,0.273865,0.947955
1261,772,3.30386,-0.00850092,0.273442,0.948122
1263,770,3.30351,-0.00926037,0.273996,0.94752
1265,768,3.30319,-0.00923477,0.27386,0.947523
1267,766,3.30229,-0.00997953,0.274285,0.94694
1269,764,3.30198,-0.010042,0.274285,0.946906
1271,762,3.30217,-0.0106013,0.274287,0.946587
1273,760,3.30413,-0.00726693,0.273074,0.946348
1275,758,3.30416,-0.00776946,0.273011,0.946096
1277,756,3.30362,-0.00843597,0.273437,0.945551
1279,754,3.30302,-0.00839698,0.273438,0.945575
1281,752,3.30236,-0.00919461,0.273871,0.944982
1283,750,3.3027,-0.00916333,0.273865,0.944977
1285,748,3.3028,-0.00986107,0.273864,0.944589
1287,746,3.30261,-0.00982815,0.273865,0.944612
1289,744,3.30137,-0.0105887,0.274291,0.944008
1291,742,3.30113,-0.0105661,0.274589,0.944012
1293,740,3.30362,-0.00777386,0.273001,0.943454
1295,738,3.30396,-0.00771663,0.273002,0.943486
1297,736,3.30362,-0.00839884,0.273001,0.943102
1299,734,3.30259,-0.00911211,0.273428,0.94253
1301,732,3.30245,-0.00909788,0.273432,0.942554
1303,730,3.30211,-0.00978667,0.273865,0.942003
1305,728,3.30192,-0.00985565,0.273869,0.94198
1307,726,3.30205,-0.0104365,0.273872,0.941668
1309,724,3.30332,-0.00775402,0.27301,0.940856
1311,722,3.3027,-0.00780017,0.273007,0.940822
1313,720,3.30264,-0.00776555,0.273003,0.940833
1315,718,3.30296,-0.00864841,0.273007,0.940366
1317,716,3.30317,-0.00912071,0.273008,0.94036
1319,714,3.30271,-0.00903377,0.273001,0.940134
1321,712,3.30159,-0.00986225,0.273432,0.939498
1323,710,3.30134,-0.00977808,0.273429,0.939522
1325,708,3.30189,-0.0105671,0.27343,0.9391
1327,706,3.30395,-0.00706398,0.272037,0.938912
1329,704,3.30281,-0.00776806,0.272575,0.938363
1331,702,3.30237,-0.00777088,0.272574,0.938358
1333,700,3.30183,-0.0085385,0.273021,0.937809
1335,698,3.30219,-0.00913886,0.273015,0.937475
1337,696,3.30223,-0.00974356,0.273009,0.937129
1339,694,3.30181,-0.00974673,0.273011,0.937127
1341,692,3.30135,-0.00981144,0.273009,0.937096
1343,690,3.30069,-0.0104583,0.273441,0.93655
1345,688,3.30292,-0.0077741,0.272143,0.936108
1347,686,3.30285,-0.00766149,0.272141,0.93594
1349,684,3.30246,-0.00847174,0.272572,0.935308
1351,682,3.30172,-0.00849164,0.272572,0.9353
1353,680,3.30107,-0.00917519,0.273007,0.934737
1355,678,3.30195,-0.00919495,0.272573,0.934931
1357,676,3.3017,-0.00993385,0.273019,0.934386
1359,674,3.30104,-0.010422,0.27302,0.934129
1361,672,3.301875,-0.00781696,0.272473,0.933286
1363,670,3.30186,-0.00767053,0.272148,0.933284
1365,668,3.30268,-0.00773478,0.271699,0.933372
1367,666,3.30241,-0.00853141,0.272128,0.932763
1369,664,3.30181,-0.00852362,0.272122,0.932747
1371,662,3.30087,-0.00937918,0.272559,0.932099
1373,660,3.30071,-0.00931113,0.27256,0.932135
1375,658,3.30092,-0.0100709,0.272554,0.931714
1377,656,3.30082,-0.0100552,0.272552,0.931707
1379,654,3.30012,-0.0108467,0.272989,0.931103
1381,652,3.2996,-0.010854,0.27299,0.931099
1383,650,3.30125,-0.00741901,0.271691,0.930828
1385,648,3.30161,-0.0079545,0.271689,0.930537
1387,646,3.30195,-0.00863586,0.271698,0.930205
1389,644,3.30092,-0.00927269,0.272139,0.929698
1391,642,3.30048,-0.009324,0.272135,0.929655
1393,640,3.29993,-0.0101644,0.272566,0.92899
1395,638,3.30025,-0.0101904,0.272563,0.928974
1397,636,3.30029,-0.0107569,0.27256,0.928656
1399,634,3.30148,-0.00724554,0.271252,0.928407
1401,632,3.30068,-0.0080204,0.27169,0.927793
1403,630,3.30094,-0.00817305,0.27169,0.927715
1405,628,3.30122,-0.00872503,0.271691,0.927413
1407,626,3.30043,-0.00952078,0.272129,0.92681
1409,624,3.29972,-0.00955939,0.272131,0.926797
1411,622,3.29917,-0.0103447,0.272574,0.926184
1413,620,3.29939,-0.0109717,0.272583,0.925898
1415,618,3.30165,-0.00795,0.271282,0.925399
1417,616,3.30137,-0.00790087,0.271284,0.925434
1419,614,3.30026,-0.0087036,0.271731,0.924838
1421,612,3.30008,-0.00859559,0.271725,0.924881
1423,610,3.30019,-0.00941842,0.271722,0.924424
1425,608,3.3005,-0.0100889,0.271715,0.924047
1427,606,3.29937,-0.0101377,0.272164,0.923847
1429,604,3.29831,-0.0110441,0.272605,0.923181
1431,602,3.30015,-0.00740336,0.271291,0.92298
1433,600,3.3007,-0.00812833,0.27136,0.922606
1435,598,3.30063,-0.00879479,0.271295,0.922245
1437,596,3.29962,-0.00873828,0.271294,0.922284
1439,594,3.29876,-0.00952966,0.271737,0.921673
1441,592,3.29904,-0.0103335,0.271735,0.921249
1443,590,3.29872,-0.0109518,0.272181,0.920727
1445,588,3.30096,-0.00725398,0.270414,0.920715
1447,586,3.29989,-0.00803168,0.270863,0.920121
1449,584,3.29984,-0.00811426,0.270866,0.92008
1451,582,3.29962,-0.00892713,0.271304,0.919454
1453,580,3.29944,-0.00959639,0.2713,0.91909
1455,578,3.2988,-0.00955652,0.271361,0.919085
1457,576,3.29815,-0.0104657,0.271745,0.918427
1459,574,3.29802,-0.0103505,0.271743,0.918488
1461,572,3.29801,-0.0111848,0.271745,0.918041
1463,570,3.30015,-0.00756778,0.270425,0.917814
1465,568,3.2992,-0.00825742,0.27087,0.917254
1467,566,3.29833,-0.00895774,0.271307,0.915169
1469,564,3.29898,-0.00909178,0.271167,0.916778
1471,562,3.29902,-0.00972001,0.270854,0.91643
1473,560,3.29782,-0.0105372,0.271757,0.915633
1475,558,3.29748,-0.0105283,0.271304,0.915819
1477,556,3.29696,-0.0114688,0.271368,0.915166
1479,554,3.29948,-0.00837089,0.27045,0.914662
1481,552,3.29877,-0.00907647,0.270897,0.914115
1483,550,3.29759,-0.00916533,0.270896,0.914062
1485,548,3.29715,-0.00984909,0.271352,0.913516
1487,546,3.29758,-0.0106429,0.271352,0.913117
1489,544,3.2977,-0.0112293,0.271348,0.912792
1491,542,3.2988,-0.00763005,0.270445,0.91252
1493,540,3.29809,-0.0083631,0.270479,0.91196
1495,538,3.29863,-0.00916897,0.270479,0.911528
1497,536,3.29864,-0.00910122,0.270479,0.91158
1499,534,3.29718,-0.00981032,0.270936,0.911031
1501,532,3.29699,-0.0105285,0.270939,0.910664
1503,530,3.29665,-0.0113024,0.271394,0.910078
1505,528,3.29895,-0.00831039,0.270071,0.909484
1507,526,3.29829,-0.00829192,0.270067,0.90949
1509,524,3.29788,-0.00906873,0.270064,0.909077
1511,522,3.29757,-0.00980761,0.270519,0.908499
1513,520,3.29734,-0.00987968,0.270518,0.908468
1515,518,3.29649,-0.0106509,0.270976,0.907877
1517,516,3.2961,-0.0113827,0.271287,0.907486
1519,514,3.29764,-0.00851468,0.270103,0.906642
1521,512,3.29812,-0.00841342,0.269646,0.906881
1523,510,3.29737,-0.00912304,0.270104,0.906331
1525,508,3.29622,-0.0099954,0.270562,0.90569
1527,506,3.29628,-0.0106304,0.270564,0.905363
1529,504,3.29641,-0.0113602,0.270562,0.90498
1531,502,3.29814,-0.0075809,0.269238,0.904803
1533,500,3.2972,-0.00838516,0.269696,0.90419
1535,498,3.29697,-0.00908608,0.269695,0.903836
1537,496,3.29699,-0.00801494,0.269696,0.903158
1539,494,3.29661,-0.00875824,0.269694,0.902765
1541,492,3.2957,-0.0106221,0.270153,0.902841
1543,490,3.29819,-0.00574612,0.268359,0.90215
1545,488,3.29746,-0.0141359,0.269242,0.901539
1547,486,3.29724,-0.0128107,0.268357,0.901151
1549,484,3.29595,-0.00734094,0.269277,0.900948
1551,482,3.29592,-0.0156166,0.269275,0.90058
1553,480,3.29662,-0.0125799,0.268358,0.900046
1555,478,3.29507,-0.0151824,0.269279,0.899579
1557,476,3.29641,-0.0133736,0.268535,0.899373
1559,474,3.2972,-0.0103783,0.267481,0.898824
1561,472,3.2969,-0.0111483,0.267919,0.898177
1563,470,3.29596,-0.0112001,0.267906,0.898113
1565,468,3.29514,-0.0121695,0.268383,0.89619
1567,466,3.29641,-0.0164674,0.267002,0.897231
1569,464,3.29586,-0.017196,0.267458,0.896677
1571,462,3.29696,-0.00785408,0.266583,0.896465
1573,460,3.29666,-0.00673791,0.26658,0.895784
1575,458,3.29705,-0.013174,0.266124,0.895339
1577,456,3.29675,-0.0138599,0.266536,0.894977
1579,454,3.29518,-0.00898771,0.267034,0.894428
1581,452,3.29519,-0.0146684,0.266569,0.894356
1583,450,3.29594,-0.0133693,0.266086,0.893901
1585,448,3.29659,-0.0119367,0.265803,0.893329
1587,446,3.2953,-0.0153881,0.266597,0.892463
1589,444,3.29585,-0.0123424,0.265691,0.891965
1591,442,3.29651,-0.00903236,0.264783,0.891567
1593,440,3.295,-0.0116358,0.265591,0.89111
1595,438,3.29658,-0.0105566,0.264831,0.890574
1597,436,3.29682,-0.00765771,0.264374,0.889773
1599,434,3.29648,-0.0158481,0.264373,0.889496
1601,432,3.29597,-0.00828213,0.264366,0.889446
1603,430,3.29501,-0.00916264,0.264824,0.888805
1605,428,3.2953,-0.0155388,0.264359,0.888385
1607,426,3.29726,-0.0124831,0.263024,0.887766
1609,424,3.29654,-0.012443,0.263025,0.887789
1611,422,3.29565,-0.0152729,0.263937,0.887223
1613,420,3.29596,-0.0140784,0.263474,0.886641
1615,418,3.29548,-0.0129494,0.263487,0.886146
1617,416,3.29472,-0.0136641,0.263486,0.885777
1619,414,3.29662,-0.00866877,0.262155,0.884918
1621,412,3.29678,-0.00948233,0.262368,0.884517
1623,410,3.29626,-0.00822302,0.262155,0.883918
1625,408,3.29538,-0.0109808,0.262613,0.883577
1627,406,3.29493,-0.00985678,0.262743,0.882914
1629,404,3.29696,-0.0143996,0.261273,0.882336
1631,402,3.29662,-0.00667826,0.261274,0.882347
1633,400,3.29557,-0.00757303,0.261731,0.881714
1635,398,3.29518,-0.0160077,0.261731,0.881352
1637,396,3.29589,-0.0128362,0.260818,0.881082
1639,394,3.29437,-0.0155521,0.261728,0.880338
1641,392,3.29565,-0.0125464,0.260849,0.879509
1643,390,3.29632,-0.00944851,0.259931,0.878938
1645,388,3.29682,-0.00823047,0.259486,0.878529
1647,386,3.29571,-0.0108328,0.259939,0.878279
1649,384,3.29476,-0.0116214,0.260402,0.877714
1651,382,3.29699,-0.00672753,0.25907,0.876789
1653,380,3.29649,-0.0151771,0.259069,0.876446
1655,378,3.29557,-0.00939907,0.259518,0.876501
1657,376,3.29584,-0.00816455,0.259059,0.876053
1659,374,3.29633,-0.0147443,0.258608,0.875584
1661,372,3.29467,-0.0174138,0.259514,0.87513
1663,370,3.29593,-0.00669802,0.258629,0.87423
1665,368,3.29667,-0.0113208,0.257719,0.873705
1667,366,3.29657,-0.0120341,0.257716,0.873329
1669,364,3.2952,-0.0128106,0.258166,0.872754
1671,362,3.29445,-0.0128601,0.258164,0.872712
1673,360,3.29747,-0.00798415,0.256376,0.871949
1675,358,3.29702,-0.00676674,0.256377,0.871332
1677,356,3.29527,-0.0134318,0.258048,0.871172
1679,354,3.29529,-0.010278,0.257286,0.870465
1681,352,3.29547,-0.0168489,0.256836,0.870019
1683,350,3.29719,-0.0135746,0.255498,0.869493
1685,348,3.29623,-0.0066784,0.255952,0.868857
1687,346,3.29636,-0.0132079,0.255499,0.86844
1689,344,3.2959,-0.0141004,0.255948,0.86781
1691,342,3.29427,-0.0169112,0.256854,0.867296
1693,340,3.29449,-0.0148553,0.255943,0.867426
1695,338,3.29676,-0.0106408,0.254607,0.866115
1697,336,3.29588,-0.0114876,0.255055,0.865512
1699,334,3.29485,-0.013445,0.255506,0.86559
1701,332,3.29494,-0.0122279,0.255053,0.865136
1703,330,3.29537,-0.0109735,0.2546,0.864708
1705,328,3.29659,-0.00685872,0.253763,0.863154
1707,326,3.29622,-0.00866335,0.253711,0.863495
1709,324,3.29552,-0.0154657,0.253712,0.86279
1711,322,3.29545,-0.0162282,0.253709,0.862397
1713,320,3.29437,-0.0170012,0.254157,0.861833
1715,318,3.29379,-0.0177904,0.254158,0.861414
1717,316,3.29612,-0.0108249,0.252365,0.860405
1719,314,3.29595,-0.0115357,0.252363,0.860054
1721,312,3.29505,-0.0142917,0.252815,0.859761
1723,310,3.29471,-0.0111614,0.252365,0.858998
1725,308,3.29475,-0.0120223,0.252362,0.858575
1727,306,3.29661,-0.00695461,0.251024,0.857668
1729,304,3.29532,-0.0117148,0.252316,0.857438
1731,302,3.29504,-0.0105493,0.251921,0.856768
1733,300,3.2952,-0.0171409,0.251472,0.856364
1735,298,3.29422,-0.0100195,0.251921,0.855801
1737,296,3.29586,-0.00692845,0.250586,0.855152
1739,294,3.29594,-0.0135615,0.250137,0.854739
1741,292,3.29548,-0.0144473,0.250586,0.854125
1743,290,3.29349,-0.0172339,0.251487,0.853658
1745,288,3.2935,-0.0159495,0.251034,0.853209
1747,286,3.29655,-0.0108847,0.249248,0.852484
1749,284,3.29552,-0.0116266,0.249693,0.851934
1751,282,3.29364,-0.0165588,0.251049,0.851471
1753,280,3.29462,-0.0113299,0.249778,0.850825
1755,278,3.29461,-0.0100732,0.24924,0.850381
1757,276,3.29491,-0.0109726,0.24925,0.849712
1759,274,3.29498,-0.00978291,0.248801,0.849236
1761,272,3.29517,-0.0165307,0.24835,0.848786
1763,270,3.29404,-0.0173012,0.248795,0.848237
1765,268,3.29357,-0.0100521,0.248839,0.847875
1767,266,3.2961,-0.0127913,0.247015,0.847227
1769,264,3.29602,-0.0103807,0.246569,0.846095
1771,262,3.29455,-0.0143483,0.247459,0.846291
1773,260,3.29379,-0.0132908,0.24746,0.845559
1775,258,3.29672,-0.00803521,0.245676,0.844905
1777,256,3.29596,-0.00896111,0.246122,0.844278
1779,254,3.29493,-0.0116719,0.246567,0.844021
1781,252,3.29491,-0.00842838,0.246118,0.843275
1783,250,3.29423,-0.0101474,0.246563,0.842258
1785,248,3.2959,-0.0068954,0.245224,0.841667
1787,246,3.29492,-0.0078188,0.245669,0.841033
1789,244,3.29505,-0.0157728,0.245222,0.841284
1791,242,3.29474,-0.0153583,0.245219,0.840228
1793,240,3.29325,-0.0162552,0.245666,0.839612
1795,238,3.29569,-0.0109637,0.243878,0.838935
1797,236,3.29508,-0.0118889,0.244314,0.838289
1799,234,3.29483,-0.0106165,0.243875,0.837851
1801,232,3.294,-0.0134435,0.244318,0.837572
1803,230,3.29581,-0.00831584,0.243365,0.836639
1805,228,3.29592,-0.015015,0.242538,0.83625
1807,226,3.29546,-0.00766964,0.242536,0.835905
1809,224,3.29412,-0.0165106,0.242981,0.835355
1811,222,3.29468,-0.0153529,0.242538,0.834854
1813,220,3.29578,-0.0149508,0.242087,0.833785
1815,218,3.29433,-0.0158527,0.24253,0.833177
1817,216,3.29508,-0.0125449,0.24176,0.83262
1819,214,3.29532,-0.0112842,0.241197,0.832159
1821,212,3.29351,-0.0141601,0.242081,0.831679
1823,210,3.29539,-0.00895919,0.24074,0.830739
1825,208,3.29585,-0.00784171,0.240603,0.830209
1827,206,3.29431,-0.0107253,0.241184,0.829733
1829,204,3.29355,-0.0113644,0.241186,0.829436
1831,202,3.29631,-0.0142981,0.239788,0.828735
1833,200,3.29568,-0.0137885,0.239411,0.82774
1835,198,3.29383,-0.0167072,0.240297,0.827253
1837,196,3.29402,-0.0154181,0.239855,0.826793
1839,194,3.29679,-0.0101388,0.238072,0.82609
1841,192,3.29504,-0.013026,0.238951,0.825599
1843,190,3.29506,-0.0117548,0.238504,0.825116
1845,188,3.29576,-0.00849796,0.237925,0.824511
1847,186,3.29449,-0.0113447,0.238498,0.824056
1849,184,3.29523,-0.0103354,0.238042,0.823262
1851,182,3.29574,-0.00690603,0.237156,0.823002
1853,180,3.29579,-0.00773236,0.237157,0.822367
1855,178,3.29434,-0.00861972,0.237598,0.821774
1857,176,3.29352,-0.00938151,0.238037,0.821214
1859,174,3.29607,-0.0110779,0.235819,0.820009
1861,172,3.29506,-0.0119126,0.236251,0.819429
1863,170,3.29393,-0.0168818,0.237135,0.819242
1865,168,3.29438,-0.0135093,0.23625,0.818695
1867,166,3.2967,-0.00619777,0.234479,0.817685
1869,164,3.29549,-0.00894097,0.234912,0.817457
1871,162,3.29415,-0.0119131,0.23579,0.816945
1873,160,3.29396,-0.0176553,0.235346,0.815797
1875,158,3.29373,-0.0102657,0.235351,0.815418
1877,156,3.29448,-0.00912917,0.234886,0.814666
1879,154,3.29521,-0.0139918,0.234006,0.814125
1881,152,3.29495,-0.0147861,0.234006,0.813766
1883,150,3.29311,-0.0177557,0.235253,0.813283
1885,148,3.29609,-0.00822938,0.232227,0.812353
1887,146,3.29582,-0.00983531,0.23266,0.811418
1889,144,3.29393,-0.0128211,0.233534,0.810931
1891,142,3.29352,-0.0128271,0.233533,0.811173
1893,140,3.29388,-0.0104476,0.23309,0.809694
1895,138,3.29523,-0.00908552,0.232184,0.809253
1897,136,3.29398,-0.0100092,0.232624,0.808643
1899,134,3.29414,-0.0171074,0.232189,0.808174
1901,132,3.29352,-0.017776,0.232188,0.807878
1903,130,3.29482,-0.00619599,0.231279,0.807031
1905,128,3.29506,-0.0133003,0.23085,0.806815
1907,126,3.29463,-0.0127856,0.230848,0.805559
1909,124,3.29279,-0.0157969,0.231719,0.805048
1911,122,3.29298,-0.0145148,0.23128,0.804562
1913,120,3.29584,-0.00704264,0.229065,0.803724
1915,118,3.29405,-0.012085,0.230369,0.803363
1917,116,3.2941,-0.0106946,0.229928,0.802918
1919,114,3.29377,-0.00964386,0.229925,0.802149
1921,112,3.29558,-0.00621085,0.228581,0.801582
1923,110,3.29419,-0.00927649,0.229476,0.801057
1925,108,3.2944,-0.00799949,0.229019,0.800587
1927,106,3.29373,-0.0158313,0.229025,0.799635
1929,104,3.29231,-0.0105401,0.229904,0.79911
1931,102,3.29468,-0.0112601,0.227685,0.798354
1933,100,3.29528,-0.0106158,0.227253,0.797585
1935,98,3.29345,-0.0137018,0.22812,0.797064
1937,96,3.29261,-0.0124992,0.228113,0.796345
1939,94,3.29561,-0.00706666,0.226333,0.795611
1941,92,3.29494,-0.00786939,0.226331,0.795243
1943,90,3.29345,-0.0109048,0.227555,0.79475
1945,88,3.29355,-0.0180975,0.226759,0.794248
1947,86,3.29328,-0.016642,0.226323,0.793831
1949,84,3.29417,-0.00927856,0.226279,0.793135
1951,82,3.29405,-0.0144888,0.225841,0.792309
1953,80,3.29395,-0.012995,0.225404,0.791914
1955,78,3.29178,-0.0183074,0.226708,0.791477
1957,76,3.29529,-0.00924577,0.224066,0.790245
1959,74,3.29485,-0.00802378,0.224069,0.789556
1961,72,3.29288,-0.0152487,0.225369,0.789519
1963,70,3.29296,-0.0117895,0.224934,0.788764
1965,68,3.29568,-0.00703714,0.223158,0.787702
1967,66,3.29404,-0.00791139,0.22359,0.787126
1969,64,3.29289,-0.0173973,0.224019,0.78652
1971,62,3.29325,-0.0160078,0.223584,0.786076
1973,60,3.29445,-0.0147177,0.22267,0.785594
1975,58,3.29399,-0.0135014,0.222668,0.784881
1977,56,3.29437,-0.0122577,0.222237,0.784376
1979,54,3.2937,-0.0129423,0.222583,0.78407
1981,52,3.29224,-0.0160775,0.223096,0.783549
1983,50,3.29466,-0.00935125,0.221316,0.78209
1985,48,3.29421,-0.0100691,0.221316,0.781787
1987,46,3.29273,-0.0132633,0.222179,0.781497
1989,44,3.29322,-0.00978542,0.221314,0.780667
1991,42,3.29509,-0.0148185,0.219974,0.778685
1993,40,3.29338,-0.00801301,0.220836,0.778987
1995,38,3.2936,-0.0131232,0.219974,0.778406
1997,36,3.29329,-0.0138805,0.219975,0.778085
1999,34,3.29336,-0.0149815,0.219915,0.777433
2001,32,3.29422,-0.0092182,0.218732,0.776774
2003,30,3.29398,-0.00875854,0.218395,0.77572
2005,28,3.29221,-0.0139867,0.219482,0.775555
2007,26,3.29439,-0.0149064,0.217704,0.774515
2009,24,3.29463,-0.0142877,0.217276,0.773712
2011,22,3.29275,-0.00800669,0.218125,0.773554
2013,20,3.29269,-0.0153524,0.217697,0.773063
2015,18,3.29226,-0.0148595,0.217695,0.772016
2017,16,3.2936,-0.0136027,0.216774,0.771516
2019,14,3.29364,-0.0101355,0.216346,0.770713
2021,12,3.2936,-0.0110695,0.216341,0.770299
2023,10,3.29165,-0.0141903,0.217203,0.76982
2025,8,3.29159,-0.0150122,0.217187,0.769441
2027,6,3.29366,-0.011732,0.216269,0.768584
2029,4,3.2928,-0.0125003,0.21627,0.768249
2030,3,3.29222,-0.0111731,0.216269,0.767581