File: hust_correlation_analysis/matrices/HUST_10-7_cycle_feature_matrix.csv
cycle_number,rul,voltage,current,capacity,charge_capacity
1,1785,3.31211,0.0227624,0.272211,1.05144
3,1783,3.29773,-0.0118952,0.28592,1.02077
5,1781,3.29868,-0.0140973,0.285893,1.02461
7,1779,3.30261,-0.0115955,0.283759,1.02724
9,1777,3.30278,-0.0139289,0.284148,1.03076
11,1775,3.30489,-0.0114566,0.282816,1.03299
13,1773,3.30486,-0.0125555,0.282839,1.035
15,1771,3.3062,-0.0113683,0.281435,1.03634
17,1769,3.3078,-0.0100835,0.280327,1.03767
19,1767,3.30693,-0.0124497,0.281179,1.0384
21,1765,3.30797,-0.0118201,0.280402,1.03915
23,1763,3.30907,-0.0112073,0.279721,1.0399
25,1761,3.30891,-0.0106124,0.279352,1.04046
27,1759,3.30988,-0.0105495,0.278622,1.04083
29,1757,3.3104,-0.0100923,0.278546,1.04129
31,1755,3.31113,-0.0100571,0.2779,1.04149
33,1753,3.31163,-0.0095022,0.27754,1.04203
35,1751,3.31223,-0.00953802,0.27718,1.04218
37,1749,3.31036,-0.0124961,0.278385,1.04229
39,1747,3.31077,-0.0118706,0.278028,1.04287
41,1745,3.31108,-0.0118241,0.27767,1.04306
43,1743,3.31113,-0.0118936,0.277669,1.04302
45,1741,3.31151,-0.0118585,0.277312,1.04321
47,1739,3.31314,-0.00965607,0.27611,1.04263
49,1737,3.31282,-0.00933484,0.276109,1.04284
51,1735,3.31268,-0.0102043,0.276196,1.04229
53,1733,3.31269,-0.0102284,0.276109,1.04227
55,1731,3.3125,-0.0102383,0.276109,1.04226
57,1729,3.31262,-0.0102936,0.276107,1.04223
59,1727,3.3126,-0.0108263,0.276107,1.04215
61,1725,3.31237,-0.0108843,0.276107,1.04186
63,1723,3.31256,-0.0113697,0.276105,1.04155
65,1721,3.31227,-0.0113518,0.276107,1.04156
67,1719,3.31263,-0.0113876,0.275752,1.04172
69,1717,3.31187,-0.0117209,0.276109,1.04134
71,1715,3.31436,-0.00963971,0.274556,1.04086
73,1713,3.31401,-0.00956353,0.274553,1.0409
75,1711,3.31413,-0.0100867,0.274553,1.04058
77,1709,3.31399,-0.0101001,0.274553,1.04058
79,1707,3.31403,-0.0101116,0.274553,1.04057
81,1705,3.31378,-0.0107653,0.274905,1.03998
83,1703,3.31364,-0.0107818,0.274903,1.03997
85,1701,3.31359,-0.0108047,0.274904,1.03996
87,1699,3.31296,-0.0113453,0.275258,1.03944
89,1697,3.31317,-0.0113058,0.274904,1.03962
91,1695,3.31277,-0.0118724,0.275346,1.03912
93,1693,3.31437,-0.0090419,0.274059,1.03892
95,1691,3.31425,-0.00956679,0.274058,1.03859
97,1689,3.31406,-0.00961074,0.274057,1.03857
99,1687,3.31394,-0.00961075,0.274057,1.03856
101,1685,3.31381,-0.0101648,0.274289,1.03819
103,1683,3.31376,-0.0102242,0.274057,1.03817
105,1681,3.31321,-0.0102589,0.274408,1.03797
107,1679,3.31339,-0.0108456,0.274409,1.03761
109,1677,3.31302,-0.0108113,0.274408,1.03763
111,1675,3.31322,-0.0113507,0.274412,1.03728
113,1673,3.31292,-0.0113101,0.274415,1.03732
115,1671,3.31277,-0.0119146,0.274768,1.03677
117,1669,3.31318,-0.0117958,0.274413,1.03701
119,1667,3.31308,-0.0118679,0.274409,1.03697
121,1665,3.3149,-0.00954361,0.273203,1.03642
123,1663,3.31454,-0.00958937,0.273204,1.03639
125,1661,3.31468,-0.00953187,0.273289,1.03644
127,1659,3.31435,-0.0102112,0.273558,1.03583
129,1657,3.31443,-0.0102023,0.273557,1.03584
131,1655,3.31429,-0.0102239,0.273556,1.03583
133,1653,3.31394,-0.0108272,0.273914,1.03528
135,1651,3.3136,-0.0107656,0.273917,1.03534
137,1649,3.31366,-0.0112408,0.273919,1.03504
139,1647,3.31359,-0.0112245,0.274152,1.03505
141,1645,3.31342,-0.0112965,0.273916,1.035
143,1643,3.3133,-0.0112768,0.273915,1.03502
145,1641,3.31329,-0.0118554,0.273915,1.03463
147,1639,3.31277,-0.0118754,0.274267,1.03446
149,1637,3.31313,-0.0118226,0.273912,1.03465
151,1635,3.3146,-0.00958269,0.273059,1.03389
153,1633,3.31437,-0.0096054,0.273061,1.03387
155,1631,3.31391,-0.00966373,0.273417,1.03367
157,1629,3.31413,-0.0101572,0.273419,1.03337
159,1627,3.31399,-0.0101243,0.27342,1.0334
161,1625,3.31341,-0.0101343,0.273777,1.03349
163,1623,3.31469,-0.0106123,0.273199,1.03307
165,1621,3.31352,-0.0108025,0.27386,1.03279
167,1619,3.31381,-0.0112649,0.273771,1.0325
169,1617,3.31388,-0.0112114,0.273773,1.03252
171,1615,3.31366,-0.0112388,0.273771,1.03251
173,1613,3.31359,-0.0118241,0.27377,1.03213
175,1611,3.31366,-0.0118293,0.273767,1.03212
177,1609,3.31352,-0.0118092,0.27377,1.03213
179,1607,3.31509,-0.00891178,0.272561,1.03194
181,1605,3.3147,-0.00961121,0.272918,1.03134
183,1603,3.31456,-0.00952676,0.272914,1.03138
185,1601,3.31398,-0.00980988,0.273264,1.03101
187,1599,3.31429,-0.00970247,0.272914,1.03127
189,1597,3.31392,-0.0102972,0.273268,1.03071
191,1595,3.31369,-0.0102637,0.273269,1.03074
193,1593,3.31372,-0.0102872,0.273273,1.03075
195,1591,3.31402,-0.0108166,0.273268,1.03039
197,1589,3.31343,-0.0108478,0.273626,1.03021
199,1587,3.31334,-0.0109141,0.273629,1.03017
201,1585,3.31373,-0.0107633,0.273269,1.03043
203,1583,3.31343,-0.0114502,0.273629,1.02985
205,1581,3.31337,-0.0114487,0.273629,1.02985
207,1579,3.31353,-0.0118894,0.273628,1.02956
209,1577,3.31332,-0.0119078,0.273629,1.02955
211,1575,3.31336,-0.0119046,0.273628,1.02955
213,1573,3.31316,-0.0118953,0.273627,1.02954
215,1571,3.31304,-0.0125077,0.273981,1.02898
217,1569,3.31277,-0.0120634,0.27398,1.02926
219,1567,3.31269,-0.0120793,0.273978,1.02924
221,1565,3.31248,-0.0121395,0.273974,1.02918
223,1563,3.3125,-0.0126492,0.274323,1.02865
225,1561,3.31385,-0.00990999,0.273118,1.02837
227,1559,3.31161,-0.0125106,0.274682,1.02879
229,1557,3.31373,-0.0102125,0.27347,1.02799
231,1555,3.31316,-0.0102673,0.273474,1.02795
233,1553,3.31323,-0.0105982,0.273474,1.02776
235,1551,3.31325,-0.010636,0.273473,1.02773
237,1549,3.31322,-0.0106302,0.273473,1.02773
239,1547,3.31315,-0.010658,0.27347,1.02771
241,1545,3.31268,-0.0112484,0.273832,1.02718
243,1543,3.31306,-0.0111723,0.27347,1.02738
245,1541,3.31265,-0.0112852,0.273831,1.02715
247,1539,3.31245,-0.0118198,0.273837,1.02683
249,1537,3.31264,-0.0117272,0.27348,1.02708
251,1535,3.31236,-0.0121374,0.273657,1.02683
253,1533,3.31217,-0.0122005,0.273444,1.02679
255,1531,3.3136,-0.00999925,0.272627,1.02599
257,1529,3.31345,-0.00999788,0.272803,1.02599
259,1527,3.31323,-0.0100503,0.272626,1.02596
261,1525,3.31316,-0.0100273,0.272624,1.02597
263,1523,3.31315,-0.0100377,0.272624,1.02595
265,1521,3.31289,-0.0106309,0.272983,1.02542
267,1519,3.31327,-0.0105706,0.272626,1.02562
269,1517,3.31312,-0.010552,0.272626,1.02565
271,1515,3.31307,-0.0110281,0.272714,1.02535
273,1513,3.31299,-0.011023,0.272627,1.02537
275,1511,3.31317,-0.0115613,0.272628,1.02503
277,1509,3.31264,-0.0116532,0.272989,1.02481
279,1507,3.31264,-0.0116538,0.272984,1.0248
281,1505,3.31235,-0.0119915,0.272985,1.02457
283,1503,3.31244,-0.0121689,0.272984,1.02447
285,1501,3.31222,-0.0122475,0.272984,1.02441
287,1499,3.31164,-0.0123613,0.273343,1.02416
289,1497,3.31136,-0.0123697,0.27352,1.02417
291,1495,3.31292,-0.0094397,0.272129,1.02399
293,1493,3.31292,-0.00995861,0.272363,1.02367
295,1491,3.3131,-0.00993814,0.272132,1.02368
297,1489,3.31335,-0.0104566,0.272131,1.02336
299,1487,3.31326,-0.010465,0.272133,1.02336
301,1485,3.31311,-0.0104232,0.272132,1.02337
303,1483,3.31291,-0.0111046,0.272493,1.0228
305,1481,3.31287,-0.0110877,0.272493,1.02255
307,1479,3.31308,-0.0110813,0.27249,1.02279
309,1477,3.31277,-0.0110807,0.27249,1.02279
311,1475,3.31261,-0.0111079,0.27249,1.02277
313,1473,3.31211,-0.0118062,0.272849,1.02217
315,1471,3.31235,-0.0116339,0.272493,1.02247
317,1469,3.31226,-0.0116891,0.272669,1.02244
319,1467,3.31227,-0.0121546,0.272498,1.02216
321,1465,3.31169,-0.0122525,0.272857,1.02192
323,1463,3.31226,-0.0121847,0.272494,1.02213
325,1461,3.31378,-0.00996576,0.271637,1.02131
327,1459,3.31373,-0.00994916,0.271635,1.02131
329,1457,3.3137,-0.00997551,0.271637,1.02131
331,1455,3.3137,-0.00992043,0.27181,1.02134
333,1453,3.31385,-0.010486,0.271637,1.02098
335,1451,3.31387,-0.0104809,0.271636,1.02098
337,1449,3.31317,-0.0105435,0.272,1.02079
339,1447,3.3133,-0.011035,0.272003,1.0205
341,1445,3.313,-0.0110482,0.272002,1.02048
343,1443,3.31301,-0.0110546,0.272002,1.02049
345,1441,3.31278,-0.0111101,0.272085,1.02021
347,1439,3.31243,-0.011681,0.272365,1.01994
349,1437,3.31234,-0.0116578,0.272366,1.01994
351,1435,3.31235,-0.0116448,0.272364,1.01994
353,1433,3.31235,-0.011685,0.272362,1.01991
355,1431,3.31218,-0.0122186,0.272364,1.01958
357,1429,3.31216,-0.0121907,0.272361,1.0196
359,1427,3.31189,-0.0122649,0.272412,1.01956
361,1425,3.31386,-0.00985268,0.271149,1.01904
363,1423,3.31321,-0.00987499,0.271511,1.01886
365,1421,3.31319,-0.00983558,0.271513,1.0189
367,1419,3.31301,-0.00984137,0.271513,1.0189
369,1417,3.31299,-0.0103772,0.271511,1.01855
371,1415,3.31266,-0.0104478,0.271512,1.01851
373,1413,3.31255,-0.0104715,0.271512,1.01876
375,1411,3.31245,-0.0104901,0.271508,1.01847
377,1409,3.3123,-0.0111421,0.27187,1.0179
379,1407,3.31238,-0.0111099,0.272096,1.01789
381,1405,3.31243,-0.0111183,0.271867,1.01789
383,1403,3.31265,-0.0110027,0.27151,1.01816
385,1401,3.31259,-0.0116425,0.271876,1.01761
387,1399,3.31261,-0.0116384,0.271877,1.01761
389,1397,3.31309,-0.0114953,0.27151,1.01786
391,1395,3.31218,-0.0122132,0.272527,1.01687
393,1393,3.31239,-0.0120844,0.271878,1.01734
395,1391,3.31249,-0.0121087,0.27188,1.01733
397,1389,3.31395,-0.00917467,0.270657,1.01711
399,1387,3.31349,-0.00984094,0.271021,1.01679
401,1385,3.31289,-0.00990245,0.271387,1.01633
403,1383,3.31321,-0.00986831,0.271019,1.01651
405,1381,3.31322,-0.00990407,0.27102,1.01647
407,1379,3.31309,-0.0104679,0.271384,1.01598
409,1377,3.31301,-0.0104408,0.271387,1.016
411,1375,3.31422,-0.00739283,0.270231,1.01602
413,1373,3.31392,-0.00801354,0.270596,1.01547
415,1371,3.31297,-0.0109469,0.271384,1.01569
417,1369,3.31279,-0.0110076,0.271381,1.01564
419,1367,3.31261,-0.0110274,0.27138,1.01563
421,1365,3.31249,-0.0110717,0.271555,1.01558
423,1363,3.31227,-0.0110645,0.271373,1.01557
425,1361,3.31206,-0.0111463,0.271374,1.01552
427,1359,3.31157,-0.0117367,0.271737,1.01498
429,1357,3.31142,-0.0117761,0.272025,1.01494
431,1355,3.31143,-0.0116965,0.271737,1.01501
433,1353,3.31172,-0.0122787,0.271736,1.01463
435,1351,3.31162,-0.0123132,0.271735,1.01462
437,1349,3.31173,-0.0123383,0.271734,1.01461
439,1347,3.31351,-0.00940226,0.270512,1.01439
441,1345,3.31381,-0.00997353,0.270514,1.01404
443,1343,3.31359,-0.00992814,0.270513,1.01406
445,1341,3.31353,-0.00992951,0.270515,1.01406
447,1339,3.31305,-0.0100382,0.270877,1.01382
449,1337,3.31339,-0.00994458,0.270508,1.01404
451,1335,3.31302,-0.010663,0.270873,1.01342
453,1333,3.31261,-0.0106773,0.270875,1.01342
455,1331,3.31269,-0.0106399,0.270878,1.01345
457,1329,3.31225,-0.0112449,0.271248,1.01292
459,1327,3.31214,-0.0111082,0.271242,1.01326
461,1325,3.31234,-0.0111361,0.270879,1.01315
463,1323,3.31246,-0.0111537,0.270875,1.01314
465,1321,3.31204,-0.0117964,0.271241,1.01257
467,1319,3.31187,-0.0117578,0.27124,1.0126
469,1317,3.31181,-0.0117889,0.271243,1.01258
471,1315,3.31169,-0.0117835,0.271323,1.01258
473,1313,3.31127,-0.0124134,0.271607,1.01202
475,1311,3.31093,-0.0124746,0.271612,1.012
477,1309,3.31268,-0.00945625,0.270389,1.01184
479,1307,3.31273,-0.00998565,0.27039,1.01151
481,1305,3.31285,-0.0100112,0.270391,1.01151
483,1303,3.31286,-0.0100138,0.270389,1.01149
485,1301,3.31299,-0.0105299,0.270389,1.01117
487,1299,3.3129,-0.0105754,0.27039,1.01115
489,1297,3.31304,-0.0105536,0.270385,1.01115
491,1295,3.31288,-0.0106298,0.270382,1.01109
493,1293,3.31263,-0.0112627,0.270748,1.01054
495,1291,3.31265,-0.0112953,0.270745,1.01076
497,1289,3.31246,-0.0112595,0.270746,1.01052
499,1287,3.31201,-0.0113407,0.270749,1.01048
501,1285,3.31168,-0.0117897,0.270755,1.01022
503,1283,3.31153,-0.01179,0.270756,1.01024
505,1281,3.3112,-0.0123917,0.271123,1.00971
507,1279,3.31111,-0.0123109,0.271123,1.00975
509,1277,3.31095,-0.0123826,0.271202,1.0097
511,1275,3.31086,-0.0123969,0.271119,1.00969
513,1273,3.31111,-0.012433,0.271119,1.00949
515,1271,3.31307,-0.0100103,0.27012,1.00911
517,1269,3.31308,-0.0100379,0.269892,1.00909
519,1267,3.31296,-0.0100423,0.26989,1.00908
521,1265,3.31295,-0.0100073,0.269888,1.00911
523,1263,3.31271,-0.0106402,0.270265,1.00857
525,1261,3.31252,-0.0105712,0.270262,1.00862
527,1259,3.31233,-0.0105917,0.270264,1.0086
529,1257,3.31224,-0.0111628,0.270921,1.00808
531,1255,3.31209,-0.0111333,0.270635,1.0081
533,1253,3.31176,-0.0111539,0.270633,1.00809
535,1251,3.31185,-0.011769,0.270633,1.00771
537,1249,3.31168,-0.0117736,0.270632,1.00771
539,1247,3.31169,-0.0117739,0.270713,1.00771
541,1245,3.3113,-0.0123912,0.270998,1.00716
543,1243,3.31132,-0.0123513,0.270995,1.00718
545,1241,3.31099,-0.0123488,0.270994,1.00716
547,1239,3.31069,-0.0123824,0.270995,1.00715
549,1237,3.31244,-0.0100096,0.269765,1.00654
551,1235,3.31228,-0.00995687,0.269767,1.00659
553,1233,3.31244,-0.0100133,0.269766,1.00655
555,1231,3.3122,-0.0106084,0.270137,1.00602
557,1229,3.31278,-0.0105353,0.269769,1.00624
559,1227,3.31272,-0.0105294,0.269766,1.00624
561,1225,3.31262,-0.011136,0.270135,1.00571
563,1223,3.31246,-0.0110469,0.270135,1.00576
565,1221,3.31202,-0.0111184,0.270137,1.00572
567,1219,3.31175,-0.0111371,0.270135,1.00571
569,1217,3.31159,-0.0117576,0.270136,1.00532
571,1215,3.31127,-0.011744,0.270135,1.00533
573,1213,3.31068,-0.0118355,0.270135,1.00527
575,1211,3.31074,-0.012391,0.270504,1.00477
577,1209,3.31081,-0.0124301,0.270503,1.00473
579,1207,3.31092,-0.0124162,0.270583,1.00474
581,1205,3.31306,-0.00936615,0.268899,1.00472
583,1203,3.31297,-0.0100547,0.26927,1.00414
585,1201,3.3131,-0.0102958,0.269273,1.00401
587,1199,3.31302,-0.0100308,0.269269,1.00416
589,1197,3.31247,-0.0100371,0.269345,1.00412
591,1195,3.31291,-0.0105826,0.269266,1.0038
593,1193,3.31202,-0.0106837,0.269637,1.00358
595,1191,3.31174,-0.0107299,0.269637,1.00356
597,1189,3.31106,-0.0112799,0.270006,1.00305
599,1187,3.31102,-0.0113413,0.270007,1.00301
601,1185,3.31145,-0.0112931,0.269519,1.0032
603,1183,3.31167,-0.0118254,0.269635,1.00289
605,1181,3.31101,-0.0119322,0.270005,1.00265
607,1179,3.31111,-0.0118908,0.270181,1.00268
609,1177,3.31171,-0.0118915,0.269632,1.00284
611,1175,3.31125,-0.0125379,0.270006,1.00228
613,1173,3.31095,-0.0124572,0.270004,1.00232
615,1171,3.31083,-0.0125558,0.270003,1.00227
617,1169,3.31269,-0.00962997,0.268946,1.00201
619,1167,3.31216,-0.0101803,0.269144,1.00149
621,1165,3.31217,-0.0101685,0.269146,1.00151
623,1163,3.31202,-0.0101535,0.269148,1.00153
625,1161,3.31178,-0.0107157,0.269143,1.00118
627,1159,3.31176,-0.0106977,0.269147,1.00119
629,1157,3.31144,-0.0113413,0.269521,1.00065
631,1155,3.31133,-0.011361,0.26952,1.00064
633,1153,3.31123,-0.0113086,0.269519,1.00066
635,1151,3.31121,-0.0118763,0.26952,1.00031
637,1149,3.31115,-0.0119466,0.269517,1.00028
639,1147,3.31107,-0.0120118,0.269521,1.00024
641,1145,3.31062,-0.0125999,0.269892,0.999713
643,1143,3.31044,-0.0125874,0.269894,0.999721
645,1141,3.31036,-0.0125362,0.269894,0.999761
647,1139,3.31234,-0.0100641,0.268659,0.999198
649,1137,3.31209,-0.010148,0.268659,0.999254
651,1135,3.31173,-0.0101066,0.268661,0.999188
653,1133,3.31184,-0.0106921,0.268658,0.998826
655,1131,3.31173,-0.0106701,0.26866,0.998651
657,1129,3.31157,-0.0111369,0.269031,0.998379
659,1127,3.31129,-0.0113109,0.269033,0.998283
661,1125,3.31133,-0.0113897,0.269029,0.998237
663,1123,3.31105,-0.0113931,0.269027,0.998227
665,1121,3.31105,-0.012036,0.269193,0.997797
667,1119,3.31131,-0.012086,0.269024,0.997782
669,1117,3.31059,-0.0121466,0.269393,0.997573
671,1115,3.31044,-0.0121683,0.269395,0.997567
673,1113,3.31059,-0.012102,0.269023,0.997573
675,1111,3.31073,-0.0125273,0.269024,0.997525
677,1109,3.3123,-0.0101476,0.268163,0.996747
679,1107,3.31155,-0.0102055,0.268537,0.996754
681,1105,3.31156,-0.0101306,0.268159,0.996748
683,1103,3.31179,-0.0102648,0.268157,0.996671
685,1101,3.31131,-0.0109419,0.268754,0.996096
687,1099,3.3112,-0.0109061,0.26853,0.996113
689,1097,3.31128,-0.0110654,0.268527,0.995986
691,1095,3.31141,-0.0115714,0.268905,0.995543
693,1093,3.31122,-0.0114481,0.26853,0.995777
695,1091,3.31107,-0.0114207,0.26853,0.995796
697,1089,3.31094,-0.012016,0.268824,0.995445
699,1087,3.31057,-0.0120486,0.26891,0.995283
701,1085,3.31007,-0.0126672,0.269288,0.994738
703,1083,3.30982,-0.0126807,0.269286,0.994533
705,1081,3.31203,-0.00959449,0.267674,0.994716
707,1079,3.31189,-0.0102335,0.267673,0.994316
709,1077,3.31131,-0.0102343,0.268047,0.994138
711,1075,3.31151,-0.0102772,0.268269,0.994124
713,1073,3.31124,-0.0109341,0.268416,0.993536
715,1071,3.31119,-0.0109015,0.26804,0.993727
717,1069,3.31109,-0.0108933,0.268043,0.993744
719,1067,3.31112,-0.0114554,0.268042,0.993387
721,1065,3.31058,-0.0116035,0.268418,0.993144
723,1063,3.31056,-0.0120309,0.268417,0.992884
725,1061,3.31042,-0.0121025,0.268643,0.992854
727,1059,3.31041,-0.0122159,0.268417,0.992773
729,1057,3.31023,-0.0122194,0.268411,0.992755
731,1055,3.30973,-0.0129342,0.268791,0.992166
733,1053,3.30957,-0.0129233,0.26879,0.992176
735,1051,3.31143,-0.00978872,0.267843,0.992003
737,1049,3.31137,-0.0103379,0.267548,0.991661
739,1047,3.31115,-0.0103464,0.267633,0.991699
741,1045,3.31118,-0.0109511,0.267559,0.991326
743,1043,3.31124,-0.0108602,0.267557,0.991381
745,1041,3.31126,-0.0115423,0.267558,0.990814
747,1039,3.31081,-0.0115434,0.267934,0.990815
749,1037,3.31066,-0.0115819,0.267935,0.990801
751,1035,3.31054,-0.0122051,0.267933,0.990408
753,1033,3.30981,-0.0122675,0.268313,0.990211
755,1031,3.31029,-0.0121872,0.26793,0.990411
757,1029,3.30966,-0.0128652,0.268307,0.989824
759,1027,3.30936,-0.0128969,0.268312,0.989827
761,1025,3.31136,-0.0103037,0.267066,0.989327
763,1023,3.31049,-0.0103265,0.267498,0.989324
765,1021,3.31161,-0.0108827,0.267071,0.988989
767,1019,3.30996,-0.0109044,0.267875,0.988818
769,1017,3.31104,-0.0114764,0.267446,0.988456
771,1015,3.31188,-0.00841941,0.26663,0.988235
773,1013,3.3115,-0.00845901,0.266631,0.988206
775,1011,3.31084,-0.00907374,0.267007,0.987672
777,1009,3.31005,-0.0122071,0.267651,0.987858
779,1007,3.30988,-0.0122315,0.267872,0.987844
781,1005,3.3105,-0.00962573,0.267007,0.987332
783,1003,3.31081,-0.00965563,0.267007,0.987316
785,1001,3.31091,-0.00968363,0.267008,0.987305
787,999,3.31044,-0.0103367,0.267387,0.986747
789,997,3.31044,-0.0102968,0.267386,0.986775
791,995,3.31046,-0.0108497,0.267463,0.98643
793,993,3.31089,-0.0109876,0.267164,0.986185
795,991,3.31003,-0.0109725,0.267337,0.986192
797,989,3.31012,-0.0116028,0.267336,0.985809
799,987,3.31036,-0.0085285,0.266897,0.985404
801,985,3.31034,-0.0091846,0.266896,0.985017
803,983,3.30975,-0.0122215,0.267542,0.985279
805,981,3.31048,-0.00980055,0.266895,0.984663
807,979,3.31089,-0.00967386,0.266513,0.984886
809,977,3.31082,-0.00970512,0.266355,0.984876
811,975,3.31117,-0.00979398,0.266465,0.984632
813,973,3.31106,-0.0103461,0.266466,0.984315
815,971,3.31066,-0.0103694,0.266464,0.984289
817,969,3.30999,-0.0109685,0.266844,0.983754
819,967,3.31006,-0.0111168,0.26684,0.983665
821,965,3.31018,-0.011714,0.266845,0.983328
823,963,3.30994,-0.0116369,0.266846,0.983375
825,961,3.30981,-0.0116879,0.266841,0.983322
827,959,3.30948,-0.012391,0.267219,0.982739
829,957,3.309558,-0.0123483,0.267131,0.982929
831,955,3.30911,-0.0129172,0.267215,0.982422
833,953,3.30887,-0.0129688,0.267212,0.982374
835,951,3.30901,-0.0130107,0.267286,0.982338
837,949,3.31093,-0.00997454,0.265965,0.982082
839,947,3.31045,-0.010626,0.266351,0.981539
841,945,3.31073,-0.0104891,0.265967,0.981783
843,943,3.31022,-0.0112148,0.266104,0.981172
845,941,3.3098,-0.0110904,0.266352,0.981271
847,939,3.30928,-0.0118883,0.266732,0.98062
849,937,3.30918,-0.0117981,0.266776,0.980677
851,935,3.30922,-0.0123271,0.266728,0.980348
853,933,3.30923,-0.0124782,0.266728,0.98027
855,931,3.30953,-0.0124691,0.266728,0.980274
857,929,3.30963,-0.0130553,0.267024,0.979924
859,927,3.3088,-0.0130512,0.267109,0.978599
861,925,3.31054,-0.0105419,0.265866,0.979184
863,923,3.31019,-0.0104865,0.265868,0.979232
865,921,3.30965,-0.011064,0.266252,0.978721
867,919,3.30924,-0.0111293,0.266249,0.978684
869,917,3.30989,-0.0111391,0.265861,0.978832
871,915,3.30952,-0.0117688,0.266249,0.978289
873,913,3.30941,-0.0117909,0.266248,0.978291
875,911,3.30907,-0.012482,0.266631,0.97771
877,909,3.30903,-0.0124649,0.266247,0.977881
879,907,3.30851,-0.0131208,0.266628,0.977572
881,905,3.3083,-0.0131038,0.266626,0.977333
883,903,3.30886,-0.0130497,0.2662,0.977518
885,901,3.31041,-0.010725,0.265369,0.976635
887,899,3.31034,-0.0106072,0.265373,0.976726
889,897,3.30985,-0.0112388,0.265758,0.976187
891,895,3.30936,-0.0112363,0.265762,0.976211
893,893,3.30886,-0.0118025,0.265758,0.975856
895,891,3.30871,-0.0117904,0.265762,0.975874
897,889,3.30858,-0.0125737,0.266147,0.97525
899,887,3.30847,-0.0126204,0.266147,0.975209
901,885,3.30869,-0.0130978,0.266142,0.974923
903,883,3.30889,-0.0131241,0.266143,0.974918
905,881,3.31041,-0.00996972,0.264891,0.974701
907,879,3.30961,-0.0106361,0.265353,0.974146
909,877,3.31002,-0.0105623,0.264883,0.974326
911,875,3.30915,-0.0113746,0.265876,0.973514
913,873,3.30958,-0.0112376,0.265273,0.973767
915,871,3.30907,-0.0119375,0.26566,0.973187
917,869,3.30904,-0.0119574,0.265659,0.973191
919,867,3.30883,-0.0125888,0.265736,0.972814
921,865,3.30819,-0.0125538,0.265662,0.97284
923,863,3.30767,-0.0131318,0.266046,0.97233
925,861,3.3075,-0.0132428,0.266046,0.972245
927,859,3.30934,-0.0100687,0.26479,0.972042
929,857,3.30969,-0.0106712,0.264789,0.971682
931,855,3.30988,-0.010664,0.265005,0.97169
933,853,3.30922,-0.0113411,0.265175,0.971115
935,851,3.30898,-0.0118797,0.265176,0.970812
937,849,3.30868,-0.0118329,0.265177,0.970841
939,847,3.30894,-0.00929135,0.264899,0.970065
941,845,3.30827,-0.0125838,0.265636,0.970234
943,843,3.30857,-0.0125122,0.26488,0.970432
945,841,3.30821,-0.013174,0.265563,0.969887
947,839,3.30757,-0.0132473,0.26556,0.969833
949,837,3.30861,-0.0107256,0.264504,0.969047
951,835,3.30855,-0.0107208,0.264691,0.969055
953,833,3.30881,-0.0113245,0.264692,0.968702
955,831,3.30904,-0.0114197,0.26469,0.968659
957,829,3.30893,-0.0120191,0.264903,0.968293
959,827,3.30822,-0.0120008,0.265078,0.968143
961,825,3.30915,-0.00940281,0.264239,0.967584
963,823,3.3084,-0.00939445,0.264411,0.967578
965,821,3.30823,-0.00999895,0.264629,0.967062
967,819,3.30881,-0.00994214,0.264238,0.967271
969,817,3.30834,-0.0107473,0.264627,0.966617
971,815,3.30817,-0.0106743,0.264629,0.966674
973,813,3.30934,-0.00744485,0.263535,0.966442
975,811,3.3079,-0.0114138,0.264593,0.966044
977,809,3.30767,-0.0115084,0.264596,0.965997
979,807,3.30806,-0.0120305,0.264591,0.965686
981,805,3.30822,-0.0121864,0.264588,0.965599
983,803,3.30807,-0.0127293,0.264587,0.965259
985,801,3.30787,-0.0127526,0.264586,0.965254
987,799,3.307,-0.0134653,0.264982,0.964689
989,797,3.30665,-0.0133748,0.264981,0.964734
991,795,3.30826,-0.0108094,0.264409,0.963968
993,793,3.30873,-0.0108942,0.263719,0.964094
995,791,3.30826,-0.011597,0.264106,0.963504
997,789,3.30792,-0.0115857,0.264103,0.963503
999,787,3.30747,-0.0116161,0.264103,0.963479
1001,785,3.30727,-0.0121811,0.264105,0.963156
1003,783,3.3074,-0.0121798,0.264176,0.96315
1005,781,3.30724,-0.0130269,0.264494,0.962496
1007,779,3.30739,-0.0135731,0.264492,0.962166
1009,777,3.30726,-0.0136068,0.264491,0.962143
1011,775,3.30831,-0.011011,0.263624,0.961403
1013,773,3.30787,-0.0108855,0.263622,0.961482
1015,771,3.30739,-0.0116251,0.26402,0.960892
1017,769,3.3081,-0.0115988,0.263452,0.961077
1019,767,3.30731,-0.0122243,0.264019,0.960542
1021,765,3.30688,-0.0129687,0.264487,0.959948
1023,763,3.30631,-0.0129531,0.264411,0.95994
1025,761,3.30651,-0.0128528,0.264013,0.960158
1027,759,3.30635,-0.0136164,0.26441,0.959554
1029,757,3.30894,-0.0102989,0.262744,0.959532
1031,755,3.30848,-0.0109314,0.263138,0.959011
1033,753,3.30794,-0.0116473,0.263532,0.958417
1035,751,3.3075,-0.0116491,0.263533,0.95842
1037,749,3.30689,-0.0116216,0.263535,0.95844
1039,747,3.30706,-0.0122358,0.263537,0.958353
1041,745,3.30746,-0.00968788,0.263078,0.957282
1043,743,3.30707,-0.00967411,0.26325,0.957297
1045,741,3.30644,-0.0134924,0.263931,0.957202
1047,739,3.30608,-0.0103275,0.263861,0.956746
1049,737,3.30752,-0.0109883,0.263053,0.956346
1051,735,3.30763,-0.0110364,0.263052,0.95634
1053,733,3.3078,-0.0114439,0.263051,0.956096
1055,731,3.3071,-0.0117434,0.263448,0.955751
1057,729,3.3065,-0.0123581,0.263446,0.955386
1059,727,3.30597,-0.0123192,0.263444,0.955406
1061,725,3.30613,-0.0130437,0.263443,0.954996
1063,723,3.30578,-0.0138041,0.263845,0.954396
1065,721,3.3057,-0.0137397,0.263844,0.954426
1067,719,3.3074,-0.0104116,0.262569,0.954218
1069,717,3.3068,-0.0111662,0.262965,0.953628
1071,715,3.30666,-0.0117223,0.263037,0.953302
1073,713,3.30696,-0.0124501,0.262966,0.952889
1075,711,3.30676,-0.0124525,0.262965,0.952887
1077,709,3.30605,-0.0130789,0.263538,0.952359
1079,707,3.30556,-0.0130701,0.263363,0.952358
1081,705,3.30521,-0.0130774,0.263362,0.952355
1083,703,3.30482,-0.0138961,0.263758,0.951707
1085,701,3.30704,-0.0111918,0.262482,0.951133
1087,699,3.30673,-0.0111782,0.262483,0.95114
1089,697,3.30642,-0.0118663,0.262484,0.950766
1091,695,3.30596,-0.0124754,0.262883,0.95024
1093,693,3.30593,-0.0124666,0.262884,0.950266
1095,691,3.30608,-0.0130329,0.262882,0.949923
1097,689,3.30582,-0.0130955,0.26288,0.949886
1099,687,3.30464,-0.013812,0.263284,0.949314
1101,685,3.30594,-0.011243,0.262402,0.948472
1103,683,3.30645,-0.0111415,0.261998,0.948701
1105,681,3.30614,-0.0118901,0.262402,0.948109
1107,679,3.30608,-0.0118941,0.262401,0.948108
1109,677,3.30502,-0.0126079,0.262804,0.947538
1111,675,3.30499,-0.0132493,0.262802,0.947176
1113,673,3.30567,-0.0131382,0.262398,0.947404
1115,671,3.30522,-0.0138323,0.262805,0.946844
1117,669,3.30693,-0.0104715,0.261525,0.946633
1119,667,3.30568,-0.0111824,0.261925,0.946065
1121,665,3.30498,-0.0118939,0.262327,0.945482
1123,663,3.30565,-0.0118709,0.261924,0.945681
1125,661,3.30536,-0.012604,0.262329,0.945086
1127,659,3.30505,-0.0131459,0.262502,0.944776
1129,657,3.30473,-0.0132164,0.262328,0.944752
1131,655,3.30418,-0.0138612,0.262731,0.943976
1133,653,3.30631,-0.0105111,0.26175,0.943968
1135,651,3.30638,-0.0111455,0.261445,0.943605
1137,649,3.30532,-0.011907,0.26185,0.943001
1139,647,3.30466,-0.0119422,0.261849,0.942978
1141,645,3.30423,-0.0126758,0.262258,0.942401
1143,643,3.3044,-0.0127041,0.262256,0.942396
1145,641,3.30444,-0.0133474,0.262258,0.942036
1147,639,3.30374,-0.0139081,0.262256,0.941716
1149,637,3.30585,-0.01121,0.260969,0.94112
1151,635,3.30597,-0.01121,0.260968,0.940899
1153,633,3.30558,-0.0119017,0.261441,0.940545
1155,631,3.30521,-0.011922,0.261374,0.940539
1157,629,3.30458,-0.00928965,0.261078,0.939714
1159,627,3.30322,-0.0134233,0.262186,0.939353
1161,625,3.30396,-0.013383,0.261777,0.939538
1163,623,3.30348,-0.0140691,0.262187,0.938989
1165,621,3.30517,-0.0113498,0.260897,0.938385
1167,619,3.30489,-0.0113516,0.260895,0.938368
1169,617,3.30456,-0.0120233,0.261369,0.937827
1171,615,3.30466,-0.0127203,0.261298,0.937418
1173,613,3.30392,-0.0128162,0.261299,0.937362
1175,611,3.30284,-0.0135466,0.261707,0.936783
1177,609,3.30255,-0.014255,0.262119,0.936236
1179,607,3.30464,-0.0108571,0.260824,0.935989
1181,605,3.30519,-0.011251,0.26041,0.935933
1183,603,3.30417,-0.0116138,0.260994,0.935553
1185,601,3.30407,-0.012211,0.260818,0.933693
1187,599,3.30386,-0.0129983,0.261435,0.93461
1189,597,3.3036,-0.0130117,0.261228,0.934601
1191,595,3.30275,-0.01367,0.261227,0.934217
1193,593,3.30186,-0.0144206,0.261641,0.93364
1195,591,3.30409,-0.0115691,0.26035,0.933109
1197,589,3.30477,-0.0115423,0.260352,0.933139
1199,587,3.30371,-0.0122791,0.260764,0.932558
1201,585,3.30387,-0.00950624,0.260499,0.931784
1203,583,3.30386,-0.0128132,0.26059,0.93226
1205,581,3.30354,-0.0101933,0.260465,0.931402
1207,579,3.30238,-0.0142726,0.261176,0.93128
1209,577,3.30364,-0.0108595,0.259874,0.931016
1211,575,3.30324,-0.0116088,0.260288,0.930431
1213,573,3.30352,-0.0123733,0.260288,0.930005
1215,571,3.30294,-0.013128,0.2607,0.929414
1217,569,3.30299,-0.0130472,0.260281,0.929618
1219,567,3.30231,-0.0138415,0.260693,0.928994
1221,565,3.30217,-0.0139074,0.260692,0.928957
1223,563,3.30136,-0.0146707,0.261108,0.928372
1225,561,3.30275,-0.011773,0.259807,0.927816
1227,559,3.30245,-0.0124947,0.260226,0.927255
1229,557,3.30282,-0.0131779,0.260227,0.92689
1231,555,3.3021,-0.0139001,0.260709,0.926336
1233,553,3.3019,-0.0137599,0.260226,0.926574
1235,551,3.30135,-0.014557,0.260709,0.925962
1237,549,3.30309,-0.0119103,0.259758,0.925103
1239,547,3.30301,-0.0118214,0.259337,0.925309
1241,545,3.30179,-0.0125115,0.259753,0.924753
1243,543,3.3015,-0.0133063,0.260172,0.924143
1245,541,3.30163,-0.0140611,0.260231,0.923725
1247,539,3.30137,-0.0141282,0.260168,0.923698
1249,537,3.30258,-0.0113075,0.259278,0.922907
1251,535,3.30237,-0.0119562,0.259277,0.922553
1253,533,3.30265,-0.0108722,0.259062,0.922067
1255,531,3.30116,-0.0133634,0.259701,0.921614
1257,529,3.30039,-0.0140545,0.260126,0.92108
1259,527,3.30113,-0.0192995,0.259283,0.921219
1261,525,3.3028,-0.0165823,0.258395,0.920386
1263,523,3.3022,-0.017196,0.258392,0.920044
1265,521,3.30146,-0.0179391,0.258812,0.919469
1267,519,3.30178,-0.0169485,0.258454,0.918917
1269,517,3.3014,-0.016923,0.258389,0.918932
1271,515,3.29993,-0.0194794,0.259542,0.918457
1273,513,3.29988,-0.0166028,0.258808,0.917678
1275,511,3.30239,-0.0120125,0.257082,0.916951
1277,509,3.3027,-0.011896,0.256664,0.917184
1279,507,3.30285,-0.00903491,0.25618,0.916425
1281,505,3.30167,-0.013326,0.25733,0.916085
1283,503,3.30235,-0.01046,0.256598,0.915477
1285,501,3.30228,-0.0040611,0.255887,0.914657
1287,499,3.29989,-0.0153465,0.257746,0.914801
1289,497,3.30036,-0.0180334,0.257014,0.913855
1291,495,3.30242,-0.0132909,0.255455,0.913183
1293,493,3.30101,-0.0187057,0.256607,0.913492
1295,491,3.30007,-0.0194817,0.256872,0.912903
1297,489,3.30283,-0.0129842,0.254879,0.912095
1299,487,3.30207,-0.00823252,0.254643,0.911631
1301,485,3.30134,-0.0162031,0.25554,0.911256
1303,483,3.30176,-0.0126379,0.255114,0.911027
1305,481,3.30162,-0.0151509,0.255123,0.910751
1307,479,3.30179,-0.0104942,0.254386,0.90986
1309,477,3.30128,-0.0129405,0.254803,0.909616
1311,475,3.30092,-0.0118477,0.254803,0.908963
1313,473,3.30133,-0.0106726,0.254385,0.908504
1315,471,3.30131,-0.00601895,0.254089,0.907818
1317,469,3.30085,-0.0104831,0.254326,0.907186
1319,467,3.30163,-0.008643,0.253489,0.907273
1321,465,3.30095,-0.0166357,0.253965,0.906713
1323,463,3.30114,-0.0101277,0.25319,0.905926
1325,461,3.29987,-0.0162854,0.253905,0.905639
1327,459,3.30251,-0.011614,0.252175,0.904922
1329,457,3.30241,-0.0121882,0.252485,0.904599
1331,455,3.30089,-0.0147614,0.253008,0.904135
1333,453,3.30068,-0.0119317,0.25259,0.903318
1335,451,3.30034,-0.014547,0.253005,0.902994
1337,449,3.30182,-0.0108891,0.251692,0.902798
1339,447,3.30035,-0.00608774,0.251867,0.902174
1341,445,3.30258,-0.00916041,0.250138,0.901203
1343,443,3.30308,-0.00819516,0.249727,0.90089
1345,441,3.30183,-0.00895831,0.250136,0.90006
1347,439,3.30121,-0.00889961,0.250134,0.900087
1349,437,3.30159,-0.00787694,0.249722,0.899553
1351,435,3.30308,-0.00495719,0.248818,0.89877
1353,433,3.30079,-0.0147462,0.250377,0.898739
1355,431,3.30023,-0.0137278,0.250375,0.898018
1357,429,3.30057,-0.011875,0.249957,0.897911
1359,427,3.30141,-0.00543066,0.249228,0.897075
1361,425,3.30064,-0.00790706,0.249642,0.896844
1363,423,3.30199,-0.00858416,0.248646,0.896267
1365,421,3.30273,-0.010074,0.247917,0.895113
1367,419,3.30138,-0.0107625,0.248329,0.89458
1369,417,3.3006,-0.0114227,0.248335,0.894246
1371,415,3.30065,-0.00970755,0.247912,0.894055
1373,413,3.3015,-0.0140653,0.247685,0.893662
1375,411,3.29998,-0.0166884,0.248801,0.893158
1377,409,3.30009,-0.0119901,0.247741,0.892234
1379,407,3.30065,-0.0109938,0.247327,0.891681
1381,405,3.30263,-0.00796874,0.246016,0.891133
1383,403,3.30023,-0.0142414,0.24776,0.890881
1385,401,3.3004,-0.0130813,0.247346,0.890403
1387,399,3.30232,-0.00948329,0.246037,0.890155
1389,397,3.30102,-0.0121146,0.246912,0.889679
1391,395,3.29988,-0.0147685,0.247528,0.889185
1393,393,3.30021,-0.0118149,0.246859,0.888581
1395,391,3.30042,-0.0198612,0.24669,0.888232
1397,389,3.2993,-0.0205349,0.247105,0.887716
1399,387,3.3001,-0.0156943,0.245932,0.887033
1401,385,3.30195,-0.0146281,0.244969,0.886494
1403,383,3.30069,-0.0154527,0.245546,0.885898
1405,381,3.29993,-0.0160404,0.245545,0.885583
1407,379,3.29933,-0.0169037,0.246004,0.884956
1409,377,3.30181,-0.0121106,0.24409,0.884231
1411,375,3.30031,-0.0148472,0.245051,0.883712
1413,373,3.29967,-0.0147845,0.245049,0.883738
1415,371,3.2999,-0.0118696,0.244637,0.882925
1417,369,3.29938,-0.0133899,0.245229,0.881968
1419,367,3.3011,-0.0114809,0.243736,0.882073
1421,365,3.30077,-0.0104038,0.243736,0.881377
1423,363,3.30096,-0.0174207,0.243574,0.880359
1425,361,3.3014,-0.0142842,0.242808,0.87985
1427,359,3.29974,-0.0170157,0.243939,0.879367
1429,357,3.30132,-0.00837591,0.242054,0.878682
1431,355,3.29925,-0.0166145,0.243349,0.878308
1433,353,3.30058,-0.0136703,0.24231,0.877683
1435,351,3.29888,-0.0175094,0.243491,0.87767
1437,349,3.3003,-0.0107586,0.241898,0.87685
1439,347,3.29999,-0.0103616,0.242205,0.875799
1441,345,3.30011,-0.014939,0.242176,0.875612
1443,343,3.30036,-0.0192137,0.241353,0.875097
1445,341,3.30105,-0.0144544,0.240582,0.874158
1447,339,3.29901,-0.0206529,0.241925,0.874176
1449,337,3.29888,-0.0178614,0.241274,0.873326
1451,335,3.30003,-0.0166973,0.240611,0.872831
1453,333,3.29928,-0.0175343,0.241019,0.872232
1455,331,3.29836,-0.0201414,0.241429,0.87198
1457,329,3.29789,-0.0190468,0.241429,0.871282
1459,327,3.30083,-0.0123097,0.239295,0.870428
1461,325,3.3004,-0.0129429,0.2396,0.870101
1463,323,3.29936,-0.0137979,0.2397,0.869498
1465,321,3.29985,-0.0126732,0.239287,0.86898
1467,319,3.29914,-0.0134531,0.239696,0.868407
1469,317,3.3007,-0.0104161,0.238382,0.867821
1471,315,3.29974,-0.011178,0.238788,0.867246
1473,313,3.29968,-0.0120023,0.238786,0.866824
1475,311,3.29843,-0.0204218,0.239366,0.86623
1477,309,3.29715,-0.0155475,0.240014,0.865749
1479,307,3.29931,-0.0181329,0.23828,0.864824
1481,305,3.29976,-0.0152267,0.237462,0.86438
1483,303,3.29858,-0.0159317,0.237869,0.863842
1485,301,3.29843,-0.0166636,0.237869,0.863469
1487,299,3.30129,-0.00986684,0.235744,0.86263
1489,297,3.30019,-0.0126349,0.236725,0.862147
1491,295,3.2992,-0.0151084,0.236963,0.861967
1493,293,3.2997,-0.0119687,0.23615,0.861404
1495,291,3.29852,-0.0212787,0.237131,0.860193
1497,289,3.29993,-0.0105564,0.235647,0.859635
1499,287,3.29919,-0.0182019,0.235644,0.85962
1501,285,3.2992,-0.018937,0.235643,0.85925
1503,283,3.29805,-0.0205987,0.23646,0.85809
1505,281,3.29757,-0.0136507,0.236459,0.857721
1507,279,3.29932,-0.0163865,0.235141,0.856817
1509,277,3.29988,-0.0133025,0.234327,0.85619
1511,275,3.29894,-0.0158908,0.234731,0.855972
1513,273,3.29844,-0.0148084,0.234734,0.855283
1515,271,3.30097,-0.00982956,0.233175,0.854572
1517,269,3.29976,-0.0113473,0.233415,0.853631
1519,267,3.29897,-0.019656,0.233417,0.853311
1521,265,3.29877,-0.0185864,0.233415,0.852588
1523,263,3.29838,-0.0193639,0.233413,0.852192
1525,261,3.29924,-0.0106625,0.232948,0.851488
1527,259,3.29891,-0.0190621,0.232907,0.851142
1529,257,3.29864,-0.0180418,0.232907,0.850398
1531,255,3.2982,-0.016736,0.2325,0.849946
1533,253,3.29718,-0.0175569,0.232904,0.849378
1535,251,3.29992,-0.0126399,0.231182,0.848633
1537,249,3.2998,-0.0113774,0.230779,0.848175
1539,247,3.29825,-0.0141197,0.231586,0.847723
1541,245,3.29829,-0.0205972,0.231487,0.847257
1543,243,3.29995,-0.0183117,0.230267,0.846096
1545,241,3.29874,-0.0114351,0.230671,0.845503
1547,239,3.29819,-0.0199311,0.230673,0.845144
1549,237,3.29839,-0.0187231,0.230265,0.844638
1551,235,3.29912,-0.0177021,0.229755,0.843946
1553,233,3.29874,-0.0145823,0.229349,0.843131
1555,231,3.29947,-0.0121622,0.228702,0.842155
1557,229,3.29807,-0.0149594,0.229348,0.841697
1559,227,3.29766,-0.0156067,0.229347,0.841379
1561,225,3.29994,-0.0183689,0.227628,0.840632
1563,223,3.29938,-0.0114329,0.228028,0.84006
1565,221,3.29838,-0.0140633,0.228425,0.839834
1567,219,3.29785,-0.0207914,0.228426,0.839111
1569,217,3.29985,-0.01768,0.227108,0.837018
1571,215,3.29837,-0.0127509,0.227914,0.83827
1573,213,3.29826,-0.0193454,0.227508,0.837545
1575,211,3.29832,-0.0168792,0.2271,0.83638
1577,209,3.29709,-0.0189926,0.227497,0.836406
1579,207,3.29954,-0.0139341,0.225778,0.835688
1581,205,3.29962,-0.0135563,0.225781,0.834627
1583,203,3.29827,-0.0143918,0.226331,0.834041
1585,201,3.298,-0.0150595,0.226176,0.833705
1587,199,3.30068,-0.0101063,0.22446,0.832925
1589,197,3.29917,-0.0128966,0.22526,0.832487
1591,195,3.29794,-0.0136743,0.225659,0.831922
1593,193,3.29841,-0.0125655,0.225257,0.831383
1595,191,3.29788,-0.0133406,0.225253,0.830999
1597,189,3.29896,-0.0102263,0.224337,0.83022
1599,187,3.29924,-0.0168323,0.223929,0.829742
1601,185,3.29887,-0.0177862,0.223927,0.829269
1603,183,3.29713,-0.0194128,0.22473,0.828156
1605,181,3.29968,-0.0142372,0.22301,0.827462
1607,179,3.29941,-0.0149594,0.223012,0.827126
1609,177,3.29779,-0.0177755,0.223813,0.826681
1611,175,3.29825,-0.0144978,0.223011,0.824723
1613,173,3.29763,-0.0140862,0.223011,0.825043
1615,171,3.29838,-0.0130138,0.222493,0.824365
1617,169,3.29867,-0.0118147,0.22209,0.823846
1619,167,3.29864,-0.0184474,0.22169,0.823381
1621,165,3.29719,-0.0134249,0.222487,0.822906
1623,163,3.29936,-0.0188991,0.221194,0.821974
1625,161,3.29889,-0.0178112,0.221163,0.821237
1627,159,3.29784,-0.0204991,0.22156,0.821034
1629,157,3.29736,-0.0193982,0.22156,0.820307
1631,155,3.29973,-0.0142296,0.219841,0.819583
1633,153,3.29777,-0.0190429,0.22104,0.819287
1635,151,3.29818,-0.0158024,0.22024,0.818668
1637,149,3.29821,-0.0133517,0.219838,0.817494
1639,147,3.29898,-0.0122904,0.219467,0.816811
1641,145,3.29917,-0.0109989,0.218914,0.816333
1643,143,3.29825,-0.0206281,0.219313,0.815399
1645,141,3.29697,-0.0154912,0.220112,0.81494
1647,139,3.29907,-0.018334,0.218384,0.814212
1649,137,3.29893,-0.0190656,0.218299,0.813858
1651,135,3.29739,-0.0139167,0.219181,0.813386
1653,133,3.29717,-0.0207305,0.218781,0.812903
1655,131,3.29731,-0.0162839,0.217985,0.811579
1657,129,3.29794,-0.0172226,0.217878,0.811023
1659,127,3.29897,-0.0138519,0.21666,0.810626
1661,125,3.29854,-0.0126799,0.216475,0.809923
1663,123,3.29661,-0.0176058,0.217849,0.809594
1665,121,3.29922,-0.0123253,0.216127,0.808887
1667,119,3.29862,-0.0118507,0.216126,0.807858
1669,117,3.29754,-0.0127514,0.216463,0.807304
1671,115,3.29716,-0.0135749,0.216521,0.807113
1673,113,3.29888,-0.0171682,0.215196,0.805622
1675,111,3.29797,-0.0199569,0.215591,0.805399
1677,109,3.2991,-0.016707,0.214649,0.80476
1679,107,3.29808,-0.0155393,0.214728,0.804107
1681,105,3.29855,-0.0163815,0.214656,0.803541
1683,103,3.29871,-0.015288,0.21426,0.802968
1685,101,3.29759,-0.0180013,0.214652,0.802778
1687,99,3.29692,-0.0168523,0.214651,0.802305
1689,97,3.29689,-0.0165399,0.214651,0.800949
1691,95,3.29829,-0.0132954,0.21332,0.800328
1693,93,3.29865,-0.0119451,0.212926,0.799893
1695,91,3.29854,-0.0170198,0.212457,0.79907
1697,89,3.29629,-0.0165542,0.214133,0.798492
1699,87,3.29859,-0.0194223,0.212388,0.797776
1701,85,3.29758,-0.0203139,0.212781,0.797196
1703,83,3.29703,-0.0149399,0.213178,0.796955
1705,81,3.29704,-0.0199226,0.212779,0.795726
1707,79,3.29912,-0.0152587,0.211056,0.795084
1709,77,3.29804,-0.0161634,0.211449,0.794496
1711,75,3.29841,-0.0149363,0.211054,0.79397
1713,73,3.29767,-0.015678,0.211052,0.793633
1715,71,3.29851,-0.0145173,0.210508,0.792962
1717,69,3.29845,-0.0154554,0.210507,0.79253
1719,67,3.29733,-0.0142292,0.210505,0.791834
1721,65,3.29689,-0.0221036,0.210506,0.79077
1723,63,3.29926,-0.0188241,0.209175,0.790184
1725,61,3.29825,-0.0113856,0.209567,0.789851
1727,59,3.29838,-0.0183399,0.209172,0.789139
1729,57,3.29734,-0.0199953,0.209563,0.788198
1731,55,3.29599,-0.0221464,0.209956,0.788303
1733,53,3.29855,-0.015641,0.20823,0.786826
1735,51,3.29794,-0.0163519,0.208227,0.786492
1737,49,3.29695,-0.0173092,0.208621,0.785898
1739,47,3.29729,-0.0168411,0.208223,0.785008
1741,45,3.29842,-0.0135667,0.207282,0.784225
1743,43,3.29817,-0.014335,0.207281,0.783874
1745,41,3.29792,-0.0131188,0.20672,0.783351
1747,39,3.2964,-0.0160847,0.207672,0.782909
1749,37,3.29846,-0.0199206,0.206337,0.781602
1751,35,3.298,-0.0207337,0.206337,0.781244
1753,33,3.29702,-0.0215684,0.206725,0.780676
1755,31,3.29673,-0.021255,0.206844,0.779577
1757,29,3.29795,-0.0199378,0.205747,0.779153
1759,27,3.29814,-0.0186539,0.205391,0.778651
1761,25,3.29739,-0.0196797,0.205785,0.778019
1763,23,3.29682,-0.0181643,0.205389,0.777614
1765,21,3.29912,-0.0137363,0.204056,0.776266
1767,19,3.29814,-0.0165128,0.204444,0.776084
1769,17,3.2973,-0.0153201,0.204444,0.775374
1771,15,3.29686,-0.0149762,0.204443,0.774275
1773,13,3.29798,-0.0158161,0.203889,0.773935
1775,11,3.29779,-0.0210434,0.2035,0.77308
1777,9,3.29741,-0.0226207,0.203495,0.772367
1779,7,3.2989,-0.0108643,0.202549,0.771534
1781,5,3.29899,-0.0180271,0.202158,0.771064
1783,3,3.29702,-0.0218473,0.202938,0.770266