File: hust_correlation_analysis/matrices/HUST_8-2_cycle_feature_matrix.csv
cycle_number,rul,voltage,current,capacity,charge_capacity
1,2043,3.32292,-0.00638611,0.288005,1.03757
3,2041,3.30717,-0.0144078,0.296459,1.03198
5,2039,3.30766,-0.0103562,0.295938,1.03131
7,2037,3.30902,-0.00848587,0.295274,1.0302
9,2035,3.30932,-0.00909883,0.29507,1.02984
11,2033,3.30957,-0.0106403,0.295028,1.02982
13,2031,3.30817,-0.0146603,0.296008,1.02952
15,2029,3.31028,-0.00732516,0.294096,1.02891
17,2027,3.30945,-0.0121179,0.295035,1.029
19,2025,3.30938,-0.013158,0.295151,1.02824
21,2023,3.30936,-0.0134299,0.295337,1.02806
23,2021,3.30925,-0.00890433,0.294504,1.02633
25,2019,3.30882,-0.0142455,0.29514,1.02761
27,2017,3.30962,-0.0100956,0.294203,1.02715
29,2015,3.31069,-0.011294,0.293769,1.02754
31,2013,3.30997,-0.0116836,0.294554,1.02709
33,2011,3.3099,-0.0121822,0.294162,1.02682
35,2009,3.3095,-0.0126269,0.294579,1.02639
37,2007,3.30938,-0.0126564,0.294577,1.02638
39,2005,3.30941,-0.0126539,0.294572,1.02636
41,2003,3.30943,-0.0132405,0.294569,1.02602
43,2001,3.30935,-0.0133165,0.294576,1.02599
45,1999,3.30897,-0.0139408,0.294979,1.02544
47,1997,3.30862,-0.0139754,0.294985,1.02542
49,1995,3.31083,-0.010899,0.293306,1.0254
51,1993,3.31066,-0.0115269,0.293708,1.02483
53,1991,3.31091,-0.0114945,0.293303,1.02506
55,1989,3.31068,-0.0121834,0.29362,1.02447
57,1987,3.31081,-0.0120922,0.293304,1.02471
59,1985,3.31049,-0.0127913,0.293706,1.02413
61,1983,3.31043,-0.0128164,0.293703,1.02411
63,1981,3.31027,-0.0128136,0.293701,1.02411
65,1979,3.31024,-0.0134313,0.293703,1.02377
67,1977,3.31018,-0.0133691,0.293905,1.0238
69,1975,3.31036,-0.013457,0.293705,1.02377
71,1973,3.30998,-0.0140324,0.293708,1.02344
73,1971,3.30978,-0.0137628,0.293698,1.02357
75,1969,3.31157,-0.0115038,0.292855,1.02291
77,1967,3.31178,-0.0115014,0.292438,1.02292
79,1965,3.31171,-0.0120783,0.292269,1.02259
81,1963,3.31168,-0.0120749,0.292437,1.0226
83,1961,3.3119,-0.012071,0.292433,1.02259
85,1959,3.31182,-0.0126519,0.292436,1.02227
87,1957,3.31124,-0.0128035,0.292843,1.02198
89,1955,3.31134,-0.0126555,0.29243,1.02225
91,1953,3.31111,-0.0133861,0.292835,1.02164
93,1951,3.31116,-0.0133972,0.292838,1.02164
95,1949,3.31102,-0.0134187,0.292839,1.02163
97,1947,3.31063,-0.0140236,0.292839,1.0213
99,1945,3.31041,-0.0139729,0.292847,1.02134
101,1943,3.31239,-0.011484,0.291576,1.02077
103,1941,3.31219,-0.0114634,0.29158,1.0208
105,1939,3.31202,-0.0115325,0.291582,1.02076
107,1937,3.31194,-0.0115341,0.291572,1.02075
109,1935,3.31204,-0.0115125,0.291421,1.02077
111,1933,3.31144,-0.0121947,0.291983,1.02019
113,1931,3.31134,-0.0122457,0.291981,1.0204
115,1929,3.31157,-0.0121537,0.291573,1.02039
117,1927,3.31114,-0.0122347,0.291988,1.02017
119,1925,3.31108,-0.0128569,0.291982,1.01982
121,1923,3.31111,-0.0128966,0.291981,1.02005
123,1921,3.31106,-0.0133571,0.291981,1.01955
125,1919,3.31082,-0.0134204,0.291986,1.01952
127,1917,3.31065,-0.0133612,0.291975,1.01953
129,1915,3.31056,-0.0134003,0.291974,1.0195
131,1913,3.31079,-0.0140235,0.291981,1.01916
133,1911,3.31022,-0.0141492,0.292393,1.0189
135,1909,3.31045,-0.0139967,0.291975,1.01916
137,1907,3.31039,-0.0139973,0.29198,1.01916
139,1905,3.31185,-0.0110649,0.291122,1.01867
141,1903,3.3117,-0.0116708,0.291122,1.01833
143,1901,3.31154,-0.0116459,0.291113,1.01833
145,1899,3.31199,-0.0115671,0.290715,1.01859
147,1897,3.31167,-0.012264,0.291326,1.01803
149,1895,3.31154,-0.01218,0.291121,1.01807
151,1893,3.31171,-0.0127621,0.29112,1.01774
153,1891,3.3116,-0.0127705,0.291122,1.01773
155,1889,3.31089,-0.0128481,0.291531,1.0175
157,1887,3.31129,-0.0127768,0.291121,1.01772
159,1885,3.31141,-0.012778,0.291318,1.01772
161,1883,3.3114,-0.0127806,0.291123,1.01772
163,1881,3.31103,-0.013409,0.29153,1.01719
165,1879,3.31111,-0.0134446,0.291527,1.01716
167,1877,3.31073,-0.0134576,0.291528,1.01583
169,1875,3.31075,-0.0137762,0.291731,1.01699
171,1873,3.31094,-0.0140877,0.291538,1.01682
173,1871,3.31189,-0.00932797,0.290583,1.01667
175,1869,3.31174,-0.0139934,0.290838,1.01708
177,1867,3.31141,-0.00945262,0.290593,1.01661
179,1865,3.31275,-0.0115202,0.290267,1.01631
181,1863,3.31259,-0.011505,0.290271,1.01632
183,1861,3.31222,-0.0116419,0.290272,1.01625
185,1859,3.31272,-0.0121605,0.290271,1.01596
187,1857,3.31253,-0.0121711,0.290682,1.01596
189,1855,3.31238,-0.0121446,0.290266,1.01597
191,1853,3.3124,-0.0121406,0.290265,1.01595
193,1851,3.31215,-0.0122154,0.290269,1.01591
195,1849,3.31191,-0.0128362,0.290678,1.01538
197,1847,3.31246,-0.0126827,0.290266,1.01564
199,1845,3.31159,-0.0106993,0.290296,1.0159
201,1843,3.3121,-0.0128001,0.290267,1.0156
203,1841,3.31296,-0.00810423,0.289307,1.01537
205,1839,3.31212,-0.0130778,0.290263,1.01543
207,1837,3.31165,-0.0134451,0.290671,1.01503
209,1835,3.3115,-0.0134709,0.290761,1.015
211,1833,3.31151,-0.0134873,0.290666,1.01499
213,1831,3.3114,-0.0135429,0.29067,1.01496
215,1829,3.31132,-0.0135057,0.290667,1.01498
217,1827,3.31153,-0.0141148,0.290868,1.01466
219,1825,3.31129,-0.0140766,0.290669,1.01467
221,1823,3.31099,-0.0141157,0.290674,1.01467
223,1821,3.31095,-0.0141245,0.290671,1.01465
225,1819,3.31284,-0.011527,0.289399,1.0144
227,1817,3.31276,-0.0116469,0.2894,1.01406
229,1815,3.31296,-0.0116082,0.289396,1.01409
231,1813,3.3129,-0.0116295,0.289395,1.01432
233,1811,3.31281,-0.0115555,0.289389,1.01409
235,1809,3.31288,-0.0116238,0.289395,1.01406
237,1807,3.31233,-0.0117619,0.289799,1.01378
239,1805,3.31217,-0.011776,0.289655,1.01376
241,1803,3.31215,-0.011952,0.289797,1.01366
243,1801,3.313,-0.0116869,0.289385,1.01399
245,1799,3.31226,-0.0118068,0.289791,1.01372
247,1797,3.31249,-0.012315,0.289879,1.01343
249,1795,3.3123,-0.0124946,0.289801,1.01335
251,1793,3.31195,-0.012444,0.28979,1.01338
253,1791,3.31231,-0.0124091,0.28939,1.01359
255,1789,3.31242,-0.0124233,0.289393,1.01211
257,1787,3.31211,-0.0130821,0.289794,1.01301
259,1785,3.31212,-0.0130755,0.289795,1.01302
261,1783,3.31254,-0.0129556,0.289384,1.01327
263,1781,3.31163,-0.0130389,0.289992,1.01303
265,1779,3.31166,-0.0131267,0.289787,1.01298
267,1777,3.31171,-0.0136567,0.289798,1.01271
269,1775,3.31196,-0.0134529,0.28938,1.01325
271,1773,3.31211,-0.0141015,0.289382,1.01264
273,1771,3.31201,-0.0140775,0.289379,1.01242
275,1769,3.31131,-0.0142315,0.289793,1.01264
277,1767,3.31114,-0.014204,0.289789,1.01239
279,1765,3.31318,-0.011185,0.288526,1.01213
281,1763,3.31313,-0.0117527,0.288716,1.0118
283,1761,3.31307,-0.0117589,0.288521,1.0118
285,1759,3.31319,-0.0117371,0.28852,1.01182
287,1757,3.31304,-0.0117754,0.288518,1.01179
289,1755,3.31298,-0.0123748,0.288528,1.01147
291,1753,3.31288,-0.0123976,0.288616,1.01147
293,1751,3.31282,-0.0129695,0.288527,1.01113
295,1749,3.31279,-0.0129131,0.288521,1.01117
297,1747,3.31279,-0.0129418,0.288521,1.01116
299,1745,3.31268,-0.0129553,0.288528,1.01116
301,1743,3.31267,-0.012926,0.288607,1.01115
303,1741,3.31249,-0.013503,0.288515,1.01081
305,1739,3.31194,-0.0136088,0.288927,1.01057
307,1737,3.31228,-0.0135594,0.288519,1.01078
309,1735,3.31188,-0.0136543,0.288924,1.01054
311,1733,3.31214,-0.013617,0.288517,1.01075
313,1731,3.3117,-0.0142285,0.288926,1.01022
315,1729,3.31198,-0.0140268,0.288518,1.01054
317,1727,3.31382,-0.0110651,0.287248,1.01023
319,1725,3.31327,-0.0118022,0.287664,1.00989
321,1723,3.31314,-0.0117138,0.287644,1.00967
323,1721,3.31306,-0.0118119,0.288082,1.00965
325,1719,3.31312,-0.0117756,0.287663,1.00965
327,1717,3.31327,-0.0123573,0.287664,1.00932
329,1715,3.31333,-0.0123726,0.28766,1.00932
331,1713,3.31314,-0.0123912,0.28765,1.00929
333,1711,3.31275,-0.0124106,0.287664,1.0093
335,1709,3.31268,-0.0123902,0.287657,1.00929
337,1707,3.3127,-0.0130571,0.287655,1.00869
339,1705,3.31226,-0.0131116,0.287664,1.0089
341,1703,3.31304,-0.0130087,0.287247,1.00914
343,1701,3.31252,-0.013576,0.287665,1.00866
345,1699,3.31232,-0.013559,0.287658,1.00866
347,1697,3.31232,-0.0136335,0.287662,1.00863
349,1695,3.31209,-0.0135969,0.287659,1.00865
351,1693,3.31209,-0.0142387,0.287659,1.00827
353,1691,3.31202,-0.0140088,0.287659,1.0084
355,1689,3.31207,-0.0143054,0.287665,1.00826
357,1687,3.31195,-0.014301,0.287661,1.00825
359,1685,3.31192,-0.0142871,0.287652,1.00823
361,1683,3.31342,-0.0117672,0.286087,1.00768
363,1681,3.31291,-0.0118144,0.286799,1.00747
365,1679,3.31348,-0.0117618,0.286393,1.00771
367,1677,3.31334,-0.0123774,0.286394,1.00735
369,1675,3.31321,-0.0123502,0.286396,1.00739
371,1673,3.31334,-0.0123066,0.286391,1.0074
373,1671,3.31291,-0.0130554,0.286791,1.00678
375,1669,3.31325,-0.0129173,0.286387,1.00705
377,1667,3.3128,-0.0130686,0.286798,1.00678
379,1665,3.31251,-0.0130758,0.286797,1.00677
381,1663,3.31282,-0.012953,0.286392,1.00703
383,1661,3.31252,-0.013671,0.287213,1.00644
385,1659,3.31245,-0.0136435,0.286791,1.00645
387,1657,3.31271,-0.0135084,0.286391,1.00673
389,1655,3.31229,-0.0136623,0.286797,1.00644
391,1653,3.31233,-0.0142991,0.286796,1.00609
393,1651,3.31204,-0.0141839,0.286996,1.00617
395,1649,3.31241,-0.0141053,0.286393,1.0062
397,1647,3.31395,-0.0117808,0.28573,1.00554
399,1645,3.31384,-0.0116989,0.285522,1.00557
401,1643,3.31388,-0.0117012,0.285525,1.00553
403,1641,3.31386,-0.0117379,0.285532,1.00557
405,1639,3.31364,-0.0117541,0.285532,1.00556
407,1637,3.31375,-0.0123918,0.28553,1.00518
409,1635,3.31363,-0.0124143,0.28553,1.00518
411,1633,3.31336,-0.0123842,0.285531,1.00521
413,1631,3.31353,-0.0129793,0.285524,1.00485
415,1629,3.31345,-0.0129938,0.285528,1.00487
417,1627,3.31313,-0.0129475,0.285531,1.0049
419,1625,3.3134,-0.0135329,0.285385,1.00457
421,1623,3.31304,-0.0135506,0.285528,1.00455
423,1621,3.31304,-0.0135279,0.285529,1.00458
425,1619,3.31354,-0.0134976,0.285128,1.00478
427,1617,3.31306,-0.0141993,0.285528,1.0042
429,1615,3.31307,-0.0141607,0.285534,1.00422
431,1613,3.31299,-0.0141597,0.285528,1.00422
433,1611,3.31341,-0.0141194,0.285124,1.00443
435,1609,3.31273,-0.014218,0.285529,1.00418
437,1607,3.31461,-0.0117519,0.284256,1.00357
439,1605,3.31456,-0.0117163,0.284259,1.00361
441,1603,3.31482,-0.0116573,0.284273,1.00385
443,1601,3.31472,-0.012318,0.284267,1.0033
445,1599,3.31516,-0.012065,0.283863,1.00389
447,1597,3.31457,-0.0122885,0.284258,1.0033
449,1595,3.31449,-0.0123698,0.28426,1.00325
451,1593,3.31426,-0.0123385,0.28426,1.00326
453,1591,3.31499,-0.00762822,0.283288,1.00303
455,1589,3.31428,-0.0124092,0.284259,1.00322
457,1587,3.31446,-0.0126443,0.284259,1.0031
459,1585,3.31439,-0.0126572,0.284094,1.00308
461,1583,3.31453,-0.0129431,0.284266,1.00293
463,1581,3.31424,-0.0129786,0.284349,1.00291
465,1579,3.3142,-0.0129225,0.284262,1.00293
467,1577,3.31383,-0.0136304,0.284659,1.00234
469,1575,3.3137,-0.0136777,0.284664,1.00232
471,1573,3.31403,-0.0136663,0.284457,1.00252
473,1571,3.31391,-0.0136328,0.284262,1.00253
475,1569,3.31408,-0.0136759,0.284257,1.00112
477,1567,3.31336,-0.0142706,0.284662,1.00198
479,1565,3.31336,-0.0143469,0.284654,1.00191
481,1563,3.31321,-0.014374,0.284661,1.00192
483,1561,3.31496,-0.0118168,0.283386,1.00136
485,1559,3.31501,-0.0118785,0.28339,1.00133
487,1557,3.31486,-0.0118856,0.283399,1.00135
489,1555,3.31496,-0.0124671,0.283398,1.00102
491,1553,3.31486,-0.0125075,0.283405,1.00101
493,1551,3.31513,-0.0123678,0.282989,1.00125
495,1549,3.31449,-0.0123994,0.283387,1.00105
497,1547,3.3141,-0.0132126,0.283803,1.00041
499,1545,3.31446,-0.0131001,0.28363,1.00066
501,1543,3.31429,-0.013101,0.283391,1.00065
503,1541,3.31443,-0.0131449,0.283392,1.00087
505,1539,3.31422,-0.0131164,0.283394,1.00065
507,1537,3.31412,-0.0137239,0.283394,1.0003
509,1535,3.31362,-0.013817,0.283796,1.00006
511,1533,3.31336,-0.0137871,0.283786,1.00005
513,1531,3.31336,-0.0142946,0.283795,0.999797
515,1529,3.31382,-0.0142449,0.283392,1.00002
517,1527,3.313652,-0.0142883,0.283395,0.999998
519,1525,3.31541,-0.0111645,0.282122,0.999758
521,1523,3.31526,-0.0118284,0.282527,0.999187
523,1521,3.31512,-0.0118263,0.282521,0.999172
525,1519,3.31496,-0.0118419,0.282523,0.999171
527,1517,3.3148,-0.011854,0.282524,0.999166
529,1515,3.31514,-0.0118567,0.282117,0.999335
531,1513,3.31503,-0.0117814,0.282114,0.999392
533,1511,3.31491,-0.012496,0.282177,0.998795
535,1509,3.3153,-0.0124758,0.28212,0.999019
537,1507,3.31481,-0.0130792,0.282524,0.998489
539,1505,3.31515,-0.0129902,0.282125,0.998736
541,1503,3.31482,-0.0130756,0.282129,0.998704
543,1501,3.31499,-0.0129973,0.282126,0.99875
545,1499,3.31468,-0.0137111,0.282525,0.998147
547,1497,3.31518,-0.0136446,0.282118,0.99836
549,1495,3.31507,-0.0135769,0.282118,0.998394
551,1493,3.31501,-0.0136271,0.282122,0.998355
553,1491,3.31493,-0.013636,0.282124,0.998373
555,1489,3.31487,-0.0136321,0.282113,0.998612
557,1487,3.3147,-0.0143236,0.282521,0.997783
559,1485,3.31434,-0.0142989,0.282524,0.997814
561,1483,3.31636,-0.0117398,0.281673,0.997268
563,1481,3.3163,-0.0117789,0.281264,0.997256
565,1479,3.31619,-0.0117725,0.28126,0.997258
567,1477,3.31504,-0.0101573,0.28156,0.997296
569,1475,3.31557,-0.0123997,0.281662,0.996709
571,1473,3.31534,-0.0123788,0.281667,0.996729
573,1471,3.31525,-0.0124193,0.281661,0.996695
575,1469,3.31508,-0.0131384,0.28207,0.99611
577,1467,3.31584,-0.012699,0.281261,0.99673
579,1465,3.31518,-0.0131054,0.281666,0.99658
581,1463,3.31516,-0.0129981,0.281665,0.996383
583,1461,3.31523,-0.00907671,0.281094,0.995513
585,1459,3.31555,-0.00866175,0.28069,0.995928
587,1457,3.31462,-0.0137068,0.281667,0.995983
589,1455,3.31601,-0.00898926,0.280409,0.995772
591,1453,3.31412,-0.0143686,0.282072,0.995423
593,1451,3.31486,-0.00966912,0.281102,0.995201
595,1449,3.3152,-0.00957025,0.280696,0.995439
597,1447,3.31514,-0.0102834,0.281004,0.994835
599,1445,3.31463,-0.0102574,0.281094,0.99485
601,1443,3.31535,-0.0119896,0.280803,0.99476
603,1441,3.31393,-0.0150363,0.281795,0.995084
605,1439,3.31395,-0.0156447,0.281791,0.994716
607,1437,3.3149,-0.0109581,0.280735,0.994474
609,1435,3.31497,-0.011173,0.280819,0.994359
611,1433,3.31514,-0.010895,0.280407,0.994706
613,1431,3.31464,-0.0115067,0.280813,0.994169
615,1429,3.31592,-0.00836961,0.280014,0.993912
617,1427,3.31444,-0.0115629,0.280809,0.994138
619,1425,3.31589,-0.0130763,0.280115,0.994357
621,1423,3.31565,-0.0131325,0.280398,0.994324
623,1421,3.31524,-0.0137442,0.280992,0.993619
625,1419,3.31645,-0.00899231,0.279538,0.993584
627,1417,3.31658,-0.00902837,0.27954,0.993558
629,1415,3.31661,-0.0090227,0.279139,0.993752
631,1413,3.31635,-0.00930309,0.279543,0.993415
633,1411,3.31627,-0.00957511,0.279537,0.993245
635,1409,3.31639,-0.00965578,0.279542,0.993205
637,1407,3.31631,-0.00992545,0.279546,0.993057
639,1405,3.3153,-0.0153001,0.280917,0.99297
641,1403,3.31543,-0.0153439,0.280512,0.992892
643,1401,3.31612,-0.0105278,0.279543,0.992711
645,1399,3.31543,-0.0106285,0.279939,0.992463
647,1397,3.31594,-0.0105704,0.279734,0.992697
649,1395,3.31521,-0.0112353,0.27994,0.99211
651,1393,3.31641,-0.0128884,0.27965,0.992087
653,1391,3.3169,-0.00808728,0.27895,0.991866
655,1389,3.31527,-0.0115944,0.279937,0.991921
657,1387,3.31565,-0.0131047,0.279924,0.991932
659,1385,3.31554,-0.013848,0.280335,0.991339
661,1383,3.3148,-0.0139231,0.28034,0.991294
663,1381,3.31623,-0.00917226,0.279075,0.99107
665,1379,3.31553,-0.00944472,0.279358,0.990932
667,1377,3.31594,-0.00966958,0.278952,0.990984
669,1375,3.3153,-0.0144311,0.280049,0.991005
671,1373,3.31598,-0.0096216,0.278948,0.990999
673,1371,3.3151,-0.0147165,0.280047,0.99059
675,1369,3.31538,-0.0100145,0.279355,0.9906
677,1367,3.31461,-0.0106918,0.279759,0.990004
679,1365,3.31572,-0.0125399,0.279466,0.989859
681,1363,3.31565,-0.012607,0.279664,0.989848
683,1361,3.3166,-0.00780453,0.278484,0.989626
685,1359,3.31641,-0.00843544,0.278485,0.989275
687,1357,3.31572,-0.0134007,0.279462,0.989389
689,1355,3.31626,-0.00869888,0.278568,0.989141
691,1353,3.31673,-0.00872192,0.278196,0.989121
693,1351,3.31596,-0.00902936,0.278488,0.988944
695,1349,3.31611,-0.00905281,0.278199,0.988938
697,1347,3.31558,-0.00966315,0.278481,0.988582
699,1345,3.31533,-0.0141893,0.279185,0.988965
701,1343,3.31577,-0.0096762,0.278483,0.988567
703,1341,3.31622,-0.00967959,0.278201,0.988586
705,1339,3.3157,-0.0104187,0.278613,0.988012
707,1337,3.31497,-0.0150913,0.279545,0.988438
709,1335,3.31632,-0.0118753,0.278193,0.98823
711,1333,3.31596,-0.0120362,0.2786,0.987968
713,1331,3.31632,-0.0120424,0.278198,0.988148
715,1329,3.31508,-0.0151896,0.279178,0.988374
717,1327,3.31597,-0.0108583,0.278199,0.986388
719,1325,3.31558,-0.0116517,0.278606,0.987294
721,1323,3.31737,-0.013112,0.277995,0.987554
723,1321,3.31543,-0.0116255,0.278601,0.987311
725,1319,3.31716,-0.00905844,0.277327,0.98672
727,1317,3.31623,-0.0138544,0.278314,0.986948
729,1315,3.31569,-0.0142002,0.2786,0.986751
731,1313,3.3164,-0.00933969,0.277612,0.98656
733,1311,3.31715,-0.00940583,0.27774,0.986515
735,1309,3.31522,-0.0148683,0.279003,0.986189
737,1307,3.31685,-0.0116543,0.277729,0.985964
739,1305,3.31675,-0.0120088,0.27772,0.985728
741,1303,3.31508,-0.0107229,0.278412,0.98539
743,1301,3.31553,-0.011117,0.278141,0.985192
745,1299,3.31621,-0.0125707,0.277805,0.985451
747,1297,3.31581,-0.0112789,0.277733,0.985285
749,1295,3.31717,-0.0081241,0.276742,0.985026
751,1293,3.31659,-0.0129949,0.277633,0.985206
753,1291,3.31615,-0.0133543,0.277851,0.984831
755,1289,3.31703,-0.00885226,0.276858,0.984421
757,1287,3.31632,-0.00914934,0.277144,0.984248
759,1285,3.31576,-0.0136509,0.277846,0.984653
761,1283,3.3162,-0.00917899,0.277141,0.984233
763,1281,3.31579,-0.0145955,0.277849,0.98413
765,1279,3.31507,-0.0145498,0.278132,0.984152
767,1277,3.31609,-0.0102345,0.277258,0.983458
769,1275,3.31535,-0.0105307,0.277546,0.983309
771,1273,3.31574,-0.0108306,0.277265,0.983132
773,1271,3.31607,-0.0120039,0.276924,0.983352
775,1269,3.31607,-0.0121014,0.277444,0.983308
777,1267,3.31558,-0.0128832,0.277665,0.982676
779,1265,3.3161,-0.0128165,0.277256,0.982886
781,1263,3.31588,-0.0128572,0.277258,0.982866
783,1261,3.31596,-0.0128348,0.277261,0.982886
785,1259,3.31645,-0.00824021,0.276272,0.982557
787,1257,3.31564,-0.0133561,0.277669,0.982605
789,1255,3.31705,-0.00893957,0.275985,0.982171
791,1253,3.31618,-0.0135296,0.276848,0.982682
793,1251,3.31668,-0.0094611,0.276265,0.98186
795,1249,3.31594,-0.0146109,0.277336,0.981886
797,1247,3.31571,-0.0145593,0.277253,0.981914
799,1245,3.31654,-0.00979591,0.276453,0.981668
801,1243,3.31723,-0.0120522,0.27638,0.981105
803,1241,3.31751,-0.0119923,0.275974,0.981306
805,1239,3.31675,-0.0120518,0.276379,0.981099
807,1237,3.31701,-0.0126349,0.276372,0.980749
809,1235,3.31638,-0.0128755,0.276789,0.980456
811,1233,3.31677,-0.0127687,0.276384,0.980712
813,1231,3.31685,-0.0133262,0.276796,0.980407
815,1229,3.31617,-0.0140294,0.276793,0.979832
817,1227,3.31591,-0.0139886,0.276792,0.979846
819,1225,3.31623,-0.0139508,0.276384,0.98006
821,1223,3.31563,-0.0143694,0.276784,0.979618
823,1221,3.31623,-0.0147061,0.2767,0.979464
825,1219,3.3169,-0.00972218,0.275388,0.979492
827,1217,3.31586,-0.0145316,0.27638,0.979718
829,1215,3.31759,-0.0120853,0.27552,0.97889
831,1213,3.31625,-0.0152602,0.276505,0.979131
833,1211,3.31704,-0.0124295,0.275748,0.978756
835,1209,3.31695,-0.0124432,0.275921,0.978494
837,1207,3.31658,-0.0127243,0.275918,0.97833
839,1205,3.31729,-0.00790015,0.274925,0.9781
841,1203,3.31651,-0.0133993,0.275923,0.977966
843,1201,3.31652,-0.0133562,0.275917,0.978163
845,1199,3.31631,-0.0133551,0.27592,0.977973
847,1197,3.31587,-0.0136919,0.276328,0.977625
849,1195,3.31555,-0.0140241,0.276357,0.977424
851,1193,3.31524,-0.0140606,0.276326,0.977404
853,1191,3.31515,-0.0141798,0.276744,0.977351
855,1189,3.31483,-0.0144805,0.276329,0.977188
857,1187,3.31574,-0.00991821,0.275332,0.976798
859,1185,3.31561,-0.0148257,0.276045,0.976989
861,1183,3.31692,-0.0118753,0.275046,0.976591
863,1181,3.31553,-0.0154049,0.276045,0.976665
865,1179,3.31596,-0.0104896,0.27551,0.976465
867,1177,3.31665,-0.0124437,0.275042,0.976273
869,1175,3.31665,-0.012547,0.275044,0.976226
871,1173,3.31748,-0.0082986,0.27405,0.975668
873,1171,3.31744,-0.00826311,0.27405,0.975679
875,1169,3.31737,-0.00827708,0.274048,0.975695
877,1167,3.31667,-0.0138099,0.275047,0.97552
879,1165,3.31633,-0.0135159,0.275051,0.975706
881,1163,3.31653,-0.0141879,0.27517,0.975132
883,1161,3.31591,-0.0142124,0.275452,0.975103
885,1159,3.31592,-0.0143027,0.275454,0.975057
887,1157,3.31653,-0.0142238,0.275044,0.97527
889,1155,3.31723,-0.0093531,0.274043,0.975055
891,1153,3.3164,-0.0148745,0.275176,0.974754
893,1151,3.31672,-0.00995595,0.274447,0.974539
895,1149,3.31633,-0.0148508,0.275044,0.974928
897,1147,3.31756,-0.0119446,0.274172,0.974341
899,1145,3.31808,-0.0118098,0.273768,0.974596
901,1143,3.3181,-0.012134,0.273762,0.974405
903,1141,3.31791,-0.0121032,0.27377,0.974435
905,1139,3.31765,-0.0128634,0.274174,0.973813
907,1137,3.31739,-0.0128694,0.274166,0.973796
909,1135,3.31819,-0.00795651,0.273164,0.973602
911,1133,3.3181,-0.00797844,0.273164,0.973579
913,1131,3.31656,-0.0135832,0.274581,0.973252
915,1129,3.31715,-0.00900902,0.273578,0.973112
917,1127,3.31788,-0.00919342,0.273296,0.972753
919,1125,3.31628,-0.0144944,0.274583,0.972736
921,1123,3.31717,-0.00990948,0.273572,0.972328
923,1121,3.31721,-0.010042,0.2737,0.972081
925,1119,3.31669,-0.0103065,0.273886,0.971927
927,1117,3.31524,-0.0152417,0.275175,0.97213
929,1115,3.31718,-0.0122681,0.273706,0.971746
931,1113,3.31765,-0.0119371,0.273303,0.972111
933,1111,3.31757,-0.0119062,0.273297,0.972123
935,1109,3.31726,-0.0125875,0.273701,0.971551
937,1107,3.31702,-0.0123216,0.273702,0.971699
939,1105,3.31686,-0.0126401,0.273705,0.971519
941,1103,3.31681,-0.0132519,0.273704,0.971187
943,1101,3.31662,-0.0135817,0.273708,0.971012
945,1099,3.31715,-0.0131708,0.273296,0.971416
947,1097,3.3166,-0.0136164,0.273704,0.970988
949,1095,3.31654,-0.0138996,0.273702,0.970817
951,1093,3.31606,-0.0143679,0.274111,0.970382
953,1091,3.31721,-0.00940241,0.272688,0.970361
955,1089,3.31718,-0.0093689,0.272688,0.970637
957,1087,3.31649,-0.0142627,0.273703,0.970631
959,1085,3.3169,-0.0142089,0.273293,0.970825
961,1083,3.3166,-0.0148555,0.273706,0.97028
963,1081,3.3167,-0.0148625,0.273695,0.970273
965,1079,3.31649,-0.0148596,0.2737,0.970278
967,1077,3.31796,-0.0123211,0.272829,0.969473
969,1075,3.31839,-0.0122787,0.272417,0.96967
971,1073,3.31806,-0.0123113,0.272413,0.969651
973,1071,3.31781,-0.012909,0.272833,0.969166
975,1069,3.31763,-0.0129507,0.272827,0.969119
977,1067,3.31739,-0.0132342,0.272807,0.968971
979,1065,3.31672,-0.0136551,0.273241,0.968557
981,1063,3.31733,-0.00912301,0.272224,0.968107
983,1061,3.31656,-0.0143434,0.27324,0.968184
985,1059,3.31665,-0.0143041,0.273242,0.968206
987,1057,3.31841,-0.00896045,0.271623,0.968399
989,1055,3.31689,-0.0141933,0.272828,0.968436
991,1053,3.31686,-0.0145942,0.272961,0.968041
993,1051,3.31717,-0.0102579,0.272226,0.967476
995,1049,3.31724,-0.0102813,0.271944,0.967475
997,1047,3.31585,-0.0156334,0.273364,0.967286
999,1045,3.3164,-0.0109276,0.272623,0.966902
1001,1043,3.31664,-0.0110408,0.272354,0.966874
1003,1041,3.31633,-0.0110556,0.27261,0.966878
1005,1039,3.31619,-0.0114146,0.272531,0.966663
1007,1037,3.31626,-0.0117834,0.272356,0.966456
1009,1035,3.31804,-0.00847717,0.271352,0.966243
1011,1033,3.31679,-0.0113903,0.271944,0.966843
1013,1031,3.31799,-0.0132982,0.271864,0.966705
1015,1029,3.31821,-0.00875737,0.270944,0.966268
1017,1027,3.31832,-0.00893792,0.27066,0.966164
1019,1025,3.31825,-0.00969336,0.271072,0.965568
1021,1023,3.31675,-0.0142795,0.272368,0.965991
1023,1021,3.31815,-0.00970243,0.27107,0.965572
1025,1019,3.31837,-0.00958201,0.271065,0.965631
1027,1017,3.31831,-0.0100348,0.271069,0.965367
1029,1015,3.31734,-0.0149854,0.272085,0.965604
1031,1013,3.31806,-0.0100647,0.271067,0.965355
1033,1011,3.31846,-0.0122699,0.271081,0.965028
1035,1009,3.31841,-0.0123147,0.27108,0.965015
1037,1007,3.31803,-0.0127769,0.271494,0.964588
1039,1005,3.31857,-0.00776341,0.270466,0.964387
1041,1003,3.31698,-0.01141,0.271471,0.96441
1043,1001,3.31641,-0.0120853,0.271881,0.963851
1045,999,3.3171,-0.0133677,0.27156,0.964233
1047,997,3.31788,-0.0137205,0.271205,0.964038
1049,995,3.31728,-0.0137233,0.271486,0.963802
1051,993,3.31673,-0.0140728,0.271896,0.963658
1053,991,3.31717,-0.00990575,0.271288,0.963057
1055,989,3.31615,-0.0144143,0.271895,0.96346
1057,987,3.31616,-0.0147706,0.271893,0.963261
1059,985,3.31583,-0.0151258,0.272304,0.96289
1061,983,3.31555,-0.0151654,0.272305,0.962864
1063,981,3.31752,-0.0122455,0.271014,0.96242
1065,979,3.31741,-0.0126171,0.271017,0.962211
1067,977,3.31773,-0.0124854,0.27061,0.962476
1069,975,3.3181,-0.0131014,0.270788,0.96212
1071,973,3.31757,-0.0135105,0.27102,0.961727
1073,971,3.31775,-0.0130196,0.270606,0.962177
1075,969,3.31736,-0.0134109,0.271021,0.961569
1077,967,3.31664,-0.0138151,0.271425,0.961369
1079,965,3.31697,-0.0137683,0.271021,0.961581
1081,963,3.31737,-0.01412,0.271015,0.961377
1083,961,3.3174,-0.0144648,0.271212,0.961196
1085,959,3.31729,-0.0146731,0.271017,0.961077
1087,957,3.31708,-0.0143959,0.271016,0.961233
1089,955,3.31652,-0.0151126,0.271422,0.960631
1091,953,3.31645,-0.0151565,0.27112,0.96062
1093,951,3.31676,-0.0151603,0.271145,0.960633
1095,949,3.31754,-0.0125751,0.270552,0.959816
1097,947,3.31627,-0.0112184,0.270814,0.959641
1099,945,3.31668,-0.0112327,0.270727,0.959652
1101,943,3.31839,-0.00817597,0.269521,0.959238
1103,941,3.31703,-0.013528,0.270965,0.959105
1105,939,3.31751,-0.00857487,0.269938,0.95885
1107,937,3.31629,-0.0138687,0.270962,0.958909
1109,935,3.31766,-0.00879875,0.269522,0.958896
1111,933,3.31762,-0.00912699,0.269521,0.95871
1113,931,3.31628,-0.0146217,0.270964,0.958495
1115,929,3.31651,-0.01445,0.270545,0.958746
1117,927,3.31654,-0.0145072,0.270492,0.958726
1119,925,3.31605,-0.015248,0.270961,0.958142
1121,923,3.31583,-0.0152874,0.270967,0.958121
1123,921,3.31647,-0.0151734,0.27055,0.958366
1125,919,3.31876,-0.011838,0.269263,0.958136
1127,917,3.31812,-0.0124869,0.269676,0.957602
1129,915,3.31661,-0.0143196,0.270268,0.957587
1131,913,3.31778,-0.0114632,0.269665,0.957063
1133,911,3.31777,-0.0114926,0.269262,0.957073
1135,909,3.31837,-0.00720001,0.268642,0.956257
1137,907,3.31731,-0.0125189,0.26967,0.956302
1139,905,3.31757,-0.0122406,0.269389,0.956474
1141,903,3.31621,-0.0197124,0.270087,0.955911
1143,901,3.31592,-0.0196705,0.270088,0.955931
1145,899,3.31633,-0.0199468,0.269803,0.955764
1147,897,3.31721,-0.0153148,0.26878,0.955345
1149,895,3.31713,-0.0138912,0.26836,0.955275
1151,893,3.31703,-0.0141959,0.268365,0.954871
1153,891,3.31677,-0.0159874,0.26878,0.954987
1155,889,3.31626,-0.0167061,0.269193,0.954418
1157,887,3.31725,-0.0186383,0.268933,0.95427
1159,885,3.31754,-0.0183113,0.268511,0.954611
1161,883,3.31772,-0.0122613,0.267761,0.953675
1163,881,3.31729,-0.0172223,0.268388,0.954117
1165,879,3.3188,-0.0104631,0.266662,0.95376
1167,877,3.31842,-0.00918723,0.266662,0.953209
1169,875,3.31857,-0.00986068,0.266663,0.952833
1171,873,3.31822,-0.0115393,0.267073,0.952987
1173,871,3.3178,-0.0101257,0.266937,0.952682
1175,869,3.31791,-0.00919586,0.266739,0.951942
1177,867,3.31704,-0.00941006,0.266935,0.951796
1179,865,3.317,-0.00984755,0.267071,0.951398
1181,863,3.31841,-0.0065389,0.26606,0.951139
1183,861,3.31819,-0.0067937,0.266067,0.951014
1185,859,3.31597,-0.0173206,0.267474,0.950814
1187,857,3.31674,-0.0139233,0.267504,0.951153
1189,855,3.31579,-0.0126808,0.267888,0.950751
1191,853,3.31827,-0.00926533,0.26619,0.950724
1193,851,3.31809,-0.00954613,0.266191,0.950569
1195,849,3.31831,-0.00793344,0.265785,0.950384
1197,847,3.31831,-0.00815533,0.265782,0.950251
1199,845,3.31655,-0.0203678,0.26722,0.950063
1201,843,3.31665,-0.0191894,0.266813,0.949628
1203,841,3.3175,-0.0142387,0.265779,0.949351
1205,839,3.31851,-0.014818,0.265122,0.948868
1207,837,3.31805,-0.0148532,0.265584,0.948847
1209,835,3.31769,-0.0172521,0.265936,0.948445
1211,833,3.31623,-0.0155307,0.266183,0.948464
1213,831,3.31565,-0.0157085,0.266596,0.948219
1215,829,3.31732,-0.0158832,0.265527,0.94811
1217,827,3.31769,-0.0115874,0.264897,0.947293
1219,825,3.31754,-0.0119223,0.264896,0.94711
1221,823,3.31717,-0.0135704,0.265309,0.947303
1223,821,3.31782,-0.011949,0.264681,0.94724
1225,819,3.31837,-0.010392,0.264084,0.947042
1227,817,3.31795,-0.0105045,0.26408,0.946964
1229,815,3.31776,-0.00965437,0.264087,0.946186
1231,813,3.3187,-0.0130315,0.264242,0.946345
1233,811,3.31876,-0.0117868,0.263835,0.945924
1235,809,3.31669,-0.0175863,0.264486,0.945348
1237,807,3.31736,-0.014363,0.263882,0.944872
1239,805,3.31724,-0.0130226,0.264642,0.944898
1241,803,3.31632,-0.0194309,0.264994,0.945094
1243,801,3.31677,-0.0154116,0.264287,0.944126
1245,799,3.31708,-0.00868986,0.264009,0.944069
1247,797,3.31637,-0.0154062,0.265047,0.944649
1249,795,3.3179,-0.0173928,0.263597,0.944141
1251,793,3.31654,-0.0147229,0.263878,0.943402
1253,791,3.3168,-0.016718,0.264007,0.943404
1255,789,3.31807,-0.0166881,0.263766,0.943256
1257,787,3.318346,-0.0155834,0.262949,0.942768
1259,785,3.31831,-0.0108415,0.262184,0.942372
1261,783,3.31826,-0.0116358,0.262311,0.941766
1263,781,3.31642,-0.0163015,0.263694,0.942168
1265,779,3.31581,-0.0171208,0.264039,0.941559
1267,777,3.31565,-0.0171575,0.264035,0.941528
1269,775,3.31824,-0.011854,0.261928,0.941417
1271,773,3.31761,-0.0143454,0.262748,0.941002
1273,771,3.31713,-0.0162326,0.263148,0.941039
1275,769,3.31757,-0.0160886,0.262741,0.941293
1277,767,3.31783,-0.0133046,0.262332,0.940442
1279,765,3.31727,-0.0123009,0.262339,0.939748
1281,763,3.31667,-0.0141273,0.262745,0.939857
1283,761,3.31717,-0.0130221,0.262337,0.939347
1285,759,3.31676,-0.0203774,0.262403,0.939064
1287,757,3.31566,-0.0204681,0.262742,0.938821
1289,755,3.31645,-0.00932978,0.262097,0.938002
1291,753,3.31778,-0.0109758,0.261456,0.938218
1293,751,3.31722,-0.0177623,0.26145,0.938215
1295,749,3.31694,-0.0118607,0.261861,0.937555
1297,747,3.31743,-0.0116965,0.261452,0.937812
1299,745,3.31687,-0.01918,0.261852,0.937274
1301,743,3.317,-0.0174371,0.261444,0.937119
1303,741,3.31684,-0.0181709,0.261446,0.935446
1305,739,3.31593,-0.0188652,0.261847,0.936166
1307,737,3.31592,-0.0171079,0.261617,0.936029
1309,735,3.31758,-0.0145075,0.260564,0.935196
1311,733,3.31737,-0.0126708,0.260157,0.935103
1313,731,3.31654,-0.0134309,0.260567,0.934531
1315,729,3.31655,-0.0169261,0.260969,0.934996
1317,727,3.31645,-0.0158678,0.260975,0.934306
1319,725,3.31694,-0.0139967,0.260153,0.934373
1321,723,3.31646,-0.0148202,0.260564,0.933763
1323,721,3.31711,-0.0129789,0.259757,0.933856
1325,719,3.31848,-0.0103191,0.258876,0.933045
1327,717,3.31729,-0.0178641,0.259275,0.932486
1329,715,3.31659,-0.0180028,0.259677,0.932237
1331,713,3.31645,-0.0186246,0.259682,0.931912
1333,711,3.31595,-0.0176138,0.259683,0.931185
1335,709,3.31606,-0.0192449,0.259679,0.93158
1337,707,3.31599,-0.0199887,0.25968,0.931194
1339,705,3.31594,-0.0198808,0.259743,0.931244
1341,703,3.31571,-0.020667,0.260089,0.930652
1343,701,3.31802,-0.0143198,0.257992,0.929812
1345,699,3.31753,-0.0143628,0.257992,0.929795
1347,697,3.31686,-0.0169358,0.258802,0.929339
1349,695,3.31641,-0.0158758,0.258795,0.928611
1351,693,3.31593,-0.0159038,0.2588,0.928611
1353,691,3.31585,-0.0165288,0.258795,0.92827
1355,689,3.31579,-0.0165568,0.258793,0.928254
1357,687,3.31581,-0.0154443,0.258394,0.927773
1359,685,3.3162,-0.0172533,0.258528,0.927898
1361,683,3.3174,-0.0127381,0.257512,0.926996
1363,681,3.31711,-0.0117717,0.257514,0.926235
1365,679,3.31667,-0.0106493,0.257473,0.925943
1367,677,3.31638,-0.0123742,0.257509,0.925921
1369,675,3.31584,-0.0131254,0.258094,0.925317
1371,673,3.31566,-0.0131372,0.257908,0.925314
1373,671,3.31485,-0.020624,0.257913,0.925003
1375,669,3.3166,-0.0107934,0.25703,0.924336
1377,667,3.31733,-0.0110547,0.256628,0.92463
1379,665,3.31767,-0.011774,0.255562,0.923418
1381,663,3.31632,-0.0187041,0.257026,0.923807
1383,661,3.31631,-0.0193419,0.257021,0.923464
1385,659,3.31676,-0.0131074,0.255962,0.922556
1387,657,3.31661,-0.0117176,0.255559,0.922198
1389,655,3.31632,-0.0124798,0.255691,0.921628
1391,653,3.31583,-0.0110846,0.255697,0.921121
1393,651,3.31657,-0.0156314,0.255873,0.920702
1395,649,3.31646,-0.0137447,0.255334,0.920773
1397,647,3.31706,-0.00937071,0.254671,0.919946
1399,645,3.3173,-0.00964241,0.254671,0.919806
1401,643,3.3166,-0.008552,0.254666,0.919338
1403,641,3.31686,-0.0108543,0.254848,0.918607
1405,639,3.31615,-0.00899095,0.254666,0.918871
1407,637,3.316,-0.0114507,0.255247,0.918103
1409,635,3.31554,-0.0136477,0.255655,0.918025
1411,633,3.31503,-0.010818,0.255211,0.917545
1413,631,3.31664,-0.00814148,0.254318,0.916733
1415,629,3.31614,-0.0152887,0.254178,0.916801
1417,627,3.31537,-0.0196821,0.254981,0.916198
1419,625,3.31568,-0.0194424,0.254573,0.916493
1421,623,3.31657,-0.0145723,0.253555,0.915492
1423,621,3.31541,-0.0170708,0.254521,0.91531
1425,619,3.31498,-0.0157554,0.254303,0.915096
1427,617,3.3149,-0.016329,0.254349,0.914423
1429,615,3.31427,-0.0185416,0.254761,0.914367
1431,613,3.31442,-0.0192774,0.254756,0.913975
1433,611,3.31459,-0.0174253,0.254349,0.913838
1435,609,3.31617,-0.0146897,0.253465,0.913055
1437,607,3.31609,-0.0135323,0.253122,0.912575
1439,605,3.31528,-0.0155613,0.253868,0.91243
1441,603,3.31512,-0.0143449,0.253459,0.911973
1443,601,3.31439,-0.0132886,0.253525,0.911251
1445,599,3.31423,-0.0137162,0.253467,0.911044
1447,597,3.31574,-0.0111998,0.252576,0.910122
1449,595,3.31502,-0.0131461,0.252979,0.910202
1451,593,3.31554,-0.0119325,0.252568,0.909721
1453,591,3.31592,-0.0144582,0.251891,0.908939
1455,589,3.31509,-0.0196647,0.25257,0.90937
1457,587,3.31448,-0.0203507,0.25297,0.908831
1459,585,3.31374,-0.02126,0.253379,0.90819
1461,583,3.31528,-0.016601,0.252083,0.907299
1463,581,3.3141,-0.0192491,0.252892,0.90683
1465,579,3.31465,-0.0191592,0.252799,0.907063
1467,577,3.31372,-0.0198623,0.253057,0.906522
1469,575,3.31366,-0.0206743,0.2529,0.906124
1471,573,3.31395,-0.0194089,0.25249,0.905671
1473,571,3.31534,-0.0145702,0.251197,0.904875
1475,569,3.31601,-0.0134059,0.250529,0.904384
1477,567,3.3152,-0.0144468,0.250929,0.903665
1479,565,3.3143,-0.0144486,0.251194,0.903637
1481,563,3.31354,-0.0151445,0.251595,0.903105
1483,561,3.31334,-0.0177745,0.252002,0.90285
1485,559,3.31511,-0.0124033,0.250302,0.902473
1487,557,3.31509,-0.0130994,0.250301,0.902377
1489,555,3.31608,-0.011943,0.249632,0.901635
1491,553,3.31456,-0.0197366,0.250295,0.9011
1493,551,3.31354,-0.0206126,0.250404,0.900481
1495,549,3.31302,-0.0198688,0.250707,0.899609
1497,547,3.31442,-0.0184879,0.249804,0.899336
1499,545,3.31482,-0.01215,0.248716,0.898368
1501,543,3.31389,-0.0193626,0.250009,0.898728
1503,541,3.3143,-0.0195273,0.249543,0.898826
1505,539,3.3129,-0.0188654,0.250215,0.897709
1507,537,3.31388,-0.0178918,0.249541,0.897128
1509,535,3.3154,-0.0130914,0.248109,0.896689
1511,533,3.31432,-0.0150611,0.248919,0.896346
1513,531,3.31496,-0.0139366,0.248247,0.895828
1515,529,3.31461,-0.00897808,0.247815,0.895212
1517,527,3.31342,-0.0168158,0.249056,0.895273
1519,525,3.31364,-0.0104899,0.248216,0.894256
1521,523,3.31345,-0.0178987,0.248776,0.894712
1523,521,3.31376,-0.0111182,0.247954,0.893951
1525,519,3.315,-0.0137644,0.247755,0.893514
1527,517,3.31505,-0.0075387,0.24691,0.892438
1529,515,3.31469,-0.0083893,0.247054,0.891826
1531,513,3.31375,-0.00866548,0.247318,0.891673
1533,511,3.31256,-0.0166589,0.247722,0.891114
1535,509,3.31404,-0.0172693,0.246854,0.890628
1537,507,3.31371,-0.0195531,0.247262,0.890572
1539,505,3.31397,-0.013375,0.246417,0.889467
1541,503,3.31396,-0.0142148,0.246558,0.888858
1543,501,3.31472,-0.0125847,0.245748,0.888789
1545,499,3.3131,-0.0133466,0.246418,0.888463
1547,497,3.31394,-0.016001,0.246364,0.887601
1549,495,3.31326,-0.0143793,0.24622,0.887304
1551,493,3.31376,-0.0117158,0.245654,0.886608
1553,491,3.31184,-0.0177353,0.247033,0.886548
1555,489,3.31221,-0.0171032,0.246772,0.885613
1557,487,3.3137,-0.0119232,0.245323,0.885068
1559,485,3.31326,-0.0108619,0.245252,0.884707
1561,483,3.31388,-0.0205699,0.245058,0.884389
1563,481,3.31336,-0.0159748,0.244614,0.883573
1565,479,3.31246,-0.0202965,0.245466,0.883085
1567,477,3.31162,-0.0170966,0.245419,0.882629
1569,475,3.31295,-0.0193853,0.24497,0.882402
1571,473,3.3127,-0.0186157,0.244967,0.881765
1573,471,3.31352,-0.0139366,0.243847,0.880903
1575,469,3.31345,-0.0143027,0.243849,0.880725
1577,467,3.31411,-0.0126607,0.243044,0.880648
1579,465,3.31265,-0.0142468,0.243847,0.879482
1581,463,3.31256,-0.0124181,0.243443,0.879306
1583,461,3.31376,-0.00842018,0.242543,0.877794
1585,459,3.31189,-0.0165424,0.24407,0.877781
1587,457,3.31267,-0.0109795,0.242943,0.877596
1589,455,3.311447,-0.0172272,0.24407,0.877488
1591,453,3.31354,-0.014294,0.242764,0.876878
1593,451,3.31378,-0.0130749,0.242362,0.8764
1595,449,3.31369,-0.0156866,0.241692,0.875641
1597,447,3.31364,-0.0164344,0.241638,0.875271
1599,445,3.31251,-0.0157511,0.24245,0.874141
1601,443,3.3118,-0.0176521,0.242444,0.874287
1603,441,3.31115,-0.0169365,0.242449,0.873375
1605,439,3.31312,-0.0139804,0.241136,0.872787
1607,437,3.31172,-0.0198723,0.242272,0.872615
1609,435,3.31283,-0.0147287,0.241134,0.872413
1611,433,3.31234,-0.0136205,0.241316,0.871718
1613,431,3.31349,-0.0160438,0.240958,0.871408
1615,429,3.31123,-0.0137304,0.241534,0.870187
1617,427,3.31206,-0.0160178,0.241365,0.869979
1619,425,3.31169,-0.0165656,0.241354,0.869683
1621,423,3.31094,-0.0155588,0.241362,0.868929
1623,421,3.31293,-0.00708991,0.23958,0.867887
1625,419,3.31277,-0.00779957,0.239575,0.867542
1627,417,3.31228,-0.010526,0.240125,0.867092
1629,415,3.31187,-0.0141151,0.240456,0.867418
1631,413,3.31211,-0.0167931,0.239723,0.86689
1633,411,3.31095,-0.0230141,0.240862,0.866527
1635,409,3.31151,-0.0168431,0.239718,0.865326
1637,407,3.31156,-0.0209821,0.24021,0.865286
1639,405,3.31081,-0.0198374,0.240395,0.864571
1641,403,3.31063,-0.0186999,0.239951,0.863864
1643,401,3.3112,-0.0154324,0.239219,0.863609
1645,399,3.31244,-0.0144218,0.238236,0.862815
1647,397,3.31022,-0.0174021,0.240033,0.86225
1649,395,3.31126,-0.0175025,0.238898,0.862416
1651,393,3.31096,-0.0168391,0.238905,0.86147
1653,391,3.31116,-0.0156811,0.238639,0.86077
1655,389,3.31384,-0.00697795,0.236443,0.859984
1657,387,3.31294,-0.00746281,0.236837,0.859559
1659,385,3.31143,-0.0216628,0.23799,0.859288
1661,383,3.31158,-0.0170712,0.237392,0.858196
1663,381,3.31222,-0.0187451,0.237081,0.858469
1665,379,3.31129,-0.0195283,0.237181,0.857906
1667,377,3.31112,-0.0203569,0.237491,0.857528
1669,375,3.31057,-0.0139344,0.237936,0.856776
1671,373,3.30996,-0.0220002,0.237896,0.85655
1673,371,3.31108,-0.0170059,0.236861,0.856012
1675,369,3.31108,-0.0139153,0.236332,0.855138
1677,367,3.31166,-0.018177,0.236578,0.855095
1679,365,3.31121,-0.0172858,0.236577,0.854248
1681,363,3.31157,-0.0165028,0.235915,0.853539
1683,361,3.3125,-0.0131303,0.235263,0.852931
1685,359,3.31195,-0.0123834,0.23526,0.85201
1687,357,3.31185,-0.0147425,0.235411,0.851959
1689,355,3.31128,-0.0134756,0.235257,0.851486
1691,353,3.31027,-0.0143436,0.235841,0.85089
1693,351,3.30927,-0.0226995,0.236067,0.850351
1695,349,3.31133,-0.0117446,0.234754,0.849703
1697,347,3.31197,-0.0149438,0.234169,0.8489
1699,345,3.31219,-0.0150994,0.233586,0.849
1701,343,3.31197,-0.0160658,0.233739,0.84839
1703,341,3.31087,-0.0204149,0.234498,0.848172
1705,339,3.31131,-0.0136927,0.233333,0.847166
1707,337,3.31267,-0.0146686,0.232779,0.846517
1709,335,3.31174,-0.0155364,0.233179,0.845896
1711,333,3.31049,-0.0163088,0.233841,0.845354
1713,331,3.30987,-0.0189559,0.234248,0.845193
1715,329,3.3102,-0.0121971,0.233071,0.844158
1717,327,3.31173,-0.0130136,0.232668,0.843413
1719,325,3.30986,-0.0169166,0.233739,0.843731
1721,323,3.31006,-0.016051,0.233331,0.843063
1723,321,3.30906,-0.0165334,0.23374,0.842643
1725,319,3.31022,-0.0115367,0.232561,0.842061
1727,317,3.3096,-0.0160217,0.233076,0.841822
1729,315,3.31183,-0.00766295,0.231237,0.840578
1731,313,3.31021,-0.0214485,0.232592,0.840688
1733,311,3.30929,-0.0223148,0.232825,0.84009
1735,309,3.31171,-0.0172331,0.231098,0.839361
1737,307,3.30926,-0.0223413,0.232574,0.838835
1739,305,3.31127,-0.0188576,0.23125,0.838688
1741,303,3.31205,-0.0120091,0.230068,0.837432
1743,301,3.31166,-0.0131338,0.230064,0.836906
1745,299,3.30976,-0.0173484,0.231655,0.836606
1747,297,3.31035,-0.0143023,0.230464,0.836152
1749,295,3.31011,-0.0150652,0.230586,0.835423
1751,293,3.31058,-0.0099989,0.229803,0.834659
1753,291,3.30891,-0.01622,0.230989,0.834705
1755,289,3.31091,-0.00920022,0.229139,0.833963
1757,287,3.3104,-0.014372,0.230075,0.833352
1759,285,3.31048,-0.0127579,0.229659,0.832993
1761,283,3.30932,-0.0120454,0.229952,0.832259
1763,281,3.31067,-0.00825922,0.228875,0.831967
1765,279,3.30894,-0.0230472,0.230226,0.831518
1767,277,3.31113,-0.0194275,0.228748,0.831339
1769,275,3.30964,-0.0163161,0.228876,0.830607
1771,273,3.31006,-0.0210342,0.229151,0.83041
1773,271,3.31021,-0.0198931,0.228898,0.829683
1775,269,3.30897,-0.0190136,0.229145,0.8288
1777,267,3.31135,-0.0135392,0.22741,0.828206
1779,265,3.31046,-0.014396,0.227821,0.827628
1781,263,3.31015,-0.0171349,0.228228,0.827462
1783,261,3.31094,-0.0101746,0.227024,0.826699
1785,259,3.3084,-0.016905,0.228638,0.826099
1787,257,3.30818,-0.0172713,0.228635,0.82593
1789,255,3.30991,-0.0124343,0.227305,0.824832
1791,253,3.30966,-0.0132831,0.227297,0.824434
1793,251,3.30868,-0.0141048,0.227709,0.82413
1795,249,3.30835,-0.0149704,0.227713,0.823503
1797,247,3.3077,-0.0235628,0.227712,0.823206
1799,245,3.30942,-0.0126607,0.22696,0.822319
1801,243,3.30909,-0.0213248,0.226792,0.82201
1803,241,3.30832,-0.0221714,0.227199,0.821438
1805,239,3.30888,-0.0141808,0.226637,0.821642
1807,237,3.30745,-0.0218188,0.227199,0.82035
1809,235,3.30983,-0.0197697,0.225868,0.820516
1811,233,3.30945,-0.018658,0.225869,0.819751
1813,231,3.31017,-0.0115333,0.22464,0.818763
1815,229,3.30876,-0.0182093,0.225865,0.81869
1817,227,3.30868,-0.0168278,0.225451,0.818225
1819,225,3.3094,-0.0127193,0.224804,0.817053
1821,223,3.31035,-0.0125733,0.224125,0.816873
1823,221,3.3095,-0.0141903,0.2247,0.814677
1825,219,3.30918,-0.0142158,0.224527,0.815931
1827,217,3.30874,-0.0229942,0.22469,0.815414
1829,215,3.31003,-0.0178306,0.223465,0.814825
1831,213,3.30973,-0.0189405,0.223608,0.813955
1833,211,3.30917,-0.0214986,0.224014,0.813871
1835,209,3.30848,-0.0227702,0.224418,0.813107
1837,207,3.30808,-0.0210135,0.224012,0.812816
1839,205,3.30733,-0.0219559,0.22442,0.812211
1841,203,3.30955,-0.0186643,0.223087,0.811664
1843,201,3.31028,-0.0115395,0.222255,0.810644
1845,199,3.30834,-0.0164032,0.223082,0.810134
1847,197,3.30797,-0.0167314,0.22308,0.809977
1849,195,3.30676,-0.0200645,0.2239,0.809389
1851,193,3.30923,-0.0140608,0.222154,0.808947
1853,191,3.30887,-0.0147865,0.222155,0.808641
1855,189,3.30776,-0.0157003,0.222563,0.808051
1857,187,3.30723,-0.0152476,0.222555,0.806973
1859,185,3.30903,-0.00918089,0.220918,0.806946
1861,183,3.30864,-0.0185477,0.221074,0.806209
1863,181,3.30624,-0.0254631,0.222721,0.805887
1865,179,3.30781,-0.0218154,0.221638,0.805495
1867,177,3.30906,-0.0166667,0.22055,0.804651
1869,175,3.30882,-0.0177872,0.22055,0.804157
1871,173,3.30824,-0.0164248,0.220384,0.803671
1873,171,3.30779,-0.0191751,0.220961,0.803375
1875,169,3.30809,-0.0198494,0.220701,0.802872
1877,167,3.30739,-0.0185876,0.22082,0.802148
1879,165,3.30733,-0.0194088,0.220691,0.801792
1881,163,3.30872,-0.0141606,0.219453,0.801207
1883,161,3.30822,-0.0147442,0.219637,0.800754
1885,159,3.3084,-0.0133572,0.21921,0.800312
1887,157,3.30793,-0.0141507,0.219212,0.799968
1889,155,3.30845,-0.0154299,0.219116,0.799019
1891,153,3.30936,-0.0177457,0.217864,0.79893
1893,151,3.30887,-0.0108414,0.218266,0.797907
1895,149,3.30893,-0.0129352,0.218422,0.797868
1897,147,3.30928,-0.0159584,0.217598,0.797048
1899,145,3.30917,-0.0166464,0.217574,0.796744
1901,143,3.307,-0.0236725,0.219242,0.796418
1903,141,3.30874,-0.0183894,0.21776,0.795806
1905,139,3.30857,-0.0192257,0.217893,0.795052
1907,137,3.30987,-0.013754,0.21663,0.794509
1909,135,3.3077,-0.0209393,0.218307,0.794135
1911,133,3.30754,-0.0196171,0.217892,0.793626
1913,131,3.30635,-0.0201058,0.218301,0.793201
1915,129,3.30904,-0.0149524,0.216547,0.792358
1917,127,3.30878,-0.0158909,0.216715,0.791767
1919,125,3.30772,-0.0167272,0.216955,0.791397
1921,123,3.30958,-0.00920508,0.215284,0.790679
1923,121,3.30681,-0.0159425,0.216957,0.790477
1925,119,3.30838,-0.0105069,0.215685,0.78991
1927,117,3.30641,-0.0259571,0.217117,0.789567
1929,115,3.30979,-0.00806846,0.214743,0.788734
1931,113,3.3088,-0.017292,0.215152,0.788183
1933,111,3.30691,-0.021716,0.216014,0.786791
1935,109,3.30832,-0.0190078,0.215318,0.78727
1937,107,3.30836,-0.0193243,0.215078,0.786931
1939,105,3.30934,-0.0143957,0.21421,0.785953
1941,103,3.30916,-0.0126408,0.213798,0.785608
1943,101,3.30737,-0.0196963,0.215082,0.785533
1945,99,3.30643,-0.0202999,0.215483,0.785053
1947,97,3.30806,-0.0148854,0.214204,0.784472
1949,95,3.3073,-0.0136472,0.214201,0.783719
1951,93,3.30745,-0.0165735,0.21437,0.783559
1953,91,3.30993,-0.00851522,0.21221,0.782832
1955,89,3.30827,-0.0114879,0.213255,0.782431
1957,87,3.30914,-0.0123499,0.212514,0.782148
1959,85,3.30653,-0.017339,0.2143,0.781602
1961,83,3.30796,-0.0139833,0.213189,0.780986
1963,81,3.3075,-0.0227251,0.213188,0.780864
1965,79,3.30909,-0.0174271,0.212017,0.780044
1967,77,3.30795,-0.0166845,0.212717,0.779078
1969,75,3.30805,-0.0212869,0.212657,0.779089
1971,73,3.30812,-0.0199411,0.212248,0.778591
1973,71,3.30793,-0.020462,0.21242,0.778186
1975,69,3.30707,-0.0212199,0.212655,0.777846
1977,67,3.30793,-0.0158693,0.211762,0.776992
1979,65,3.30887,-0.0170064,0.211304,0.776353
1981,63,3.30782,-0.0154558,0.211527,0.77594
1983,61,3.30932,-0.0124155,0.210409,0.775171
1985,59,3.31021,-0.00897581,0.209367,0.774509
1987,57,3.30775,-0.0120991,0.210819,0.773853
1989,55,3.30906,-0.0102959,0.209778,0.773771
1991,53,3.30774,-0.0108187,0.210406,0.773317
1993,51,3.30811,-0.0140362,0.210354,0.772859
1995,49,3.30763,-0.0163329,0.210766,0.772977
1997,47,3.30707,-0.0150679,0.21076,0.772233
1999,45,3.30671,-0.0160537,0.210932,0.771633
2001,43,3.3059,-0.0163379,0.211278,0.771504
2003,41,3.30732,-0.022002,0.210219,0.770511
2005,39,3.30724,-0.0142944,0.210226,0.77015
2007,37,3.3068,-0.0236433,0.210223,0.769835
2009,35,3.30622,-0.0224727,0.210625,0.769054
2011,33,3.3056,-0.0246821,0.210382,0.769215
2013,31,3.30698,-0.0178376,0.209319,0.767902
2015,29,3.30615,-0.0165659,0.209321,0.767419
2017,27,3.3092,-0.0121296,0.207553,0.7672
2019,25,3.30895,-0.0131385,0.207723,0.766571
2021,23,3.30859,-0.0138984,0.207726,0.766276
2023,21,3.30766,-0.0148729,0.208125,0.765664
2025,19,3.30578,-0.0199126,0.209034,0.765397
2027,17,3.30716,-0.018667,0.208322,0.764977
2029,15,3.30742,-0.0170732,0.208094,0.764373
2031,13,3.3084,-0.01196,0.207174,0.763379
2033,11,3.3078,-0.0141263,0.207579,0.763547
2035,9,3.3082,-0.0110143,0.206759,0.762692
2037,7,3.3072,-0.011506,0.207165,0.762544
2039,5,3.30666,-0.0144864,0.207576,0.762141
2041,3,3.30593,-0.0132453,0.207574,0.761386