File: hust_correlation_analysis/matrices/HUST_10-3_cycle_feature_matrix.csv
cycle_number,rul,voltage,current,capacity,charge_capacity
1,1850,3.32771,-0.0116405,0.265082,1.0019
3,1848,3.31029,-0.0156682,0.271443,0.995803
5,1846,3.31153,-0.0134706,0.269956,0.994947
7,1844,3.3115,-0.0140413,0.269954,0.994702
9,1842,3.31135,-0.014815,0.269955,0.994382
11,1840,3.31149,-0.0154451,0.269951,0.994097
13,1838,3.31149,-0.0161993,0.269952,0.993784
15,1836,3.311,-0.0169732,0.270138,0.993439
17,1834,3.31368,-0.0141151,0.268461,0.992871
19,1832,3.31349,-0.0140501,0.268033,0.99316
21,1830,3.31351,-0.0148004,0.26803,0.992838
23,1828,3.31293,-0.0154083,0.26846,0.992308
25,1826,3.31334,-0.0155773,0.268027,0.992496
27,1824,3.31225,-0.016296,0.268458,0.99192
29,1822,3.31371,-0.0162022,0.268027,0.992225
31,1820,3.31303,-0.016953,0.268025,0.991892
33,1818,3.31299,-0.0169295,0.268018,0.991885
35,1816,3.3123,-0.0169687,0.268013,0.991855
37,1814,3.31465,-0.014167,0.266517,0.991239
39,1812,3.31428,-0.0140918,0.266617,0.991243
41,1810,3.31493,-0.0142436,0.266514,0.991196
43,1808,3.31419,-0.0148351,0.266514,0.990924
45,1806,3.31457,-0.0148424,0.266511,0.990923
47,1804,3.31407,-0.0147781,0.266828,0.990935
49,1802,3.31406,-0.0155516,0.266507,0.990601
51,1800,3.31376,-0.0154351,0.266501,0.990634
53,1798,3.31391,-0.0155684,0.2666,0.990581
55,1796,3.31342,-0.0163041,0.266928,0.989998
57,1794,3.314,-0.01625,0.266496,0.990283
59,1792,3.31294,-0.0169064,0.266924,0.989713
61,1790,3.31321,-0.0169414,0.2665,0.99023
63,1788,3.31323,-0.0168471,0.266454,0.990018
65,1786,3.3148,-0.0141964,0.265814,0.989089
67,1784,3.31581,-0.0141275,0.265015,0.989381
69,1782,3.31532,-0.0140881,0.265007,0.989386
71,1780,3.31509,-0.0148895,0.265437,0.988782
73,1778,3.31441,-0.0149483,0.265434,0.988752
75,1776,3.31471,-0.0149522,0.265757,0.988754
77,1774,3.31377,-0.0157177,0.265861,0.988147
79,1772,3.31486,-0.0157022,0.265433,0.988419
81,1770,3.31427,-0.0156856,0.265438,0.988434
83,1768,3.31511,-0.016332,0.265811,0.988148
85,1766,3.31372,-0.0164501,0.265438,0.988107
87,1764,3.31385,-0.0172121,0.265875,0.987551
89,1762,3.31333,-0.0171232,0.265864,0.98757
91,1760,3.31373,-0.0170277,0.265441,0.987813
93,1758,3.31591,-0.0142134,0.264379,0.987002
95,1756,3.31622,-0.0141805,0.263956,0.987276
97,1754,3.31523,-0.0141916,0.26438,0.987016
99,1752,3.31573,-0.0141561,0.263951,0.987289
101,1750,3.31532,-0.0148488,0.264374,0.986709
103,1748,3.31522,-0.0148864,0.264372,0.986693
105,1746,3.31561,-0.0149373,0.26437,0.986676
107,1744,3.31525,-0.0149602,0.264371,0.986665
109,1742,3.31574,-0.0156657,0.264375,0.986365
111,1740,3.31455,-0.015681,0.264381,0.986371
113,1738,3.31522,-0.0157133,0.264384,0.986369
115,1736,3.31473,-0.0164423,0.264389,0.986066
117,1734,3.315,-0.0164375,0.264388,0.986067
119,1732,3.31469,-0.0163938,0.264386,0.986075
121,1730,3.31527,-0.0170568,0.264382,0.985784
123,1728,3.3138,-0.0171244,0.26481,0.985499
125,1726,3.31444,-0.0170813,0.264377,0.985755
127,1724,3.31315,-0.0171274,0.264803,0.985475
129,1722,3.31617,-0.0142851,0.263317,0.98488
131,1720,3.31597,-0.0142389,0.263312,0.984891
133,1718,3.31601,-0.0143189,0.263313,0.984867
135,1716,3.31608,-0.0142575,0.263315,0.98489
137,1714,3.31577,-0.0149354,0.263317,0.98461
139,1712,3.316,-0.0149587,0.263323,0.984609
141,1710,3.31574,-0.0149794,0.26332,0.984603
143,1708,3.31616,-0.0156655,0.263324,0.984305
145,1706,3.31573,-0.0157006,0.263422,0.984291
147,1704,3.31609,-0.0157468,0.263326,0.984274
149,1702,3.31539,-0.0157137,0.263319,0.984274
151,1700,3.31607,-0.0161135,0.263318,0.984089
153,1698,3.31463,-0.0165463,0.263745,0.983655
155,1696,3.3149,-0.0164717,0.263736,0.983672
157,1694,3.31426,-0.0165201,0.26374,0.983651
159,1692,3.31472,-0.0165617,0.263744,0.983645
161,1690,3.31478,-0.0164955,0.263741,0.983667
163,1688,3.31462,-0.0170932,0.263738,0.983402
165,1686,3.31414,-0.0171126,0.263752,0.983414
167,1684,3.31607,-0.0144668,0.262685,0.982476
169,1682,3.31601,-0.0143906,0.263083,0.982507
171,1680,3.31565,-0.0143864,0.262687,0.982519
173,1678,3.3161,-0.0144007,0.262694,0.98253
175,1676,3.31622,-0.0151212,0.262691,0.982209
177,1674,3.3165,-0.0150999,0.262688,0.982213
179,1672,3.3163,-0.0149917,0.262262,0.982511
181,1670,3.31581,-0.0150451,0.262367,0.98223
183,1668,3.31544,-0.0151274,0.262682,0.982181
185,1666,3.31597,-0.0151628,0.262686,0.98218
187,1664,3.3151,-0.0159298,0.26311,0.981573
189,1662,3.31605,-0.0158823,0.262686,0.981853
191,1660,3.31537,-0.0158299,0.262685,0.981878
193,1658,3.31563,-0.0166564,0.263118,0.981276
195,1656,3.31507,-0.0165579,0.26311,0.981308
197,1654,3.31536,-0.0164672,0.262686,0.981608
199,1652,3.31477,-0.0164856,0.263117,0.981596
201,1650,3.31477,-0.0172766,0.263112,0.981003
203,1648,3.31488,-0.0171411,0.263512,0.981061
205,1646,3.31476,-0.0173493,0.263112,0.980968
207,1644,3.31463,-0.0171978,0.263117,0.981043
209,1642,3.31696,-0.0136861,0.261617,0.98072
211,1640,3.31709,-0.0144687,0.26162,0.980384
213,1638,3.31623,-0.0144022,0.261612,0.980387
215,1636,3.31666,-0.0144396,0.261618,0.980385
217,1634,3.31587,-0.0143902,0.261609,0.980381
219,1632,3.31659,-0.014476,0.261614,0.980349
221,1630,3.31649,-0.0145249,0.261612,0.980336
223,1628,3.31634,-0.0152378,0.26204,0.979765
225,1626,3.31659,-0.0150997,0.261617,0.98009
227,1624,3.31641,-0.015092,0.261929,0.980074
229,1622,3.31529,-0.0151359,0.262016,0.979738
231,1620,3.31653,-0.0152642,0.261603,0.979986
233,1618,3.31518,-0.0158205,0.262354,0.979496
235,1616,3.31579,-0.0158974,0.262036,0.979457
237,1614,3.31572,-0.0158991,0.262035,0.979468
239,1612,3.31546,-0.0159011,0.262035,0.97947
241,1610,3.3161,-0.0158904,0.262427,0.979468
243,1608,3.31531,-0.0165434,0.262029,0.979179
245,1606,3.31559,-0.0165017,0.26203,0.979191
247,1604,3.31511,-0.0166464,0.262027,0.97913
249,1602,3.31504,-0.0166091,0.26203,0.979154
251,1600,3.31498,-0.0166774,0.262032,0.979122
253,1598,3.31549,-0.0173814,0.262033,0.978818
255,1596,3.31418,-0.0174533,0.262464,0.978543
257,1594,3.31561,-0.0174077,0.262415,0.978815
259,1592,3.31438,-0.0172953,0.26203,0.978849
261,1590,3.31739,-0.0137711,0.26054,0.978545
263,1588,3.31624,-0.0145486,0.260961,0.977932
265,1586,3.31619,-0.0144997,0.261057,0.977945
267,1584,3.3165,-0.0144762,0.260953,0.977938
269,1582,3.3162,-0.0145239,0.260947,0.977918
271,1580,3.31642,-0.0143911,0.260942,0.978185
273,1578,3.31692,-0.0144066,0.260511,0.978189
275,1576,3.31621,-0.0143432,0.260937,0.977956
277,1574,3.31597,-0.0143509,0.260922,0.977904
279,1572,3.3165,-0.0150775,0.260932,0.977626
281,1570,3.31521,-0.0145271,0.260915,0.977782
283,1568,3.31599,-0.0146596,0.260922,0.977746
285,1566,3.3154,-0.0151344,0.260915,0.977513
287,1564,3.31604,-0.0152522,0.260928,0.977516
289,1562,3.31553,-0.0152784,0.260924,0.9775
291,1560,3.31603,-0.0153046,0.260925,0.977494
293,1558,3.31525,-0.0160532,0.261322,0.976894
295,1556,3.31586,-0.015986,0.260919,0.977179
297,1554,3.31459,-0.0160531,0.26135,0.977139
299,1552,3.31474,-0.016106,0.261352,0.976879
301,1550,3.31442,-0.0159843,0.261351,0.976918
303,1548,3.3147,-0.0167072,0.261349,0.97659
305,1546,3.31413,-0.0167679,0.261779,0.976317
307,1544,3.31462,-0.0167599,0.26136,0.976622
309,1542,3.31516,-0.0173555,0.26136,0.976365
311,1540,3.31489,-0.0174094,0.26168,0.976362
313,1538,3.31474,-0.0173821,0.261366,0.97638
315,1536,3.31672,-0.0144739,0.259863,0.974398
317,1534,3.31694,-0.0145383,0.260179,0.975749
319,1532,3.31572,-0.0145762,0.260285,0.975464
321,1530,3.31683,-0.014477,0.25986,0.975767
323,1528,3.31561,-0.0146468,0.260281,0.975421
325,1526,3.31609,-0.0146359,0.260283,0.975428
327,1524,3.31605,-0.0153694,0.260284,0.975114
329,1522,3.31603,-0.0153719,0.260285,0.975109
331,1520,3.3158,-0.0152997,0.260678,0.975137
333,1518,3.31614,-0.0159471,0.26029,0.974871
335,1516,3.31474,-0.0160634,0.260723,0.974573
337,1514,3.31581,-0.0159863,0.260296,0.974879
339,1512,3.31474,-0.0160391,0.260725,0.974603
341,1510,3.3151,-0.0167128,0.260731,0.974565
343,1508,3.31559,-0.01675,0.260727,0.974101
345,1506,3.31474,-0.0168018,0.260719,0.974261
347,1504,3.31561,-0.0168274,0.260722,0.974237
349,1502,3.31521,-0.0167605,0.260287,0.974523
351,1500,3.31523,-0.0167573,0.260715,0.974266
353,1498,3.31481,-0.0175505,0.260717,0.973913
355,1496,3.31457,-0.0175351,0.26071,0.973907
357,1494,3.31412,-0.0175009,0.260711,0.973914
359,1492,3.31441,-0.0175451,0.260711,0.973904
361,1490,3.31566,-0.01399,0.259641,0.971927
363,1488,3.31695,-0.0147056,0.259218,0.973554
365,1486,3.31578,-0.014637,0.259643,0.973066
367,1484,3.3165,-0.0145912,0.259219,0.973354
369,1482,3.31631,-0.0152956,0.259645,0.972785
371,1480,3.31581,-0.015342,0.259381,0.972777
373,1478,3.31612,-0.0152912,0.259648,0.972808
375,1476,3.31544,-0.0152829,0.259644,0.972793
377,1474,3.31573,-0.0153398,0.259643,0.972774
379,1472,3.31558,-0.0154273,0.259649,0.972744
381,1470,3.316,-0.0160584,0.259642,0.972444
383,1468,3.31548,-0.0160655,0.25964,0.972435
385,1466,3.31615,-0.0161183,0.259958,0.972416
387,1464,3.31549,-0.016147,0.259639,0.972396
389,1462,3.31599,-0.0168579,0.260032,0.971966
391,1460,3.31537,-0.0168634,0.259649,0.972123
393,1458,3.31522,-0.0168192,0.259653,0.972154
395,1456,3.31476,-0.0169467,0.260086,0.971856
397,1454,3.31476,-0.0176074,0.260089,0.971581
399,1452,3.31429,-0.0174741,0.260082,0.971605
401,1450,3.31459,-0.0175693,0.260473,0.971575
403,1448,3.31439,-0.0175325,0.260084,0.971585
405,1446,3.31441,-0.0175141,0.260075,0.971576
407,1444,3.31722,-0.0146939,0.258567,0.970924
409,1442,3.31625,-0.0146597,0.25857,0.970945
411,1440,3.3171,-0.0147579,0.258566,0.970893
413,1438,3.31605,-0.0147698,0.258565,0.970889
415,1436,3.31678,-0.0147274,0.258563,0.970898
417,1434,3.31564,-0.0155142,0.259346,0.970304
419,1432,3.31569,-0.0155655,0.259003,0.970301
421,1430,3.31557,-0.0154835,0.259008,0.97035
423,1428,3.3161,-0.0162153,0.259004,0.970031
425,1426,3.31571,-0.0161092,0.25901,0.970079
427,1424,3.31598,-0.0161946,0.259007,0.970051
429,1422,3.3157,-0.0161046,0.259011,0.970092
431,1420,3.3157,-0.0168395,0.259377,0.969753
433,1418,3.31581,-0.0168653,0.259012,0.969766
435,1416,3.31505,-0.0169173,0.259007,0.969737
437,1414,3.31543,-0.0169294,0.259007,0.969729
439,1412,3.31419,-0.0170022,0.259437,0.969436
441,1410,3.31483,-0.0175928,0.259435,0.969175
443,1408,3.31445,-0.0177184,0.259432,0.969108
445,1406,3.31467,-0.0178033,0.259438,0.969089
447,1404,3.31416,-0.0177099,0.259442,0.969139
449,1402,3.317311,-0.0148086,0.257929,0.968521
451,1400,3.316434,-0.014576,0.25793,0.96862
453,1398,3.31679,-0.014747,0.257931,0.968555
455,1396,3.3167,-0.0147358,0.257932,0.968572
457,1394,3.31615,-0.015376,0.257924,0.968052
459,1392,3.31671,-0.0154558,0.257932,0.968247
461,1390,3.31515,-0.0155321,0.25835,0.967938
463,1388,3.31594,-0.0155271,0.258363,0.967958
465,1386,3.31558,-0.0156076,0.258357,0.967913
467,1384,3.3158,-0.0162462,0.258353,0.967626
469,1382,3.31581,-0.0163619,0.25835,0.967566
471,1380,3.3157,-0.0163508,0.258658,0.967559
473,1378,3.3152,-0.0162209,0.258351,0.967619
475,1376,3.31588,-0.0170471,0.258352,0.967281
477,1374,3.31467,-0.0170594,0.258792,0.967032
479,1372,3.31542,-0.0169706,0.258361,0.96735
481,1370,3.31488,-0.0176765,0.258795,0.966778
483,1368,3.31447,-0.0177306,0.258793,0.966759
485,1366,3.3148,-0.0176516,0.259169,0.966797
487,1364,3.31423,-0.0177283,0.258792,0.966768
489,1362,3.31724,-0.0140733,0.257593,0.96647
491,1360,3.3169,-0.0148555,0.257282,0.966135
493,1358,3.31691,-0.0149167,0.257277,0.966093
495,1356,3.31644,-0.0149098,0.257281,0.966102
497,1354,3.31683,-0.0149127,0.257588,0.966095
499,1352,3.31571,-0.0155908,0.25771,0.96554
501,1350,3.31654,-0.0155282,0.257276,0.965819
503,1348,3.31537,-0.0156234,0.257708,0.965514
505,1346,3.31626,-0.0155355,0.257278,0.965829
507,1344,3.3158,-0.0162113,0.25771,0.965274
509,1342,3.3152,-0.0162405,0.257804,0.965268
511,1340,3.3163,-0.0163218,0.257711,0.965243
513,1338,3.3155,-0.0171173,0.257717,0.964912
515,1336,3.31595,-0.0170391,0.257712,0.965175
517,1334,3.31549,-0.017089,0.257708,0.964895
519,1332,3.31537,-0.0171105,0.257704,0.964872
521,1330,3.31504,-0.0170907,0.257703,0.964883
523,1328,3.31467,-0.0179036,0.258135,0.964269
525,1326,3.31428,-0.0178058,0.258135,0.964296
527,1324,3.31483,-0.0177118,0.257693,0.964586
529,1322,3.31404,-0.0177998,0.25813,0.964286
531,1320,3.31391,-0.0178087,0.258124,0.964282
533,1318,3.3167,-0.0148573,0.256922,0.963667
535,1316,3.31615,-0.0148235,0.256612,0.963694
537,1314,3.31671,-0.0150114,0.256615,0.963621
539,1312,3.31638,-0.0150149,0.256609,0.963606
541,1310,3.31601,-0.0157452,0.257039,0.963028
543,1308,3.31646,-0.0156148,0.256608,0.963345
545,1306,3.31621,-0.0157206,0.256603,0.963294
547,1304,3.31574,-0.0155315,0.256994,0.96337
549,1302,3.31604,-0.0163453,0.2566,0.963017
551,1300,3.31506,-0.0162816,0.257034,0.962776
553,1298,3.31536,-0.0164768,0.257033,0.962707
555,1296,3.31507,-0.01643,0.257029,0.962715
557,1294,3.31475,-0.0163921,0.257025,0.962717
559,1292,3.31541,-0.0171665,0.257025,0.962376
561,1290,3.31423,-0.0173172,0.2573,0.962064
563,1288,3.31562,-0.0172515,0.257033,0.962367
565,1286,3.31436,-0.0180283,0.257475,0.961792
567,1284,3.31461,-0.0180478,0.257473,0.961787
569,1282,3.31399,-0.0178857,0.257479,0.961866
571,1280,3.31656,-0.0149958,0.255948,0.961209
573,1278,3.31633,-0.014907,0.255951,0.961242
575,1276,3.3165,-0.0148769,0.255513,0.961511
577,1274,3.316,-0.014986,0.256042,0.961214
579,1272,3.31575,-0.0150239,0.255938,0.961188
581,1270,3.31627,-0.0157379,0.256333,0.960876
583,1268,3.3149,-0.0157818,0.256373,0.96058
585,1266,3.31628,-0.0158108,0.255944,0.960838
587,1264,3.31498,-0.0158636,0.256377,0.960561
589,1262,3.31581,-0.0166515,0.256385,0.96024
591,1260,3.3152,-0.0166,0.256483,0.960274
593,1258,3.31532,-0.0171641,0.256386,0.960029
595,1256,3.31579,-0.0172454,0.256392,0.960013
597,1254,3.31474,-0.0171589,0.256385,0.960039
599,1252,3.31607,-0.0171147,0.255957,0.960326
601,1250,3.31464,-0.0180171,0.256383,0.95967
603,1248,3.31482,-0.0180195,0.256388,0.959669
605,1246,3.31431,-0.0180557,0.256383,0.959637
607,1244,3.31443,-0.0180347,0.25638,0.959643
609,1242,3.31356,-0.0180276,0.256812,0.959377
611,1240,3.31628,-0.015131,0.255283,0.958721
613,1238,3.31597,-0.0150435,0.255277,0.958738
615,1236,3.31614,-0.0150985,0.255276,0.95872
617,1234,3.3169,-0.0149948,0.254846,0.959025
619,1232,3.31588,-0.0157531,0.255666,0.958441
621,1230,3.31665,-0.0159611,0.255669,0.958391
623,1228,3.31535,-0.0158577,0.255291,0.958442
625,1226,3.31641,-0.0166111,0.255297,0.958127
627,1224,3.31543,-0.0165804,0.255289,0.958127
629,1222,3.31537,-0.0166006,0.255298,0.958142
631,1220,3.31544,-0.0165706,0.255293,0.958137
633,1218,3.31439,-0.0173651,0.255721,0.957532
635,1216,3.31519,-0.0172718,0.255723,0.957563
637,1214,3.31452,-0.0173196,0.255717,0.957536
639,1212,3.31488,-0.0173666,0.255726,0.957538
641,1210,3.31468,-0.0174492,0.255724,0.957496
643,1208,3.31495,-0.0182133,0.255723,0.957163
645,1206,3.31441,-0.0180965,0.255719,0.957202
647,1204,3.31474,-0.0181882,0.255718,0.957171
649,1202,3.31679,-0.0151494,0.254199,0.95659
651,1200,3.31683,-0.0151255,0.254204,0.956608
653,1198,3.31662,-0.0150397,0.254198,0.95664
655,1196,3.31595,-0.0158871,0.254638,0.956272
657,1194,3.31642,-0.0158561,0.254634,0.956039
659,1192,3.31526,-0.0158362,0.254633,0.956051
661,1190,3.31599,-0.0159001,0.254637,0.956032
663,1188,3.31496,-0.0168487,0.25507,0.955357
665,1186,3.31524,-0.0167851,0.255071,0.95538
667,1184,3.3151,-0.0167545,0.25507,0.955395
669,1182,3.31543,-0.0167071,0.254632,0.955674
671,1180,3.31557,-0.0174031,0.255069,0.955115
673,1178,3.31555,-0.017316,0.255007,0.95541
675,1176,3.31567,-0.0172078,0.254634,0.955458
677,1174,3.31513,-0.0173392,0.254633,0.9554
679,1172,3.31561,-0.0174323,0.254633,0.95537
681,1170,3.31459,-0.0182606,0.255069,0.954755
683,1168,3.31457,-0.0183365,0.255065,0.954721
685,1166,3.3139,-0.0182444,0.255066,0.95476
687,1164,3.3166,-0.0151322,0.253531,0.954177
689,1162,3.31602,-0.0152988,0.253972,0.953853
691,1160,3.31622,-0.0151264,0.253536,0.954188
693,1158,3.3168,-0.0152064,0.253915,0.954162
695,1156,3.31564,-0.0159386,0.253967,0.953587
697,1154,3.31632,-0.0160358,0.25397,0.952256
699,1152,3.31548,-0.0160636,0.253971,0.953536
701,1150,3.31593,-0.016036,0.253972,0.953542
703,1148,3.31581,-0.0168251,0.253969,0.953209
705,1146,3.31561,-0.0167598,0.253967,0.953237
707,1144,3.31575,-0.0166902,0.253969,0.953268
709,1142,3.3156,-0.0173948,0.253964,0.952961
711,1140,3.31585,-0.0174363,0.253969,0.952958
713,1138,3.31493,-0.0175375,0.253967,0.952903
715,1136,3.31564,-0.0175648,0.253969,0.952904
717,1134,3.31468,-0.0174816,0.254271,0.952927
719,1132,3.31595,-0.0175303,0.253532,0.953172
721,1130,3.31455,-0.0182289,0.253966,0.952852
723,1128,3.31495,-0.0182639,0.253966,0.95259
725,1126,3.31402,-0.0183881,0.254402,0.952276
727,1124,3.31645,-0.015213,0.252865,0.951724
729,1122,3.31675,-0.0152737,0.252865,0.9517
731,1120,3.31591,-0.0152947,0.252863,0.951686
733,1118,3.31653,-0.0153397,0.25286,0.95166
735,1116,3.31579,-0.0153746,0.252861,0.951644
737,1114,3.31668,-0.0161617,0.252865,0.951311
739,1112,3.31595,-0.0159964,0.252865,0.951382
741,1110,3.31626,-0.0161308,0.252954,0.951332
743,1108,3.31632,-0.0159721,0.252861,0.951389
745,1106,3.31628,-0.0167396,0.252868,0.951076
747,1104,3.31617,-0.0167374,0.252862,0.951077
749,1102,3.31576,-0.0168071,0.252865,0.951055
751,1100,3.31617,-0.017569,0.252858,0.950719
753,1098,3.31496,-0.0175748,0.253297,0.950457
755,1096,3.3159,-0.0175077,0.252856,0.950737
757,1094,3.31447,-0.017564,0.253294,0.950458
759,1092,3.31508,-0.0184476,0.253292,0.950085
761,1090,3.31462,-0.0182539,0.253289,0.950155
763,1088,3.31435,-0.018296,0.253288,0.950138
765,1086,3.31464,-0.01839,0.253677,0.950102
767,1084,3.3163,-0.0145822,0.251842,0.949625
769,1082,3.3173,-0.015393,0.251759,0.949471
771,1080,3.31582,-0.0154806,0.252195,0.949181
773,1078,3.31677,-0.0153025,0.251756,0.949512
775,1076,3.31636,-0.0160199,0.252198,0.948956
777,1074,3.31646,-0.0160452,0.251754,0.949196
779,1072,3.31688,-0.0160427,0.251763,0.949222
781,1070,3.316,-0.016892,0.252192,0.948594
783,1068,3.31622,-0.0169019,0.252199,0.948599
785,1066,3.3157,-0.0169367,0.252194,0.948569
787,1064,3.31586,-0.0169782,0.252197,0.948564
789,1062,3.31532,-0.0177135,0.252637,0.947993
791,1060,3.31557,-0.0177146,0.252573,0.948248
793,1058,3.31557,-0.0174654,0.252195,0.948343
795,1056,3.31559,-0.0183591,0.252193,0.947968
797,1054,3.31554,-0.018284,0.252191,0.947769
799,1052,3.315,-0.0183639,0.252195,0.947972
801,1050,3.31729,-0.0154834,0.251095,0.947037
803,1048,3.31644,-0.0154063,0.251095,0.947056
805,1046,3.31673,-0.0154033,0.251394,0.947058
807,1044,3.31607,-0.0153689,0.251089,0.947067
809,1042,3.31651,-0.0161316,0.251092,0.94675
811,1040,3.31659,-0.0161612,0.251091,0.946747
813,1038,3.31568,-0.0161193,0.25109,0.946756
815,1036,3.31679,-0.0162775,0.251038,0.946704
817,1034,3.31532,-0.0170469,0.25191,0.946101
819,1032,3.31622,-0.0170769,0.251529,0.946104
821,1030,3.3155,-0.0170563,0.251531,0.946114
823,1028,3.31568,-0.0176916,0.251527,0.945831
825,1026,3.31575,-0.0176547,0.251528,0.945839
827,1024,3.31559,-0.0174675,0.251076,0.946151
829,1022,3.31635,-0.0176894,0.251077,0.946301
831,1020,3.31528,-0.0185654,0.251512,0.94543
833,1018,3.31513,-0.0185237,0.251514,0.94544
835,1016,3.3143,-0.018634,0.251952,0.945136
837,1014,3.31652,-0.0155199,0.250399,0.944524
839,1012,3.31657,-0.0154196,0.250417,0.944604
841,1010,3.3168,-0.0162976,0.250413,0.944238
843,1008,3.31662,-0.0162173,0.250507,0.944278
845,1006,3.31646,-0.0163774,0.250416,0.944218
847,1004,3.3161,-0.0163527,0.250714,0.944213
849,1002,3.31637,-0.0170481,0.250413,0.943912
851,1000,3.31611,-0.0169114,0.250407,0.943974
853,998,3.31576,-0.0169679,0.250412,0.943947
855,996,3.31603,-0.0178105,0.250409,0.943588
857,994,3.3152,-0.0176704,0.25083,0.942078
859,992,3.31469,-0.0178981,0.25084,0.943275
861,990,3.31556,-0.0186445,0.251221,0.942969
863,988,3.31378,-0.0187121,0.251284,0.942679
865,986,3.31752,-0.0148447,0.249299,0.942657
867,984,3.3161,-0.0155626,0.249738,0.942095
869,982,3.31703,-0.0153549,0.249306,0.94246
871,980,3.31647,-0.0155761,0.249745,0.942114
873,978,3.31601,-0.0162825,0.249744,0.941816
875,976,3.31678,-0.0164463,0.249746,0.941742
877,974,3.31535,-0.0172409,0.25018,0.941145
879,972,3.3166,-0.0171928,0.249744,0.941436
881,970,3.31575,-0.0170908,0.249743,0.941477
883,968,3.31554,-0.0179403,0.250181,0.940866
885,966,3.31557,-0.0178696,0.25018,0.940884
887,964,3.31493,-0.0179426,0.25017,0.940831
889,962,3.31595,-0.0178882,0.24974,0.941135
891,960,3.31467,-0.0187825,0.25017,0.940476
893,958,3.31739,-0.0149565,0.24863,0.940182
895,956,3.31677,-0.0156861,0.249067,0.939616
897,954,3.3168,-0.0154256,0.249,0.939978
899,952,3.31749,-0.0155189,0.24863,0.939958
901,950,3.31619,-0.016473,0.249064,0.939283
903,948,3.3173,-0.0164086,0.24863,0.939582
905,946,3.31614,-0.0172228,0.24906,0.938972
907,944,3.31619,-0.0172255,0.249054,0.938945
909,942,3.3159,-0.0171893,0.249052,0.938959
911,940,3.31548,-0.0171814,0.249049,0.938962
913,938,3.31593,-0.0178825,0.24906,0.938678
915,936,3.3152,-0.0179277,0.24905,0.938643
917,934,3.3153,-0.0180149,0.249344,0.938623
919,932,3.31462,-0.0188923,0.249494,0.93798
921,930,3.31693,-0.0157589,0.247947,0.937396
923,928,3.31644,-0.0157101,0.248391,0.937157
925,926,3.31683,-0.0157387,0.247952,0.937425
927,924,3.31652,-0.0164872,0.248391,0.936841
929,922,3.31602,-0.0166112,0.248391,0.935462
931,920,3.316,-0.016598,0.24839,0.936806
933,918,3.31565,-0.0173026,0.248391,0.936504
935,916,3.31554,-0.0173198,0.248385,0.936481
937,914,3.31501,-0.0173521,0.248829,0.936213
939,912,3.31491,-0.0181547,0.248824,0.935875
941,910,3.31489,-0.0181998,0.249202,0.935851
943,908,3.31381,-0.0191263,0.249273,0.935211
945,906,3.31455,-0.0190118,0.248824,0.935505
947,904,3.31624,-0.015804,0.247711,0.934658
949,902,3.31666,-0.015802,0.247264,0.934921
951,900,3.31619,-0.0158422,0.247715,0.934671
953,898,3.31611,-0.0166928,0.247713,0.934308
955,896,3.31634,-0.0173549,0.248093,0.934038
957,894,3.31539,-0.0174959,0.248154,0.933723
959,892,3.31572,-0.0173993,0.247711,0.934024
961,890,3.31531,-0.0181464,0.248156,0.933454
963,888,3.315,-0.0181914,0.248156,0.933441
965,886,3.31533,-0.0190469,0.248452,0.933083
967,884,3.31476,-0.0190381,0.248152,0.932894
969,882,3.31718,-0.0151789,0.246588,0.932747
971,880,3.3165,-0.015856,0.247033,0.932201
973,878,3.31701,-0.0158121,0.246589,0.932485
975,876,3.31658,-0.0165565,0.24741,0.931916
977,874,3.31622,-0.0166541,0.247032,0.931875
979,872,3.31639,-0.0167284,0.247032,0.931852
981,870,3.31554,-0.0175228,0.247475,0.931252
983,868,3.3159,-0.0173061,0.247032,0.931616
985,866,3.31553,-0.0182074,0.247476,0.930975
987,864,3.31482,-0.0182613,0.247475,0.930954
989,862,3.31526,-0.0194526,0.247475,0.930461
991,860,3.31471,-0.0190517,0.247472,0.930616
993,858,3.31655,-0.0160408,0.24635,0.929664
995,856,3.3167,-0.0159013,0.24635,0.929725
997,854,3.31678,-0.0158587,0.245906,0.930007
999,852,3.31649,-0.01671,0.246434,0.929398
1001,850,3.31597,-0.0168219,0.246347,0.929348
1003,848,3.31531,-0.0176713,0.246793,0.928729
1005,846,3.3161,-0.0175087,0.246347,0.929054
1007,844,3.31555,-0.0182052,0.246346,0.928773
1009,842,3.31583,-0.0183183,0.246315,0.928721
1011,840,3.31422,-0.0184097,0.246782,0.928396
1013,838,3.31465,-0.0191974,0.246785,0.92807
1015,836,3.31384,-0.0191979,0.247236,0.927822
1017,834,3.31603,-0.0161524,0.24566,0.927138
1019,832,3.31644,-0.0161179,0.246039,0.927147
1021,830,3.31538,-0.0162007,0.245384,0.927101
1023,828,3.31601,-0.016947,0.24566,0.926798
1025,826,3.31567,-0.0168162,0.24566,0.926861
1027,824,3.3155,-0.0176071,0.245658,0.926534
1029,822,3.31579,-0.0177334,0.245656,0.926293
1031,820,3.31434,-0.0185782,0.246097,0.925848
1033,818,3.31475,-0.0186632,0.246098,0.925811
1035,816,3.31426,-0.0185859,0.246096,0.925839
1037,814,3.31401,-0.019302,0.246089,0.925541
1039,812,3.314404,-0.0193592,0.24609,0.925514
1041,810,3.31573,-0.0152326,0.244502,0.925236
1043,808,3.3158,-0.0163293,0.244953,0.92454
1045,806,3.31523,-0.0162196,0.244961,0.924585
1047,804,3.31556,-0.0169395,0.244959,0.924301
1049,802,3.31548,-0.0169931,0.244965,0.924296
1051,800,3.31462,-0.0179376,0.245404,0.923625
1053,798,3.31457,-0.0180232,0.245417,0.923613
1055,796,3.31395,-0.0186396,0.24586,0.923087
1057,794,3.3141,-0.0186347,0.245412,0.923359
1059,792,3.31442,-0.0193851,0.245701,0.923044
1061,790,3.31306,-0.0195786,0.245859,0.922704
1063,788,3.31563,-0.0163892,0.244278,0.922061
1065,786,3.31568,-0.0162292,0.244279,0.922122
1067,784,3.31524,-0.0170761,0.244649,0.921771
1069,782,3.31569,-0.0170969,0.244278,0.921776
1071,780,3.31477,-0.0170984,0.24427,0.921755
1073,778,3.31461,-0.0179868,0.244719,0.921119
1075,776,3.31476,-0.017929,0.244726,0.921421
1077,774,3.31412,-0.0186906,0.244729,0.920866
1079,772,3.31418,-0.0197127,0.245181,0.920203
1081,770,3.31328,-0.0195448,0.245182,0.920272
1083,768,3.31586,-0.0163488,0.24359,0.919617
1085,766,3.31601,-0.0163815,0.243672,0.919596
1087,764,3.31516,-0.0163078,0.243587,0.919614
1089,762,3.31495,-0.0173535,0.244042,0.918934
1091,760,3.31459,-0.0171638,0.24404,0.919004
1093,758,3.31459,-0.0180698,0.244037,0.91864
1095,756,3.31437,-0.0179806,0.244038,0.918673
1097,754,3.31432,-0.0189564,0.244034,0.91826
1099,752,3.31405,-0.0189221,0.244033,0.918276
1101,750,3.31368,-0.0196504,0.244485,0.917722
1103,748,3.31361,-0.0196038,0.244028,0.91799
1105,746,3.31583,-0.0157363,0.242884,0.917325
1107,744,3.31533,-0.0165185,0.242971,0.917016
1109,742,3.3148,-0.0173797,0.243346,0.916424
1111,740,3.31574,-0.0172675,0.242895,0.916747
1113,738,3.31405,-0.0181122,0.243348,0.916131
1115,736,3.31485,-0.0182783,0.243342,0.916301
1117,734,3.31346,-0.0189423,0.243798,0.915525
1119,732,3.31404,-0.0189145,0.24334,0.915804
1121,730,3.31367,-0.0198508,0.243798,0.91517
1123,728,3.31564,-0.0157922,0.242202,0.915082
1125,726,3.31558,-0.0166374,0.2422,0.914503
1127,724,3.31568,-0.0164898,0.242201,0.914559
1129,722,3.31488,-0.0175079,0.24265,0.913875
1131,720,3.31463,-0.0174539,0.242653,0.914144
1133,718,3.31478,-0.0181753,0.242654,0.913611
1135,716,3.31395,-0.0181796,0.24265,0.913608
1137,714,3.31396,-0.0192915,0.243103,0.912883
1139,712,3.31279,-0.0191755,0.243098,0.912919
1141,710,3.31341,-0.0200003,0.2431,0.9126
1143,708,3.31558,-0.015781,0.241501,0.912344
1145,706,3.31491,-0.0166104,0.241498,0.911993
1147,704,3.31531,-0.0167201,0.241499,0.911949
1149,702,3.31437,-0.0174471,0.241956,0.911403
1151,700,3.31455,-0.0183091,0.241957,0.911062
1153,698,3.31384,-0.0184309,0.242412,0.910744
1155,696,3.31354,-0.0192527,0.24241,0.910408
1157,694,3.31308,-0.0192189,0.242411,0.910431
1159,692,3.31379,-0.0200492,0.242411,0.910094
1161,690,3.31513,-0.0159273,0.240803,0.909776
1163,688,3.31491,-0.016898,0.241259,0.909119
1165,686,3.31453,-0.0167206,0.24126,0.909191
1167,684,3.31435,-0.0176411,0.241257,0.908814
1169,682,3.31437,-0.0176119,0.241258,0.908837
1171,680,3.31354,-0.018464,0.241713,0.908223
1173,678,3.3133,-0.0193709,0.241714,0.907869
1175,676,3.31356,-0.0192456,0.241713,0.907914
1177,674,3.31228,-0.0202897,0.242171,0.907223
1179,672,3.3155,-0.0159406,0.240103,0.907265
1181,670,3.31494,-0.0168544,0.240561,0.906634
1183,668,3.31437,-0.0168973,0.240559,0.906609
1185,666,3.31461,-0.0177661,0.240556,0.906255
1187,664,3.31437,-0.0176039,0.240556,0.906326
1189,662,3.31317,-0.0186709,0.241018,0.905638
1191,660,3.31337,-0.0194014,0.241004,0.905322
1193,658,3.31327,-0.0193096,0.241013,0.905366
1195,656,3.31175,-0.0203095,0.241466,0.904695
1197,654,3.31518,-0.0163159,0.239854,0.904315
1199,652,3.31413,-0.0169675,0.239854,0.904054
1201,650,3.31422,-0.0169655,0.239854,0.904056
1203,648,3.31438,-0.0178202,0.239854,0.903722
1205,646,3.31354,-0.018609,0.240317,0.903153
1207,644,3.31392,-0.018595,0.239857,0.903435
1209,642,3.3134,-0.0194583,0.240316,0.902823
1211,640,3.31234,-0.0205177,0.240777,0.902129
1213,638,3.31282,-0.0203114,0.239947,0.902475
1215,636,3.31505,-0.0170275,0.239156,0.901543
1217,634,3.31407,-0.0170212,0.239152,0.901521
1219,632,3.31424,-0.0178971,0.239145,0.901169
1221,630,3.31456,-0.0177429,0.239299,0.90123
1223,628,3.31277,-0.0188467,0.239599,0.900496
1225,626,3.31315,-0.0188804,0.239605,0.900497
1227,624,3.31293,-0.0194636,0.239604,0.900258
1229,622,3.31185,-0.0205141,0.240063,0.899569
1231,620,3.31488,-0.0164489,0.238808,0.899191
1233,618,3.31416,-0.0170544,0.238437,0.898936
1235,616,3.31434,-0.0179714,0.238438,0.898591
1237,614,3.31346,-0.0181537,0.238901,0.89825
1239,612,3.31366,-0.018874,0.238903,0.897975
1241,610,3.313,-0.0196045,0.238898,0.897678
1243,608,3.31341,-0.0197708,0.238898,0.897609
1245,606,3.31212,-0.0205852,0.239362,0.897021
1247,604,3.31452,-0.0164895,0.237733,0.896649
1249,602,3.31445,-0.017259,0.237728,0.89633
1251,600,3.31371,-0.0173348,0.238192,0.896264
1253,598,3.31302,-0.0181042,0.238185,0.895724
1255,596,3.31393,-0.0191336,0.238192,0.89532
1257,594,3.3121,-0.0190709,0.238654,0.895071
1259,592,3.31241,-0.0199892,0.23865,0.894707
1261,590,3.31222,-0.0207244,0.238651,0.894411
1263,588,3.31401,-0.0165637,0.237477,0.893771
1265,586,3.31344,-0.017436,0.237475,0.893422
1267,584,3.31382,-0.0183319,0.237503,0.893068
1269,582,3.31313,-0.0182352,0.237482,0.893133
1271,580,3.31251,-0.0191538,0.237947,0.892505
1273,578,3.31219,-0.0200654,0.237946,0.892158
1275,576,3.31218,-0.0200252,0.237947,0.892174
1277,574,3.3134,-0.0166025,0.236767,0.891229
1279,572,3.31399,-0.0175986,0.236772,0.890848
1281,570,3.31266,-0.0175362,0.23724,0.890595
1283,568,3.31243,-0.0184149,0.237237,0.890251
1285,566,3.31269,-0.0192768,0.237235,0.889899
1287,564,3.31242,-0.0191721,0.237233,0.889945
1289,562,3.31093,-0.0202578,0.237698,0.889235
1291,560,3.31143,-0.0211355,0.237702,0.888904
1293,558,3.31342,-0.0166665,0.236052,0.888631
1295,556,3.31243,-0.0177686,0.236514,0.887915
1297,554,3.3122,-0.018516,0.236517,0.88762
1299,552,3.31257,-0.018539,0.236512,0.887621
1301,550,3.31115,-0.0194958,0.236992,0.886983
1303,548,3.31109,-0.020389,0.236985,0.886634
1305,546,3.31138,-0.0204007,0.236991,0.886648
1307,544,3.31333,-0.0167776,0.235337,0.886037
1309,542,3.31254,-0.0177528,0.235809,0.88539
1311,540,3.31299,-0.0187027,0.235809,0.885027
1313,538,3.31225,-0.0184964,0.236174,0.885095
1315,536,3.31183,-0.0193466,0.235804,0.884998
1317,534,3.31177,-0.0204769,0.236277,0.884054
1319,532,3.31097,-0.0203399,0.236273,0.8841
1321,530,3.31059,-0.0212382,0.236273,0.883745
1323,528,3.31284,-0.0179271,0.235088,0.881427
1325,526,3.31311,-0.0186203,0.235087,0.882474
1327,524,3.31223,-0.0188053,0.235084,0.8824
1329,522,3.31156,-0.0195673,0.235558,0.881827
1331,520,3.31171,-0.0206013,0.235556,0.881426
1333,518,3.3111,-0.0205195,0.235557,0.881457
1335,516,3.31244,-0.0170244,0.234632,0.880493
1337,514,3.31308,-0.0180399,0.234364,0.880109
1339,512,3.3118,-0.0187832,0.234841,0.879545
1341,510,3.31126,-0.0189803,0.234838,0.879467
1343,508,3.31063,-0.0199265,0.235315,0.878829
1345,506,3.3109,-0.0207358,0.235315,0.87853
1347,504,3.30922,-0.0218109,0.236186,0.877827
1349,502,3.31241,-0.0172225,0.233638,0.877829
1351,500,3.31219,-0.0181189,0.234118,0.877217
1353,498,3.31099,-0.0188923,0.234114,0.876912
1355,496,3.31052,-0.0200359,0.23459,0.876194
1357,494,3.31012,-0.0200752,0.234594,0.876183
1359,492,3.31036,-0.020774,0.234591,0.875917
1361,490,3.30891,-0.0218968,0.235073,0.875211
1363,488,3.31166,-0.0182661,0.23339,0.874554
1365,486,3.31174,-0.0182894,0.233391,0.874552
1367,484,3.31075,-0.0191639,0.233866,0.873933
1369,482,3.31019,-0.0200693,0.233868,0.873589
1371,480,3.31006,-0.0209784,0.233867,0.873254
1373,478,3.31033,-0.0208578,0.233869,0.873302
1375,476,3.31142,-0.0174708,0.232663,0.872263
1377,474,3.31169,-0.018313,0.233027,0.87195
1379,472,3.31125,-0.0193336,0.233145,0.87128
1381,470,3.31043,-0.0202829,0.233628,0.870631
1383,468,3.30938,-0.0211511,0.233694,0.870307
1385,466,3.30982,-0.0212373,0.233625,0.870282
1387,464,3.31219,-0.0174326,0.231932,0.869665
1389,462,3.31068,-0.0185879,0.232413,0.868939
1391,460,3.31064,-0.0193012,0.232413,0.868665
1393,458,3.31044,-0.0194969,0.23241,0.868592
1395,456,3.31009,-0.0204403,0.232896,0.867966
1397,454,3.30813,-0.0215184,0.23338,0.867267
1399,452,3.30839,-0.0222878,0.233451,0.866985
1401,450,3.31075,-0.0186534,0.23168,0.866289
1403,448,3.31018,-0.0195731,0.232167,0.865662
1405,446,3.30919,-0.0195943,0.232166,0.865648
1407,444,3.3092,-0.0205399,0.232159,0.865297
1409,442,3.30908,-0.0216256,0.232655,0.864626
1411,440,3.30805,-0.0223074,0.232654,0.86437
1413,438,3.31069,-0.018721,0.23095,0.863655
1415,436,3.31011,-0.0197621,0.231436,0.862983
1417,434,3.31003,-0.0196943,0.231434,0.863018
1419,432,3.30876,-0.0205669,0.231924,0.862396
1421,430,3.30813,-0.0216454,0.231923,0.861997
1423,428,3.31144,-0.0178842,0.23061,0.861336
1425,426,3.3102,-0.0188285,0.230699,0.860697
1427,424,3.30942,-0.0199473,0.231191,0.859989
1429,422,3.30882,-0.0205958,0.231189,0.859746
1431,420,3.30848,-0.0208594,0.231189,0.859659
1433,418,3.30861,-0.021768,0.231186,0.859312
1435,416,3.3092,-0.0182043,0.230454,0.857979
1437,414,3.30904,-0.0191127,0.230454,0.857646
1439,412,3.30852,-0.0200379,0.230451,0.8573
1441,410,3.30903,-0.0209976,0.23045,0.856954
1443,408,3.30772,-0.0217969,0.230946,0.856558
1445,406,3.30662,-0.0219178,0.230941,0.85632
1447,404,3.30975,-0.0182085,0.229219,0.855627
1449,402,3.30911,-0.0192099,0.229712,0.854973
1451,400,3.30898,-0.0199918,0.229711,0.854686
1453,398,3.30763,-0.0211374,0.230209,0.853975
1455,396,3.30745,-0.0220499,0.230208,0.853648
1457,394,3.30984,-0.0184426,0.22897,0.852379
1459,392,3.30926,-0.019214,0.22897,0.852301
1461,390,3.30808,-0.0202811,0.229466,0.851619
1463,388,3.30801,-0.0211836,0.229467,0.851296
1465,386,3.30712,-0.0198977,0.229465,0.850609
1467,384,3.30762,-0.0197445,0.229028,0.850958
1469,382,3.30919,-0.0158799,0.227725,0.849981
1471,380,3.30797,-0.0171653,0.22822,0.849229
1473,378,3.30738,-0.0275495,0.228218,0.848964
1475,376,3.30632,-0.0288191,0.22872,0.848216
1477,374,3.30705,-0.0271322,0.228214,0.847965
1479,372,3.30511,-0.0305894,0.229221,0.847289
1481,370,3.30851,-0.0242008,0.226474,0.84695
1483,368,3.30829,-0.0227685,0.226473,0.846309
1485,366,3.30748,-0.0239367,0.226965,0.845585
1487,364,3.30757,-0.0198362,0.22637,0.845334
1489,362,3.3058,-0.0233541,0.226962,0.84464
1491,360,3.30883,-0.0171825,0.224721,0.843933
1493,358,3.30893,-0.0172037,0.224722,0.843928
1495,356,3.30757,-0.0180739,0.225214,0.843311
1497,354,3.30697,-0.0191322,0.225211,0.842929
1499,352,3.30629,-0.0296805,0.225209,0.842629
1501,350,3.30926,-0.0233772,0.222966,0.841956
1503,348,3.3088,-0.0245509,0.223459,0.841244
1505,346,3.3082,-0.0252037,0.223459,0.841014
1507,344,3.30703,-0.0264938,0.223949,0.84025
1509,342,3.30726,-0.0248478,0.223458,0.839992
1511,340,3.30572,-0.0259723,0.223948,0.839281
1513,338,3.30917,-0.0196656,0.222102,0.838607
1515,336,3.3082,-0.0206161,0.2222,0.83798
1517,334,3.30654,-0.0216948,0.222693,0.837307
1519,332,3.3068,-0.0202559,0.222194,0.836963
1521,330,3.30654,-0.0211058,0.222197,0.836662
1523,328,3.30946,-0.0162161,0.220449,0.836348
1525,326,3.30754,-0.0183581,0.221432,0.834985
1527,324,3.30664,-0.0290553,0.221779,0.834699
1529,322,3.30753,-0.0251882,0.220449,0.834341
1531,320,3.30689,-0.0275948,0.220938,0.834355
1533,318,3.30939,-0.0210669,0.218693,0.833736
1535,316,3.30777,-0.0247365,0.219669,0.833
1537,314,3.30693,-0.0233308,0.219662,0.832325
1539,312,3.30716,-0.0217489,0.219172,0.832019
1541,310,3.30698,-0.022743,0.219171,0.831667
1543,308,3.30563,-0.0237574,0.21966,0.831016
1545,306,3.30816,-0.019924,0.217897,0.830291
1547,304,3.30825,-0.0181955,0.21741,0.830049
1549,302,3.30684,-0.0293098,0.217893,0.829315
1551,300,3.30741,-0.0277411,0.217406,0.829007
1553,298,3.30601,-0.0286243,0.217886,0.828385
1555,296,3.30719,-0.0275246,0.217101,0.827284
1557,294,3.30749,-0.025946,0.216953,0.826979
1559,292,3.30609,-0.0270818,0.217095,0.826279
1561,290,3.3072,-0.0244014,0.216126,0.826661
1563,288,3.30603,-0.0252917,0.216615,0.826069
1565,286,3.30724,-0.025075,0.215824,0.824649
1567,284,3.30833,-0.0185031,0.214365,0.824365
1569,282,3.30812,-0.0194203,0.214367,0.824048
1571,280,3.30712,-0.0305013,0.214849,0.823571
1573,278,3.30642,-0.0312795,0.214844,0.823095
1575,276,3.30764,-0.0201526,0.214045,0.821975
1577,274,3.30741,-0.0275797,0.213555,0.822015
1579,272,3.30774,-0.0260962,0.213072,0.821658
1581,270,3.30622,-0.0297147,0.214042,0.820994
1583,268,3.30635,-0.0280037,0.21355,0.820715
1585,266,3.30799,-0.0242604,0.212264,0.81965
1587,264,3.30801,-0.0225306,0.211782,0.819396
1589,262,3.30825,-0.0211117,0.211297,0.819015
1591,260,3.30718,-0.0221714,0.211778,0.81836
1593,258,3.30703,-0.0204103,0.211627,0.818094
1595,256,3.30545,-0.0242656,0.21197,0.817337
1597,254,3.30764,-0.0200807,0.210486,0.816716
1599,252,3.30748,-0.0189522,0.210489,0.815965
1601,250,3.3071,-0.0298485,0.210877,0.815691
1603,248,3.30666,-0.0305806,0.210481,0.815447
1605,246,3.30863,-0.0268677,0.209191,0.814374
1607,244,3.30803,-0.0277061,0.209186,0.814091
1609,242,3.30745,-0.0264172,0.209184,0.813369
1611,240,3.30774,-0.0249699,0.208708,0.813009
1613,238,3.30671,-0.0258225,0.209186,0.812424
1615,236,3.30436,-0.0295137,0.210147,0.811723
1617,234,3.30753,-0.0229962,0.207883,0.811027
1619,232,3.30756,-0.0213257,0.207727,0.810738
1621,230,3.30805,-0.0197931,0.20692,0.810394
1623,228,3.30775,-0.030767,0.206923,0.810355
1625,226,3.3093,-0.0166318,0.205616,0.809113
1627,224,3.30804,-0.0180275,0.206089,0.808337
1629,222,3.30764,-0.0290306,0.20609,0.808078
1631,220,3.30597,-0.0302547,0.206565,0.807375
1633,218,3.30618,-0.0312305,0.206565,0.807048
1635,216,3.30935,-0.0243763,0.204304,0.806458
1637,214,3.30786,-0.0255992,0.20478,0.805754
1639,212,3.30806,-0.0239499,0.204304,0.805454
1641,210,3.30726,-0.0225147,0.204303,0.804777
1643,208,3.30626,-0.026159,0.204776,0.804414
1645,206,3.30977,-0.019457,0.202516,0.803766
1647,204,3.3086,-0.0204534,0.203033,0.803129
1649,202,3.3068,-0.0242573,0.203933,0.802399
1651,200,3.30734,-0.0200024,0.202982,0.802126
1653,198,3.30648,-0.0312911,0.202982,0.801793
1655,196,3.30988,-0.0245887,0.200725,0.801129
1657,194,3.30906,-0.0256588,0.201401,0.800473
1659,192,3.30669,-0.0293939,0.202132,0.799789
1661,190,3.30621,-0.0304183,0.202126,0.799443
1663,188,3.30659,-0.028943,0.201658,0.799092
1665,186,3.30889,-0.0222863,0.199861,0.79809
1667,184,3.30907,-0.0232439,0.19986,0.797778
1669,182,3.30821,-0.0226284,0.199858,0.796827
1671,180,3.30629,-0.0264869,0.200795,0.796095
1673,178,3.30604,-0.0248633,0.200533,0.795789
1675,176,3.3091,-0.0207004,0.198564,0.79368
1677,174,3.30826,-0.0193294,0.198526,0.794418
1679,172,3.30789,-0.0305811,0.198526,0.794156
1681,170,3.30766,-0.0314883,0.198526,0.793855
1683,168,3.3063,-0.0222423,0.198993,0.793174
1685,166,3.30867,-0.0286009,0.197191,0.792468
1687,164,3.30847,-0.0273105,0.197193,0.791758
1689,162,3.30755,-0.0281921,0.197186,0.791453
1691,160,3.30802,-0.0265081,0.196721,0.791162
1693,158,3.31004,-0.0224166,0.195379,0.79015
1695,156,3.30794,-0.0263286,0.196307,0.789413
1697,154,3.30815,-0.0219729,0.195378,0.789144
1699,152,3.30783,-0.0230492,0.195763,0.788786
1701,150,3.3067,-0.0241799,0.195835,0.788109
1703,148,3.31112,-0.0171585,0.193109,0.787825
1705,146,3.30985,-0.0294688,0.193566,0.786927
1707,144,3.30812,-0.0204966,0.194026,0.786123
1709,142,3.30726,-0.0319448,0.194024,0.785829
1711,140,3.30686,-0.0305851,0.194022,0.785119
1713,138,3.30959,-0.0263518,0.192213,0.784454
1715,136,3.31009,-0.0245797,0.191456,0.784179
1717,134,3.30921,-0.0257865,0.192212,0.783495
1719,132,3.30664,-0.0297132,0.193134,0.782781
1721,130,3.30663,-0.028048,0.192671,0.782472
1723,128,3.31024,-0.0212557,0.190401,0.78179
1725,126,3.30955,-0.0220067,0.190399,0.781543
1727,124,3.30978,-0.0204295,0.189975,0.781207
1729,122,3.30809,-0.0320698,0.190396,0.780569
1731,120,3.30972,-0.0292501,0.189036,0.779135
1733,118,3.30943,-0.0301852,0.189033,0.778837
1735,116,3.30969,-0.0285005,0.188961,0.778524
1737,114,3.30844,-0.0296851,0.189031,0.777854
1739,112,3.31169,-0.022838,0.186761,0.77715
1741,110,3.31183,-0.0211167,0.186334,0.776857
1743,108,3.30984,-0.0249346,0.187208,0.776179
1745,106,3.30818,-0.0287694,0.188112,0.775505
1747,104,3.30956,-0.0242521,0.186754,0.775553
1749,102,3.31139,-0.0202422,0.185384,0.774486
1751,100,3.31054,-0.0188487,0.18538,0.773764
1753,98,3.31086,-0.0197331,0.185379,0.773498
1755,96,3.30962,-0.0218192,0.185828,0.77253
1757,94,3.30876,-0.0228973,0.185829,0.772199
1759,92,3.31111,-0.0293009,0.184005,0.771541
1761,90,3.30977,-0.0305972,0.184454,0.770845
1763,88,3.30975,-0.0290906,0.184005,0.77048
1765,86,3.3096,-0.0284431,0.184387,0.76954
1767,84,3.31285,-0.0212448,0.181737,0.76893
1769,82,3.31083,-0.0225591,0.182173,0.768188
1771,80,3.31005,-0.0263545,0.182606,0.767815
1773,78,3.30999,-0.0246424,0.182162,0.767515
1775,76,3.31333,-0.0177362,0.179893,0.766813
1777,74,3.31213,-0.0296272,0.18033,0.766155
1779,72,3.31151,-0.0304899,0.180327,0.765884
1781,70,3.31037,-0.0218562,0.180939,0.764903
1783,68,3.30879,-0.0340521,0.181205,0.764159
1785,66,3.31179,-0.0297686,0.179374,0.763489
1787,64,3.31152,-0.0279758,0.178932,0.763198
1789,62,3.31149,-0.0264492,0.178489,0.762811
1791,60,3.31043,-0.0276348,0.178926,0.762136
1793,58,3.31331,-0.023134,0.177092,0.761527
1795,56,3.31344,-0.0224563,0.176658,0.760891
1797,54,3.3123,-0.0237432,0.177087,0.760179
1799,52,3.3102,-0.0276998,0.177962,0.759498
1801,50,3.31313,-0.0205816,0.175685,0.75884
1803,48,3.31334,-0.0190781,0.175252,0.758466
1805,46,3.31215,-0.0320656,0.175683,0.757526
1807,44,3.31174,-0.0332063,0.175684,0.757185
1809,42,3.3141,-0.0261864,0.173845,0.75618
1811,40,3.31307,-0.0299349,0.174274,0.755876
1813,38,3.31185,-0.0321982,0.174701,0.754868
1815,36,3.31206,-0.0278076,0.173835,0.754523
1817,34,3.31523,-0.0206691,0.171566,0.75385
1819,32,3.31356,-0.0247258,0.172417,0.753137
1821,30,3.31458,-0.0227809,0.171717,0.753203
1823,28,3.31408,-0.0221517,0.17156,0.752241
1825,26,3.31496,-0.0207426,0.170566,0.751188
1827,24,3.31346,-0.0219721,0.170986,0.750485
1829,22,3.31392,-0.0213297,0.170559,0.749845
1831,20,3.3136,-0.0306785,0.170286,0.749521
1833,18,3.31644,-0.026233,0.168293,0.748872
1835,16,3.31534,-0.0286063,0.168709,0.747831
1837,14,3.31421,-0.0296892,0.16913,0.747207
1839,12,3.31266,-0.0318746,0.169552,0.746238
1841,10,3.31564,-0.0249019,0.167273,0.745489
1843,8,3.31541,-0.0259704,0.167273,0.745177
1845,6,3.31449,-0.0254515,0.167274,0.744184
1847,4,3.31726,-0.0210784,0.165419,0.7435
1848,3,3.31657,-0.0221512,0.166094,0.742862