File: hust_correlation_analysis/matrices/HUST_9-7_cycle_feature_matrix.csv
cycle_number,rul,voltage,current,capacity,charge_capacity
1,2014,3.3039,0.0202774,0.332623,1.05434
3,2012,3.29148,-0.00888743,0.347185,1.02992
5,2010,3.2927,-0.0107941,0.346483,1.03152
7,2008,3.29299,-0.0117276,0.345793,1.03368
9,2006,3.29504,-0.0109798,0.344219,1.03723
11,2004,3.29786,-0.00867381,0.342427,1.03939
13,2002,3.29889,-0.00816473,0.341537,1.04008
15,2000,3.29817,-0.00975693,0.341345,1.04165
17,1998,3.29906,-0.00858278,0.340468,1.04273
19,1996,3.30042,-0.00857577,0.339589,1.04308
21,1994,3.30163,-0.00745638,0.338732,1.04419
23,1992,3.30272,-0.00732652,0.337871,1.04464
25,1990,3.30146,-0.00741634,0.337868,1.04456
27,1988,3.30054,-0.0102921,0.338536,1.04486
29,1986,3.30235,-0.00898625,0.33719,1.04622
31,1984,3.30254,-0.00955951,0.337245,1.04584
33,1982,3.30154,-0.0101012,0.337674,1.04533
35,1980,3.3019,-0.00969542,0.337243,1.04575
37,1978,3.30301,-0.00963863,0.336819,1.04598
39,1976,3.30339,-0.00903686,0.336388,1.04652
41,1974,3.30312,-0.00956912,0.336821,1.04618
43,1972,3.30297,-0.00967824,0.336382,1.04608
45,1970,3.30423,-0.00740273,0.33527,1.04558
47,1968,3.30384,-0.00956681,0.336493,1.0463
49,1966,3.3053,-0.00743875,0.334845,1.04573
51,1964,3.3049,-0.00793292,0.334851,1.04542
53,1962,3.3042,-0.00808714,0.335262,1.04513
55,1960,3.30495,-0.00790533,0.334837,1.04542
57,1958,3.30526,-0.00799132,0.334837,1.04536
59,1956,3.30472,-0.00852041,0.334834,1.04501
61,1954,3.30407,-0.00864037,0.335255,1.04476
63,1952,3.30456,-0.0085492,0.334828,1.04498
65,1950,3.30515,-0.0084997,0.334406,1.04518
67,1948,3.30508,-0.00906583,0.334821,1.04463
69,1946,3.3044,-0.00964034,0.334931,1.04432
71,1944,3.30576,-0.00732146,0.333725,1.0438
73,1942,3.30596,-0.00743614,0.333732,1.04371
75,1940,3.30636,-0.0073224,0.333721,1.0438
77,1938,3.30592,-0.00785541,0.333721,1.04347
79,1936,3.30514,-0.00804947,0.334137,1.04314
81,1934,3.30575,-0.00799697,0.333717,1.04334
83,1932,3.30613,-0.00793297,0.333812,1.04338
85,1930,3.30542,-0.00856275,0.334135,1.0428
87,1928,3.3054,-0.00913675,0.334138,1.04101
89,1926,3.30484,-0.0091542,0.334146,1.04245
91,1924,3.30526,-0.00956007,0.334145,1.04219
93,1922,3.3053,-0.00955286,0.33415,1.0422
95,1920,3.30671,-0.00735175,0.333033,1.04162
97,1918,3.30599,-0.00742793,0.33345,1.04137
99,1916,3.30621,-0.0075182,0.333452,1.04134
101,1914,3.30672,-0.00731619,0.333031,1.04163
103,1912,3.30603,-0.00797644,0.333461,1.04104
105,1910,3.30533,-0.0080872,0.333876,1.04078
107,1908,3.30532,-0.00859601,0.33387,1.04044
109,1906,3.30586,-0.00839843,0.333526,1.04072
111,1904,3.30569,-0.00911565,0.333876,1.04012
113,1902,3.30522,-0.00907805,0.333887,1.04019
115,1900,3.30441,-0.00923309,0.334308,1.03989
117,1898,3.30522,-0.00963771,0.333884,1.0398
119,1896,3.30543,-0.00955015,0.333982,1.03984
121,1894,3.30654,-0.00680408,0.332753,1.03958
123,1892,3.30585,-0.00750254,0.333605,1.0388
125,1890,3.3059,-0.00745069,0.333178,1.03897
127,1888,3.30639,-0.007446,0.333176,1.039
129,1886,3.30655,-0.00798587,0.333283,1.03865
131,1884,3.3059,-0.00791829,0.333187,1.0387
133,1882,3.30489,-0.00867102,0.33404,1.03791
135,1880,3.3058,-0.00853265,0.333619,1.03818
137,1878,3.30571,-0.00849944,0.33362,1.03818
139,1876,3.30567,-0.00905298,0.333618,1.03783
141,1874,3.30505,-0.00910114,0.334049,1.03764
143,1872,3.3049,-0.00922442,0.334043,1.03757
145,1870,3.30523,-0.00963999,0.334042,1.03727
147,1868,3.30521,-0.00964897,0.33405,1.03729
149,1866,3.30418,-0.00974601,0.334556,1.03705
151,1864,3.30589,-0.00747151,0.333351,1.0365
153,1862,3.3064,-0.00740268,0.333359,1.03656
155,1860,3.30637,-0.00739402,0.333368,1.03657
157,1858,3.30629,-0.00797168,0.33336,1.03619
159,1856,3.30469,-0.0081764,0.334228,1.03572
161,1854,3.30561,-0.00798083,0.333792,1.03468
163,1852,3.30599,-0.0079557,0.333359,1.03619
165,1850,3.30591,-0.00844307,0.333368,1.03589
167,1848,3.30423,-0.00863798,0.334221,1.03542
169,1846,3.305,-0.00859973,0.334226,1.03561
171,1844,3.30533,-0.00904859,0.333788,1.03532
173,1842,3.30468,-0.00922789,0.334218,1.03504
175,1840,3.30444,-0.00923944,0.334223,1.03504
177,1838,3.30439,-0.00975299,0.334218,1.0347
179,1836,3.3045,-0.00970829,0.334227,1.03474
181,1834,3.30495,-0.00966379,0.334198,1.03472
183,1832,3.30413,-0.00983368,0.334205,1.03438
185,1830,3.30534,-0.00706423,0.333533,1.03451
187,1828,3.30552,-0.00752932,0.333526,1.03394
189,1826,3.3057,-0.00745125,0.333529,1.034
191,1824,3.30613,-0.00740099,0.333104,1.0342
193,1822,3.30512,-0.0081569,0.333964,1.03337
195,1820,3.30479,-0.00819799,0.333957,1.03334
197,1818,3.30577,-0.00799456,0.333519,1.03363
199,1816,3.30545,-0.0080759,0.333531,1.0336
201,1814,3.30487,-0.00860903,0.334521,1.0331
203,1812,3.3048,-0.00866702,0.333968,1.03305
205,1810,3.30492,-0.00866337,0.333965,1.03307
207,1808,3.30532,-0.00919958,0.333959,1.0327
209,1806,3.30498,-0.00914648,0.334058,1.03275
211,1804,3.30405,-0.00926613,0.334384,1.03247
213,1802,3.30433,-0.00927749,0.334374,1.03245
215,1800,3.30517,-0.00907031,0.334489,1.03271
217,1798,3.30453,-0.00924198,0.334356,1.03242
219,1796,3.30481,-0.00915738,0.334352,1.03245
221,1794,3.3037,-0.00940907,0.334788,1.03213
223,1792,3.30427,-0.00924653,0.334766,1.03217
225,1790,3.30356,-0.00969401,0.335212,1.03175
227,1788,3.30337,-0.009568,0.334782,1.03199
229,1786,3.30361,-0.00995587,0.334786,1.03175
231,1784,3.30366,-0.00990914,0.334774,1.03177
233,1782,3.30552,-0.00709924,0.333665,1.03131
235,1780,3.30542,-0.00754298,0.33365,1.03126
237,1778,3.30454,-0.00768139,0.334094,1.03101
239,1776,3.30454,-0.00776387,0.334089,1.03095
241,1774,3.30507,-0.00765149,0.334491,1.03105
243,1772,3.30447,-0.00830514,0.334093,1.03061
245,1770,3.30448,-0.00874005,0.334092,1.03036
247,1768,3.30393,-0.00878213,0.334104,1.03036
249,1766,3.30465,-0.00870248,0.333639,1.03058
251,1764,3.30464,-0.00924726,0.334099,1.03005
253,1762,3.3042,-0.00932462,0.334104,1.03002
255,1760,3.30356,-0.00945181,0.334528,1.02974
257,1758,3.30409,-0.00934681,0.334097,1.02997
259,1756,3.30371,-0.00938833,0.334528,1.02978
261,1754,3.30417,-0.00983573,0.334533,1.02964
263,1752,3.30345,-0.00997489,0.334465,1.02939
265,1750,3.30324,-0.010055,0.334535,1.02937
267,1748,3.30563,-0.00756419,0.33342,1.02895
269,1746,3.3052,-0.00762962,0.333423,1.02893
271,1744,3.30488,-0.00758874,0.333426,1.02896
273,1742,3.30483,-0.0082254,0.33342,1.02852
275,1740,3.3052,-0.00816596,0.333417,1.02856
277,1738,3.30525,-0.00814244,0.333418,1.02857
279,1736,3.30483,-0.00815456,0.333412,1.02856
281,1734,3.30426,-0.00829369,0.333845,1.02828
283,1732,3.30467,-0.00883497,0.333843,1.02794
285,1730,3.30471,-0.00879103,0.333841,1.02796
287,1728,3.3049,-0.00869602,0.333417,1.02821
289,1726,3.30386,-0.00938656,0.334276,1.02744
291,1724,3.30403,-0.00937957,0.333856,1.02763
293,1722,3.30442,-0.00931556,0.334426,1.0277
295,1720,3.30407,-0.00936105,0.333858,1.02765
297,1718,3.30372,-0.00993879,0.334371,1.02711
299,1716,3.3034,-0.00998603,0.334284,1.02706
301,1714,3.30408,-0.00985332,0.334401,1.0273
303,1712,3.30379,-0.0099355,0.33428,1.02709
305,1710,3.30367,-0.00985585,0.333848,1.0273
307,1708,3.30478,-0.00711838,0.333163,1.02686
309,1706,3.30499,-0.00761224,0.333163,1.02656
311,1704,3.3051,-0.00761301,0.333179,1.02658
313,1702,3.3051,-0.00811793,0.333178,1.02628
315,1700,3.30412,-0.00823861,0.333614,1.02602
317,1698,3.30465,-0.00819917,0.333182,1.02621
319,1696,3.305,-0.00815386,0.333179,1.02625
321,1694,3.30466,-0.00878778,0.333608,1.02566
323,1692,3.30444,-0.00881797,0.333623,1.02566
325,1690,3.30389,-0.0088066,0.33404,1.0256
327,1688,3.30453,-0.00875215,0.333603,1.02567
329,1686,3.30434,-0.00878962,0.333604,1.02565
331,1684,3.30419,-0.00941878,0.333604,1.02525
333,1682,3.30349,-0.0093617,0.334046,1.02513
335,1680,3.30403,-0.00941009,0.333616,1.02529
337,1678,3.30433,-0.00927079,0.333711,1.02536
339,1676,3.3041,-0.0097931,0.333618,1.02507
341,1674,3.30328,-0.00998158,0.334046,1.02473
343,1672,3.30327,-0.00995237,0.334046,1.02476
345,1670,3.30534,-0.00704426,0.332925,1.02483
347,1668,3.3053,-0.00760103,0.332939,1.02425
349,1666,3.30493,-0.00760095,0.332927,1.02423
351,1664,3.3047,-0.00763357,0.333493,1.02422
353,1662,3.30515,-0.00759876,0.332843,1.02426
355,1660,3.3046,-0.00825833,0.333369,1.02366
357,1658,3.30446,-0.00817834,0.333373,1.02374
359,1656,3.30409,-0.0081719,0.333374,1.02372
361,1654,3.30439,-0.00824164,0.333457,1.02369
363,1652,3.30471,-0.00871776,0.33338,1.02339
365,1650,3.30429,-0.00877066,0.333938,1.02337
367,1648,3.30373,-0.00881877,0.33375,1.02314
369,1646,3.30363,-0.00882861,0.333798,1.02312
371,1644,3.30438,-0.00871989,0.333913,1.02333
373,1642,3.30436,-0.00925031,0.333358,1.02301
375,1640,3.30318,-0.00950515,0.334243,1.02252
377,1638,3.30342,-0.00939526,0.333812,1.02306
379,1636,3.30374,-0.00933438,0.33381,1.02282
381,1634,3.30388,-0.00984277,0.333814,1.0225
383,1632,3.30343,-0.00988762,0.333822,1.02249
385,1630,3.30282,-0.00999336,0.334252,1.02226
387,1628,3.30542,-0.00699348,0.33269,1.02229
389,1626,3.30483,-0.00761489,0.333229,1.02172
391,1624,3.30524,-0.00747135,0.332698,1.022
393,1622,3.30399,-0.00772072,0.333572,1.02149
395,1620,3.30467,-0.00763635,0.333128,1.02171
397,1618,3.30487,-0.00764265,0.33369,1.02171
399,1616,3.30457,-0.00814661,0.333132,1.02139
401,1614,3.30394,-0.00818819,0.33358,1.02121
403,1612,3.30377,-0.00830269,0.334033,1.02115
405,1610,3.3046,-0.00873916,0.33358,1.02089
407,1608,3.30425,-0.00871252,0.333583,1.02089
409,1606,3.30392,-0.00877522,0.333573,1.02082
411,1604,3.30359,-0.00882827,0.333567,1.02078
413,1602,3.30396,-0.00886646,0.333565,1.02077
415,1600,3.3042,-0.0088241,0.333559,1.02077
417,1598,3.30386,-0.00935452,0.333563,1.02044
419,1596,3.30313,-0.00948331,0.334568,1.0202
421,1594,3.30363,-0.00931907,0.333211,1.02043
423,1592,3.30336,-0.00945813,0.334001,1.02021
425,1590,3.30381,-0.00989221,0.333558,1.0201
427,1588,3.3024,-0.0100779,0.334545,1.01965
429,1586,3.30293,-0.0100365,0.334002,1.01985
431,1584,3.30313,-0.00997377,0.334002,1.01987
433,1582,3.30511,-0.00700668,0.332441,1.01989
435,1580,3.30261,-0.00997878,0.334504,1.01985
437,1578,3.30439,-0.0075674,0.332867,1.01934
439,1576,3.30481,-0.00759871,0.33287,1.01935
441,1574,3.3045,-0.00768088,0.332871,1.01926
443,1572,3.30386,-0.00774226,0.333306,1.01905
445,1570,3.30374,-0.00784069,0.333299,1.01899
447,1568,3.30423,-0.0082622,0.333309,1.01875
449,1566,3.30402,-0.00828017,0.333319,1.01875
451,1564,3.30429,-0.0082071,0.332887,1.01899
453,1562,3.3032,-0.00892115,0.333756,1.01816
455,1560,3.304,-0.00890566,0.33331,1.01834
457,1558,3.30409,-0.00887711,0.33332,1.01836
459,1556,3.30367,-0.00889346,0.333308,1.01835
461,1554,3.30309,-0.00892628,0.333756,1.01816
463,1552,3.30337,-0.00892583,0.33331,1.01832
465,1550,3.30362,-0.00948299,0.333761,1.01783
467,1548,3.30327,-0.00951334,0.333758,1.01755
469,1546,3.30311,-0.00945394,0.333755,1.01784
471,1544,3.30295,-0.0100231,0.333766,1.01749
473,1542,3.30341,-0.00998599,0.333768,1.01753
475,1540,3.30322,-0.0099416,0.333767,1.01756
477,1538,3.30274,-0.00998117,0.333753,1.01751
479,1536,3.30432,-0.00710986,0.332636,1.01728
481,1534,3.30245,-0.0106794,0.334194,1.01689
483,1532,3.3048,-0.00768533,0.332632,1.01692
485,1530,3.30441,-0.00768756,0.33263,1.0169
487,1528,3.30372,-0.00784353,0.333066,1.01661
489,1526,3.30413,-0.0077351,0.332623,1.01684
491,1524,3.30411,-0.0083124,0.333069,1.01632
493,1522,3.30412,-0.00816221,0.332739,1.01663
495,1520,3.30319,-0.00838381,0.333522,1.01616
497,1518,3.30329,-0.0088327,0.333521,1.01588
499,1516,3.30334,-0.00883675,0.333521,1.01588
501,1514,3.30373,-0.0087979,0.333073,1.01605
503,1512,3.30295,-0.00895624,0.333512,1.01576
505,1510,3.30332,-0.00886691,0.333071,1.01599
507,1508,3.30362,-0.00890221,0.333076,1.01598
509,1506,3.30337,-0.00950299,0.333507,1.0154
511,1504,3.30307,-0.00945123,0.33351,1.01546
513,1502,3.30327,-0.0095261,0.333971,1.01542
515,1500,3.303,-0.0100611,0.333977,1.01496
517,1498,3.30297,-0.0100757,0.333973,1.01492
519,1496,3.30308,-0.00989113,0.333608,1.01522
521,1494,3.30186,-0.0101316,0.334411,1.01473
523,1492,3.30427,-0.00768737,0.332843,1.01439
525,1490,3.30443,-0.00767375,0.332845,1.01439
527,1488,3.30415,-0.0076713,0.33284,1.01441
529,1486,3.30316,-0.0078319,0.333297,1.01413
531,1484,3.303808,-0.00825297,0.332838,1.01403
533,1482,3.30371,-0.0082939,0.333292,1.01387
535,1480,3.30405,-0.00819614,0.332858,1.0141
537,1478,3.30314,-0.00829506,0.333303,1.01388
539,1476,3.30263,-0.00907938,0.334194,1.01322
541,1474,3.3033,-0.0087119,0.333299,1.01363
543,1472,3.30336,-0.00881478,0.333287,1.01352
545,1470,3.30311,-0.00938584,0.333303,1.0132
547,1468,3.30268,-0.00958156,0.333764,1.01294
549,1466,3.3032,-0.0094464,0.333316,1.01318
551,1464,3.30284,-0.00952925,0.333755,1.01296
553,1462,3.3029,-0.00999807,0.333752,1.01268
555,1460,3.30204,-0.0102643,0.33429,1.01233
557,1458,3.30251,-0.0100508,0.333754,1.01264
559,1456,3.3028,-0.0100688,0.333829,1.01262
561,1454,3.30464,-0.00704958,0.332188,1.01267
563,1452,3.30352,-0.00783407,0.333063,1.0118
565,1450,3.30393,-0.0077014,0.332618,1.01204
567,1448,3.30413,-0.00774913,0.332634,1.01205
569,1446,3.30406,-0.00770659,0.332625,1.01207
571,1444,3.30354,-0.00834904,0.333072,1.01148
573,1442,3.30338,-0.00839555,0.333066,1.01123
575,1440,3.30357,-0.00821106,0.33306,1.01156
577,1438,3.30355,-0.00830219,0.33307,1.01151
579,1436,3.30293,-0.00834892,0.333067,1.01149
581,1434,3.30297,-0.00840788,0.333067,1.01144
583,1432,3.30321,-0.00889927,0.333062,1.01112
585,1430,3.30325,-0.00885601,0.333066,1.01115
587,1428,3.30308,-0.00881495,0.33306,1.01119
589,1426,3.30213,-0.00912237,0.333505,1.01082
591,1424,3.30258,-0.00958879,0.333514,1.01054
593,1422,3.30271,-0.00958123,0.333511,1.01054
595,1420,3.30291,-0.00943845,0.333062,1.0108
597,1418,3.3022,-0.00959067,0.33351,1.01053
599,1416,3.30219,-0.0101454,0.333505,1.01017
601,1414,3.30279,-0.0100993,0.333509,1.01021
603,1412,3.30276,-0.010019,0.33306,1.01041
605,1410,3.30211,-0.0102447,0.333502,1.01009
607,1408,3.30318,-0.00723891,0.332828,1.00978
609,1406,3.30421,-0.00775672,0.332485,1.00962
611,1404,3.30374,-0.00775626,0.332832,1.00947
613,1402,3.30372,-0.00776532,0.332393,1.00963
615,1400,3.3027,-0.00845999,0.333282,1.00886
617,1398,3.30343,-0.00835923,0.333275,1.00907
619,1396,3.3034,-0.00837195,0.332836,1.00907
621,1394,3.30336,-0.00886154,0.332822,1.00876
623,1392,3.30243,-0.00899607,0.333278,1.0085
625,1390,3.30306,-0.00890008,0.33282,1.00872
627,1388,3.30282,-0.00898404,0.333291,1.00855
629,1386,3.30311,-0.00886504,0.33283,1.00877
631,1384,3.30204,-0.0096115,0.333733,1.00799
633,1382,3.30231,-0.00961644,0.333285,1.00814
635,1380,3.30256,-0.00950998,0.333277,1.00821
637,1378,3.30289,-0.0101264,0.333292,1.00783
639,1376,3.30185,-0.0102649,0.333742,1.00761
641,1374,3.30187,-0.0101048,0.333283,1.00784
643,1372,3.30218,-0.0101043,0.333284,1.00785
645,1370,3.3039,-0.00773142,0.332607,1.00711
647,1368,3.30344,-0.00774195,0.332614,1.00713
649,1366,3.30303,-0.00775254,0.332605,1.00709
651,1364,3.30297,-0.00774977,0.332584,1.00704
653,1362,3.30343,-0.00780812,0.332581,1.007
655,1360,3.303,-0.00828525,0.332583,1.00669
657,1358,3.30256,-0.00849653,0.333031,1.00639
659,1356,3.3023,-0.00857873,0.333036,1.00635
661,1354,3.30329,-0.00833792,0.332592,1.0067
663,1352,3.30311,-0.00890981,0.332595,1.00636
665,1350,3.30248,-0.00899311,0.333619,1.00615
667,1348,3.30219,-0.00902933,0.333055,1.00614
669,1346,3.30263,-0.00955052,0.333047,1.00579
671,1344,3.30249,-0.00966795,0.333045,1.00571
673,1342,3.30227,-0.00959936,0.333042,1.00576
675,1340,3.30195,-0.00964722,0.333028,1.00566
677,1338,3.3023,-0.0096184,0.333043,1.00575
679,1336,3.30193,-0.0103017,0.333492,1.00513
681,1334,3.30203,-0.0101363,0.333041,1.00541
683,1332,3.30307,-0.00729263,0.332782,1.00496
685,1330,3.3028,-0.00788401,0.332823,1.00446
687,1328,3.30347,-0.00773956,0.332371,1.00471
689,1326,3.30319,-0.00781001,0.332378,1.00456
691,1324,3.30258,-0.00846344,0.332817,1.00405
693,1322,3.30237,-0.00854855,0.332809,1.004
695,1320,3.30316,-0.00833537,0.332444,1.00432
697,1318,3.3027,-0.00898737,0.332818,1.00376
699,1316,3.30213,-0.00913798,0.333261,1.00347
701,1314,3.30187,-0.00925531,0.33327,1.0034
703,1312,3.30252,-0.00901672,0.332817,1.00375
705,1310,3.30254,-0.00901369,0.332905,1.00371
707,1308,3.30226,-0.00964764,0.332815,1.00334
709,1306,3.3016,-0.00972774,0.333269,1.00337
711,1304,3.30217,-0.00964653,0.332808,1.00332
713,1302,3.30232,-0.00966329,0.332808,1.0033
715,1300,3.3016,-0.0102517,0.333243,1.00274
717,1298,3.30138,-0.0102537,0.333247,1.00272
719,1296,3.3012,-0.0103956,0.333249,1.00265
721,1294,3.3033,-0.00731126,0.332122,1.00252
723,1292,3.30322,-0.00789159,0.332585,1.00216
725,1290,3.30246,-0.00785068,0.332585,1.00205
727,1288,3.30262,-0.0085752,0.3326,1.00164
729,1286,3.30291,-0.00843011,0.332587,1.00171
731,1284,3.30277,-0.00842428,0.332589,1.00171
733,1282,3.30205,-0.00909427,0.333049,1.00114
735,1280,3.30187,-0.00912435,0.333035,1.00106
737,1278,3.30259,-0.00910256,0.332583,1.00126
739,1276,3.30253,-0.0090355,0.332578,1.00129
741,1274,3.30229,-0.00961885,0.332575,1.00092
743,1272,3.30151,-0.00968036,0.333123,1.0007
745,1270,3.30164,-0.009747,0.333025,0.999319
747,1268,3.30153,-0.0104041,0.333487,1.00013
749,1266,3.30164,-0.0102199,0.333032,1.0004
751,1264,3.3008,-0.0103852,0.333507,1.00016
753,1262,3.3027,-0.00791012,0.33237,0.99962
755,1260,3.30323,-0.00783181,0.332362,0.99969
757,1258,3.30298,-0.00786031,0.332367,0.999668
759,1256,3.30283,-0.00838062,0.332365,0.999325
761,1254,3.30188,-0.00853229,0.332818,0.999064
763,1252,3.30286,-0.00849438,0.332367,0.999264
765,1250,3.30278,-0.00848911,0.332351,0.999234
767,1248,3.30216,-0.00903916,0.332813,0.998756
769,1246,3.3014,-0.00919894,0.333274,0.998472
771,1244,3.30182,-0.00912509,0.332824,0.998698
773,1242,3.30177,-0.00971943,0.333281,0.998183
775,1240,3.30166,-0.00964317,0.332827,0.998392
777,1238,3.30103,-0.00974816,0.333294,0.998175
779,1236,3.30096,-0.0103571,0.333276,0.998021
781,1234,3.30132,-0.0102225,0.333284,0.997883
783,1232,3.30294,-0.00731879,0.332153,0.99759
785,1230,3.3022,-0.00795137,0.332607,0.997038
787,1228,3.30164,-0.00802546,0.332611,0.996993
789,1226,3.30249,-0.00787156,0.33214,0.997238
791,1224,3.30237,-0.00844869,0.332599,0.99672
793,1222,3.30246,-0.00836869,0.332149,0.996938
795,1220,3.30118,-0.00855519,0.333507,0.996472
797,1218,3.30196,-0.00854158,0.332593,0.996659
799,1216,3.3017,-0.00923018,0.333056,0.996066
801,1214,3.30189,-0.00910219,0.332598,0.996311
803,1212,3.3013,-0.00926236,0.333067,0.996074
805,1210,3.301,-0.00976863,0.333062,0.995747
807,1208,3.30163,-0.00965117,0.332607,0.995998
809,1206,3.301,-0.00978862,0.333052,0.995728
811,1204,3.30085,-0.0103808,0.333057,0.995382
813,1202,3.30048,-0.0104602,0.333124,0.995289
815,1200,3.3008,-0.0104182,0.333046,0.995321
817,1198,3.30277,-0.00738565,0.331901,0.995086
819,1196,3.30255,-0.00801018,0.331924,0.994752
821,1194,3.30171,-0.00809698,0.332372,0.994515
823,1192,3.30236,-0.00800118,0.331924,0.994762
825,1190,3.30223,-0.00860512,0.332384,0.992793
827,1188,3.30208,-0.00855191,0.332385,0.994279
829,1186,3.30115,-0.00931824,0.332837,0.993598
831,1184,3.30103,-0.00926693,0.332825,0.993613
833,1182,3.30182,-0.00915517,0.33238,0.99388
835,1180,3.30126,-0.00983935,0.332834,0.993283
837,1178,3.30106,-0.00977942,0.332835,0.993318
839,1176,3.30075,-0.00989913,0.332832,0.993234
841,1174,3.30108,-0.00982914,0.332836,0.993309
843,1172,3.30076,-0.0104807,0.333308,0.992772
845,1170,3.30112,-0.0096637,0.332536,0.992187
847,1168,3.30152,-0.00807013,0.332637,0.992007
849,1166,3.30197,-0.00799869,0.332181,0.992221
851,1164,3.3021,-0.00800196,0.332172,0.9922
853,1162,3.30193,-0.00854508,0.33217,0.991871
855,1160,3.30122,-0.00862798,0.332629,0.991638
857,1158,3.3009,-0.00870896,0.332615,0.991545
859,1156,3.30179,-0.0086008,0.332163,0.991815
861,1154,3.30123,-0.00934199,0.332627,0.991209
863,1152,3.30097,-0.00925266,0.332655,0.991239
865,1150,3.30075,-0.00938779,0.332615,0.99114
867,1148,3.30121,-0.00985588,0.332626,0.99089
869,1146,3.30118,-0.0098076,0.332624,0.991185
871,1144,3.30069,-0.0104755,0.333103,0.99039
873,1142,3.30015,-0.010513,0.333094,0.990323
875,1140,3.30028,-0.010525,0.33309,0.990335
877,1138,3.30219,-0.00746334,0.331954,0.990131
879,1136,3.30194,-0.0079307,0.331957,0.989832
881,1134,3.30106,-0.00811926,0.332416,0.989537
883,1132,3.30151,-0.0080835,0.331947,0.989706
885,1130,3.30146,-0.00863762,0.332406,0.989197
887,1128,3.30127,-0.00868008,0.33235,0.989202
889,1126,3.30101,-0.00876643,0.332413,0.989122
891,1124,3.30042,-0.00944277,0.332874,0.988541
893,1122,3.30121,-0.00922863,0.332411,0.988837
895,1120,3.30096,-0.00935981,0.332411,0.988754
897,1118,3.30024,-0.00988919,0.332873,0.988282
899,1116,3.3002,-0.00993178,0.332877,0.988263
901,1114,3.3004,-0.010521,0.332878,0.98791
903,1112,3.30028,-0.0104447,0.332886,0.987961
905,1110,3.30191,-0.00797581,0.33174,0.987386
907,1108,3.3012,-0.00815056,0.33221,0.98711
909,1106,3.30109,-0.00812753,0.332312,0.98714
911,1104,3.30144,-0.00807221,0.332212,0.987184
913,1102,3.3013,-0.00872616,0.332221,0.986794
915,1100,3.30034,-0.0088023,0.332698,0.986596
917,1098,3.30055,-0.00933551,0.332687,0.986261
919,1096,3.30122,-0.00921908,0.332323,0.986504
921,1094,3.30048,-0.00940788,0.33269,0.984792
923,1092,3.30045,-0.00984796,0.332676,0.985927
925,1090,3.30008,-0.0099619,0.332681,0.985864
927,1088,3.30004,-0.00999005,0.332678,0.984478
929,1086,3.29977,-0.0105715,0.33314,0.985321
931,1084,3.30003,-0.0104551,0.332669,0.985554
933,1082,3.30099,-0.00757736,0.332006,0.985047
935,1080,3.30115,-0.00812468,0.332106,0.984728
937,1078,3.30135,-0.008096,0.332011,0.984762
939,1076,3.30126,-0.00870576,0.332016,0.984395
941,1074,3.30046,-0.00880265,0.332496,0.984193
943,1072,3.30032,-0.00875172,0.332501,0.984243
945,1070,3.30066,-0.00933717,0.332481,0.983635
947,1068,3.30065,-0.00959221,0.332481,0.98369
949,1066,3.2998,-0.00995143,0.332943,0.983277
951,1064,3.29939,-0.00997531,0.332934,0.983247
953,1062,3.30007,-0.00995364,0.33247,0.983445
955,1060,3.29966,-0.010062,0.332945,0.983231
957,1058,3.29985,-0.01048,0.33247,0.983122
959,1056,3.2989,-0.010624,0.332923,0.982824
961,1054,3.29923,-0.0107104,0.332932,0.982813
963,1052,3.30136,-0.00818492,0.331805,0.982271
965,1050,3.3012,-0.00840407,0.331803,0.982141
967,1048,3.30041,-0.0087704,0.332263,0.981732
969,1046,3.30021,-0.00889157,0.331722,0.981664
971,1044,3.30039,-0.00876636,0.332261,0.981712
973,1042,3.30025,-0.00938202,0.332255,0.981336
975,1040,3.29937,-0.00948143,0.333184,0.981108
977,1038,3.29907,-0.00958172,0.33273,0.981051
979,1036,3.29997,-0.00940153,0.332253,0.981328
981,1034,3.29952,-0.0101024,0.332726,0.980741
983,1032,3.29915,-0.0101606,0.332728,0.980699
985,1030,3.2989,-0.0102497,0.332728,0.98064
987,1028,3.29943,-0.0106644,0.33273,0.980418
989,1026,3.30135,-0.00812539,0.331594,0.979864
991,1024,3.30086,-0.00812225,0.332173,0.979891
993,1022,3.29995,-0.00829777,0.332071,0.979591
995,1020,3.30038,-0.00873888,0.332059,0.979312
997,1018,3.30032,-0.00881908,0.332063,0.979259
999,1016,3.29998,-0.0087955,0.332066,0.979311
1001,1014,3.29934,-0.00951779,0.332525,0.978646
1003,1012,3.2993,-0.00953417,0.332528,0.978653
1005,1010,3.29957,-0.00956931,0.332609,0.978649
1007,1008,3.29923,-0.0100816,0.332535,0.978334
1009,1006,3.29853,-0.0101582,0.333006,0.978112
1011,1004,3.29865,-0.0108196,0.333005,0.977722
1013,1002,3.29888,-0.0106909,0.333016,0.977839
1015,1000,3.30059,-0.00848025,0.331871,0.977324
1017,998,3.29985,-0.0082666,0.332354,0.977042
1019,996,3.29979,-0.00837947,0.332353,0.976975
1021,994,3.30046,-0.00826724,0.331878,0.977193
1023,992,3.29965,-0.00886039,0.332913,0.976666
1025,990,3.29943,-0.00941588,0.33234,0.976314
1027,988,3.29874,-0.00954767,0.332819,0.976077
1029,986,3.29924,-0.00946927,0.332414,0.976285
1031,984,3.29919,-0.00945283,0.33234,0.976294
1033,982,3.29898,-0.0101158,0.332341,0.975891
1035,980,3.29824,-0.0102268,0.332815,0.975663
1037,978,3.29872,-0.0107772,0.332821,0.975342
1039,976,3.2986,-0.0107537,0.332821,0.975347
1041,974,3.30038,-0.00818068,0.332245,0.974822
1043,972,3.29949,-0.00824851,0.332149,0.974591
1045,970,3.29942,-0.00834879,0.332151,0.974546
1047,968,3.29964,-0.00892414,0.332145,0.974178
1049,966,3.3,-0.00881491,0.331674,0.974428
1051,964,3.29861,-0.00901879,0.332631,0.973979
1053,962,3.29873,-0.00959063,0.333195,0.97363
1055,960,3.29897,-0.00959898,0.332631,0.973634
1057,958,3.29875,-0.0102582,0.332634,0.973245
1059,956,3.29797,-0.0103176,0.333116,0.973054
1061,954,3.29789,-0.0108552,0.33311,0.972729
1063,952,3.29846,-0.0107521,0.333103,0.972963
1065,950,3.29985,-0.0082057,0.331972,0.972229
1067,948,3.29943,-0.00828928,0.331974,0.972158
1069,946,3.29919,-0.00835148,0.331965,0.972118
1071,944,3.29961,-0.00892546,0.331963,0.971773
1073,942,3.29951,-0.00891758,0.331969,0.971784
1075,940,3.29865,-0.00957155,0.332448,0.971219
1077,938,3.29835,-0.00961783,0.332455,0.971209
1079,936,3.29865,-0.00951534,0.333011,0.971268
1081,934,3.29868,-0.0101657,0.332447,0.970875
1083,932,3.29825,-0.0101947,0.332461,0.970884
1085,930,3.2976,-0.0109001,0.332936,0.97029
1087,928,3.29796,-0.0108932,0.332941,0.970313
1089,926,3.29987,-0.00836304,0.331805,0.969734
1091,924,3.29935,-0.0083039,0.331791,0.969752
1093,922,3.2985,-0.00916072,0.332278,0.969069
1095,920,3.29941,-0.00896792,0.331797,0.969358
1097,918,3.29875,-0.00910901,0.332278,0.969098
1099,916,3.29855,-0.00958008,0.332273,0.96857
1101,914,3.29782,-0.00973173,0.332755,0.968548
1103,912,3.29878,-0.00961072,0.332267,0.968788
1105,910,3.29822,-0.0102687,0.332753,0.968223
1107,908,3.29795,-0.0108509,0.332755,0.967893
1109,906,3.29694,-0.0110078,0.333238,0.967642
1111,904,3.29762,-0.0108884,0.332757,0.967868
1113,902,3.29885,-0.00840185,0.332091,0.967071
1115,900,3.29864,-0.00892577,0.33209,0.966781
1117,898,3.29831,-0.00868541,0.332091,0.966906
1119,896,3.29864,-0.00900499,0.332091,0.966717
1121,894,3.29833,-0.00962686,0.332575,0.966175
1123,892,3.29831,-0.00955311,0.332165,0.966407
1125,890,3.29711,-0.0103591,0.333056,0.965565
1127,888,3.29767,-0.0103177,0.332674,0.965762
1129,886,3.29758,-0.0103031,0.332572,0.965778
1131,884,3.29741,-0.0108661,0.332569,0.965433
1133,882,3.2986,-0.00785056,0.331833,0.965208
1135,880,3.29876,-0.00834254,0.331912,0.964668
1137,878,3.29852,-0.00841232,0.331913,0.964622
1139,876,3.29848,-0.00907445,0.332483,0.964229
1141,874,3.29761,-0.00920549,0.332405,0.963977
1143,872,3.29778,-0.00917364,0.332404,0.96402
1145,870,3.29792,-0.00977199,0.332388,0.963621
1147,868,3.29757,-0.0097671,0.332397,0.963668
1149,866,3.29683,-0.0104654,0.332417,0.963031
1151,864,3.2973,-0.0104636,0.332389,0.963471
1153,862,3.29673,-0.0104954,0.332876,0.963037
1155,860,3.29655,-0.0110899,0.332869,0.962684
1157,858,3.29614,-0.0111546,0.33287,0.962629
1159,856,3.29795,-0.00862186,0.332217,0.960355
1161,854,3.29821,-0.00856715,0.332223,0.961925
1163,852,3.29803,-0.00918222,0.332221,0.961565
1165,850,3.29748,-0.00923874,0.332218,0.961511
1167,848,3.29783,-0.00972186,0.332224,0.961246
1169,846,3.29767,-0.0097425,0.332222,0.961218
1171,844,3.29706,-0.0104236,0.332706,0.960654
1173,842,3.29641,-0.01052,0.332709,0.960824
1175,840,3.29681,-0.0110254,0.332693,0.960248
1177,838,3.29672,-0.0110587,0.332686,0.960223
1179,836,3.29802,-0.00846479,0.332032,0.95949
1181,834,3.29743,-0.00855871,0.332025,0.959394
1183,832,3.29766,-0.00856284,0.332026,0.959416
1185,830,3.29781,-0.0092325,0.332034,0.959021
1187,828,3.297232,-0.00989128,0.332635,0.958494
1189,826,3.29668,-0.00993686,0.332532,0.958462
1191,824,3.29691,-0.00986285,0.332529,0.958519
1193,822,3.29674,-0.0105727,0.332556,0.958098
1195,820,3.29609,-0.0111883,0.333021,0.957554
1197,818,3.29552,-0.0112747,0.333013,0.957475
1199,816,3.29849,-0.00785754,0.331837,0.957548
1201,814,3.29788,-0.00855082,0.331858,0.956961
1203,812,3.29759,-0.0085527,0.331859,0.956958
1205,810,3.29677,-0.00928618,0.332347,0.956351
1207,808,3.29743,-0.00915075,0.331841,0.956561
1209,806,3.29696,-0.00990898,0.33232,0.95622
1211,804,3.29645,-0.00996834,0.332353,0.955952
1213,802,3.29584,-0.0106739,0.332845,0.955381
1215,800,3.29661,-0.010483,0.332353,0.955669
1217,798,3.29587,-0.0112821,0.332854,0.955303
1219,796,3.29744,-0.00796207,0.331318,0.954854
1221,794,3.29692,-0.00866829,0.332191,0.954273
1223,792,3.2977,-0.0084736,0.331684,0.95453
1225,790,3.2969,-0.00926933,0.332187,0.953923
1227,788,3.29588,-0.00935264,0.332683,0.953688
1229,786,3.29597,-0.0100576,0.332688,0.953285
1231,784,3.29603,-0.0100742,0.332687,0.95327
1233,782,3.29586,-0.0106127,0.33268,0.952957
1235,780,3.29544,-0.0106968,0.332687,0.952916
1237,778,3.29566,-0.0112674,0.332631,0.952579
1239,776,3.29715,-0.00799525,0.332034,0.952216
1241,774,3.29693,-0.00856438,0.332035,0.951891
1243,772,3.29606,-0.00934605,0.332548,0.951284
1245,770,3.2963,-0.0093258,0.332536,0.951279
1247,768,3.2964,-0.0100167,0.332541,0.950881
1249,766,3.29588,-0.00998453,0.332538,0.950917
1251,764,3.29524,-0.0107041,0.333038,0.950301
1253,762,3.29589,-0.0105282,0.333004,0.95056
1255,760,3.29547,-0.0113118,0.333045,0.94996
1257,758,3.29504,-0.0113575,0.333035,0.949917
1259,756,3.29636,-0.00886313,0.332388,0.94909
1261,754,3.29701,-0.00862556,0.33149,0.949384
1263,752,3.2964,-0.00919837,0.332389,0.948921
1265,750,3.29556,-0.00997595,0.33289,0.948282
1267,748,3.29595,-0.00841398,0.332046,0.948056
1269,746,3.29571,-0.0101214,0.332905,0.948246
1271,744,3.29539,-0.0106489,0.332969,0.947739
1273,742,3.2944,-0.0113824,0.333399,0.947304
1275,740,3.29447,-0.0114245,0.333406,0.947296
1277,738,3.29654,-0.0086908,0.332244,0.946737
1279,736,3.29607,-0.00870102,0.332809,0.946728
1281,734,3.29536,-0.00945258,0.332746,0.946123
1283,732,3.29604,-0.00930297,0.332253,0.946395
1285,730,3.29557,-0.00996618,0.332741,0.945814
1287,728,3.29512,-0.0101115,0.332643,0.945732
1289,726,3.29484,-0.00923532,0.332401,0.944928
1291,724,3.29511,-0.0107418,0.332772,0.945439
1293,722,3.29499,-0.010107,0.332889,0.944472
1295,720,3.29548,-0.00878782,0.332619,0.944074
1297,718,3.29567,-0.00718546,0.331753,0.943836
1299,716,3.29633,-0.00734246,0.331239,0.943896
1301,714,3.29541,-0.00963783,0.332611,0.943598
1303,712,3.29508,-0.00880528,0.33226,0.94272
1305,710,3.29472,-0.0107986,0.333119,0.942752
1307,708,3.29452,-0.010866,0.333215,0.942703
1309,706,3.29457,-0.0113227,0.333118,0.942456
1311,704,3.29339,-0.0118424,0.333616,0.941938
1313,702,3.29578,-0.00884612,0.332473,0.941557
1315,700,3.29573,-0.00917552,0.332468,0.941369
1317,698,3.29536,-0.00806966,0.332119,0.940672
1319,696,3.29494,-0.00887272,0.332131,0.940237
1321,694,3.2946,-0.0103655,0.332981,0.94053
1323,692,3.29439,-0.0106935,0.332923,0.9403
1325,690,3.29338,-0.0108968,0.333472,0.939992
1327,688,3.2933,-0.0115716,0.333468,0.939599
1329,686,3.29539,-0.00825747,0.332315,0.939377
1331,684,3.29518,-0.00873126,0.332311,0.939118
1333,682,3.29422,-0.00899879,0.332818,0.938759
1335,680,3.2945,-0.00959327,0.332821,0.938426
1337,678,3.29487,-0.00946116,0.332309,0.93867
1339,676,3.29372,-0.0102618,0.333335,0.937876
1341,674,3.29341,-0.0104858,0.33334,0.937752
1343,672,3.29363,-0.0109373,0.333334,0.937499
1345,670,3.29351,-0.011527,0.333343,0.937179
1347,668,3.29295,-0.0100257,0.332992,0.936702
1349,666,3.29466,-0.00898942,0.332703,0.936315
1351,664,3.29467,-0.00890124,0.332685,0.936344
1353,662,3.29418,-0.00954425,0.332685,0.935961
1355,660,3.29379,-0.00965794,0.332685,0.93589
1357,658,3.29359,-0.0102005,0.333192,0.935404
1359,656,3.2934,-0.0109674,0.333186,0.934944
1361,654,3.29242,-0.0110837,0.33371,0.93472
1363,652,3.29242,-0.0117272,0.333704,0.934348
1365,650,3.29451,-0.00828224,0.332543,0.934151
1367,648,3.2944,-0.00890457,0.33254,0.933811
1369,646,3.29346,-0.00904532,0.333069,0.93357
1371,644,3.29381,-0.00969842,0.333082,0.933238
1373,642,3.29344,-0.0103653,0.333084,0.932869
1375,640,3.29339,-0.00919662,0.332734,0.932218
1377,638,3.29246,-0.011145,0.333621,0.932272
1379,636,3.29274,-0.011646,0.333595,0.931953
1381,634,3.29463,-0.00883227,0.332431,0.931395
1383,632,3.29343,-0.00896759,0.332947,0.93113
1385,630,3.29332,-0.00971505,0.332946,0.93071
1387,628,3.29342,-0.00967021,0.332957,0.930748
1389,626,3.29249,-0.0103422,0.333569,0.930195
1391,624,3.29167,-0.0111851,0.333997,0.929545
1393,622,3.29242,-0.0110262,0.333472,0.929832
1395,620,3.2939,-0.00826146,0.332305,0.929216
1397,618,3.293,-0.00908314,0.332826,0.928567
1399,616,3.29282,-0.00907954,0.332831,0.928576
1401,614,3.29266,-0.00981885,0.333356,0.927993
1403,612,3.29295,-0.0102527,0.33282,0.927917
1405,610,3.29202,-0.0103383,0.333351,0.927691
1407,608,3.29231,-0.0111134,0.33335,0.927261
1409,606,3.292,-0.0111032,0.333351,0.927274
1411,604,3.29124,-0.011821,0.334454,0.926676
1413,602,3.29317,-0.00839617,0.332696,0.926426
1415,600,3.29326,-0.00900169,0.332701,0.926107
1417,598,3.29263,-0.00968726,0.33323,0.925556
1419,596,3.29132,-0.009967,0.33376,0.925222
1421,594,3.2916,-0.0105258,0.333764,0.924697
1423,592,3.29138,-0.0112197,0.333746,0.924488
1425,590,3.29069,-0.0113044,0.333752,0.924677
1427,588,3.29041,-0.0120614,0.334278,0.923846
1429,586,3.29257,-0.00850613,0.333117,0.923686
1431,584,3.2921,-0.00922369,0.333121,0.923311
1433,582,3.29137,-0.00998387,0.333657,0.922712
1435,580,3.29163,-0.0105295,0.333648,0.922376
1437,578,3.29145,-0.0106623,0.33366,0.922356
1439,576,3.29115,-0.0111941,0.333654,0.92204
1441,574,3.29093,-0.0112979,0.333654,0.92197
1443,572,3.2904,-0.0120517,0.33419,0.921405
1445,570,3.29229,-0.00911138,0.333014,0.920865
1447,568,3.29118,-0.00932164,0.334138,0.920572
1449,566,3.29141,-0.00995356,0.333562,0.92024
1451,564,3.29132,-0.0105889,0.333551,0.919866
1453,562,3.29032,-0.0113896,0.334095,0.919274
1455,560,3.29005,-0.0114038,0.334086,0.91925
1457,558,3.29015,-0.0119575,0.334105,0.91897
1459,556,3.29143,-0.00929708,0.333457,0.916759
1461,554,3.29099,-0.00935575,0.333945,0.918053
1463,552,3.29135,-0.00993066,0.333453,0.917728
1465,550,3.29061,-0.0107603,0.333993,0.917105
1467,548,3.29022,-0.0106658,0.333988,0.917146
1469,546,3.28995,-0.0114464,0.333989,0.916703
1471,544,3.28939,-0.0121521,0.334527,0.916165
1473,542,3.29133,-0.00927876,0.333843,0.91558
1475,540,3.29027,-0.00941322,0.333895,0.915321
1477,538,3.29024,-0.01015,0.333906,0.914941
1479,536,3.29025,-0.0107553,0.333904,0.914615
1481,534,3.28995,-0.0113406,0.333906,0.914273
1483,532,3.28881,-0.0116236,0.334448,0.913964
1485,530,3.2891,-0.0121518,0.334442,0.913668
1487,528,3.29112,-0.00929138,0.33327,0.913059
1489,526,3.29064,-0.00933608,0.333275,0.913032
1491,524,3.28985,-0.0100752,0.333812,0.912451
1493,522,3.29017,-0.0107682,0.333815,0.912079
1495,520,3.28976,-0.0114515,0.333819,0.911712
1497,518,3.28867,-0.0115083,0.334352,0.911473
1499,516,3.28864,-0.0122134,0.334355,0.911098
1501,514,3.29075,-0.00865516,0.333241,0.910888
1503,512,3.29082,-0.00750085,0.332282,0.910356
1505,510,3.2895,-0.00879118,0.33337,0.909285
1507,508,3.28951,-0.0108014,0.333726,0.909522
1509,506,3.28907,-0.0114948,0.334278,0.908973
1511,504,3.28844,-0.0115024,0.334261,0.908949
1513,502,3.28797,-0.0116006,0.334244,0.90884
1515,500,3.28982,-0.00881869,0.333635,0.906658
1517,498,3.2898,-0.0095008,0.333627,0.907665
1519,496,3.28943,-0.0101186,0.334213,0.907338
1521,494,3.28807,-0.0111116,0.334731,0.906454
1523,492,3.28859,-0.0109729,0.334177,0.906697
1525,490,3.28846,-0.0115851,0.334174,0.906352
1527,488,3.2875,-0.0123356,0.334727,0.905776
1529,486,3.28893,-0.0097066,0.334101,0.904839
1531,484,3.28919,-0.0103046,0.334107,0.904527
1533,482,3.28879,-0.010231,0.334087,0.904516
1535,480,3.28834,-0.0110539,0.334085,0.9043
1537,478,3.28755,-0.0118934,0.334652,0.903446
1539,476,3.28767,-0.01181,0.334648,0.903513
1541,474,3.28972,-0.00888136,0.33348,0.90294
1543,472,3.28888,-0.00956465,0.334036,0.902388
1545,470,3.28781,-0.0104654,0.334589,0.901716
1547,468,3.28799,-0.0110803,0.334591,0.901391
1549,466,3.28777,-0.0110559,0.33458,0.901371
1551,464,3.28736,-0.0118338,0.334581,0.90096
1553,462,3.28637,-0.0126343,0.335132,0.90033
1555,460,3.28864,-0.00955256,0.33395,0.899787
1557,458,3.28842,-0.00968689,0.333948,0.899719
1559,456,3.28818,-0.0103377,0.333956,0.899389
1561,454,3.28655,-0.0112232,0.334605,0.89854
1563,452,3.28668,-0.0120035,0.335076,0.898143
1565,450,3.28695,-0.0107009,0.335117,0.897805
1567,448,3.28795,-0.00968695,0.334462,0.897026
1569,446,3.28778,-0.00790347,0.334367,0.896938
1571,444,3.28741,-0.0104717,0.334464,0.896595
1573,442,3.28774,-0.00927129,0.333909,0.896193
1575,440,3.28662,-0.0174532,0.334458,0.895606
1577,438,3.28626,-0.0180955,0.334463,0.895271
1579,436,3.28794,-0.00790573,0.333847,0.894352
1581,434,3.28846,-0.013307,0.332724,0.894575
1583,432,3.28767,-0.0122833,0.332716,0.893875
1585,430,3.28687,-0.0137727,0.333275,0.892915
1587,428,3.28621,-0.0136876,0.333274,0.892937
1589,426,3.28627,-0.0145147,0.333286,0.89251
1591,424,3.28858,-0.00791355,0.331534,0.891546
1593,422,3.28826,-0.00851384,0.331539,0.89123
1595,420,3.28702,-0.0112716,0.332667,0.890647
1597,418,3.28734,-0.00968573,0.331733,0.890328
1599,416,3.28638,-0.0104991,0.332677,0.889864
1601,414,3.28837,-0.00751009,0.3315,0.889255
1603,412,3.28806,-0.0134856,0.330556,0.888856
1605,410,3.2869,-0.0087294,0.33206,0.888409
1607,408,3.2877,-0.0141407,0.331506,0.88861
1609,406,3.28715,-0.013707,0.330918,0.887585
1611,404,3.28577,-0.0164833,0.33204,0.886999
1613,402,3.2853,-0.0165546,0.332042,0.886959
1615,400,3.28787,-0.0115982,0.330294,0.886324
1617,398,3.28824,-0.00860109,0.329183,0.885803
1619,396,3.28739,-0.00933948,0.330457,0.88511
1621,394,3.28606,-0.0121278,0.330854,0.88463
1623,392,3.28639,-0.0109065,0.330298,0.884228
1625,390,3.28815,-0.0152922,0.329115,0.883687
1627,388,3.28818,-0.0141496,0.328562,0.883239
1629,386,3.28617,-0.0169628,0.330231,0.882452
1631,384,3.28654,-0.0168555,0.329679,0.882698
1633,382,3.28658,-0.0138737,0.329117,0.881974
1635,380,3.28796,-0.0127692,0.328505,0.881431
1637,378,3.28751,-0.00978616,0.327943,0.880689
1639,376,3.28713,-0.0124751,0.328503,0.880347
1641,374,3.28754,-0.00929288,0.327384,0.879889
1643,372,3.28644,-0.0100704,0.327929,0.879298
1645,370,3.28551,-0.0109768,0.328487,0.878624
1647,368,3.2879,-0.00906811,0.327427,0.878697
1649,366,3.28796,-0.0153437,0.326759,0.878298
1651,364,3.28739,-0.0142206,0.326761,0.877656
1653,362,3.28572,-0.017048,0.327877,0.877052
1655,360,3.28559,-0.0177503,0.327877,0.876683
1657,358,3.28634,-0.0146158,0.32676,0.876211
1659,356,3.28858,-0.00973456,0.325032,0.875517
1661,354,3.28708,-0.0123294,0.326126,0.87501
1663,352,3.2861,-0.0133569,0.326697,0.874307
1665,350,3.28677,-0.0102241,0.32615,0.873818
1667,348,3.28657,-0.016588,0.325026,0.873154
1669,346,3.28752,-0.0154918,0.324963,0.872682
1671,344,3.28721,-0.00800853,0.32496,0.872873
1673,342,3.28707,-0.0162326,0.324961,0.872279
1675,340,3.28706,-0.0150384,0.324399,0.871815
1677,338,3.28649,-0.013822,0.324385,0.871202
1679,336,3.28729,-0.0129561,0.324327,0.870372
1681,334,3.28782,-0.0116868,0.323792,0.869997
1683,332,3.2876,-0.0106308,0.323228,0.869472
1685,330,3.28662,-0.0113426,0.323781,0.86893
1687,328,3.2862,-0.0102534,0.323214,0.868382
1689,326,3.28812,-0.0146627,0.322046,0.867877
1691,324,3.28729,-0.0155325,0.322599,0.867246
1693,322,3.28682,-0.0162527,0.322598,0.866874
1695,320,3.28582,-0.0170982,0.323155,0.866266
1697,318,3.28653,-0.0139638,0.322041,0.865739
1699,316,3.28876,-0.00906708,0.320326,0.865045
1701,314,3.28746,-0.0117027,0.321427,0.864582
1703,312,3.28636,-0.0126888,0.32198,0.864132
1705,310,3.28725,-0.011245,0.320873,0.863734
1707,308,3.28651,-0.0178419,0.320874,0.863025
1709,306,3.2885,-0.00717258,0.319709,0.862453
1711,304,3.2874,-0.00801679,0.320268,0.861854
1713,302,3.28732,-0.0143698,0.319715,0.861438
1715,300,3.28727,-0.0130846,0.319164,0.861014
1717,298,3.28616,-0.0159002,0.320264,0.860476
1719,296,3.28525,-0.0168241,0.320822,0.859826
1721,294,3.28777,-0.0117052,0.319099,0.859229
1723,292,3.28761,-0.0105371,0.318542,0.858735
1725,290,3.28664,-0.0113659,0.319091,0.858137
1727,288,3.28541,-0.0141514,0.320195,0.85759
1729,286,3.28636,-0.0127969,0.319085,0.857377
1731,284,3.28766,-0.0155197,0.31792,0.856501
1733,282,3.28644,-0.0163769,0.318473,0.855898
1735,280,3.28635,-0.00956325,0.318469,0.85545
1737,278,3.28639,-0.0159087,0.317916,0.855045
1739,276,3.28855,-0.0109803,0.316201,0.854331
1741,274,3.28761,-0.0117734,0.316754,0.853777
1743,272,3.28632,-0.014608,0.317857,0.853231
1745,270,3.28673,-0.0113843,0.316759,0.852758
1747,268,3.28678,-0.0101746,0.316207,0.852288
1749,266,3.28804,-0.00725989,0.315598,0.851453
1751,264,3.28743,-0.00995531,0.316637,0.85114
1753,262,3.28765,-0.00870622,0.315597,0.850708
1755,260,3.28662,-0.0151823,0.315592,0.850074
1757,258,3.28543,-0.0160441,0.316144,0.849471
1759,256,3.28718,-0.0150077,0.315534,0.84891
1761,254,3.28765,-0.0136656,0.314982,0.848512
1763,252,3.28679,-0.0126438,0.314978,0.847788
1765,250,3.28574,-0.0134591,0.315527,0.84719
1767,248,3.28527,-0.0162014,0.31608,0.846885
1769,246,3.28831,-0.00725998,0.313276,0.846062
1771,244,3.28736,-0.00876281,0.31383,0.845144
1773,242,3.28735,-0.00724451,0.31284,0.844732
1775,240,3.28652,-0.0080487,0.31339,0.844166
1777,238,3.2857,-0.0180314,0.314385,0.844203
1779,236,3.28791,-0.0136542,0.312666,0.843156
1781,234,3.28681,-0.0145876,0.313214,0.842504
1783,232,3.28658,-0.0153296,0.313211,0.842123
1785,230,3.28653,-0.0122411,0.312654,0.841352
1787,228,3.28573,-0.0149281,0.313205,0.841069
1789,226,3.2868,-0.0119375,0.312587,0.840229
1791,224,3.28694,-0.0126499,0.312587,0.839874
1793,222,3.28725,-0.00952262,0.311488,0.839294
1795,220,3.28597,-0.0102381,0.31203,0.838762
1797,218,3.28443,-0.0190066,0.312526,0.838077
1799,216,3.28701,-0.0138872,0.310912,0.83745
1801,214,3.28733,-0.0106794,0.309777,0.836873
1803,212,3.28607,-0.0152983,0.310873,0.836717
1805,210,3.28482,-0.0181607,0.311978,0.836199
1807,208,3.28771,-0.0110942,0.310274,0.835437
1809,206,3.28719,-0.00998141,0.309719,0.834758
1811,204,3.28614,-0.0115598,0.31026,0.833772
1813,202,3.28513,-0.0155735,0.311364,0.833932
1815,200,3.28601,-0.0103098,0.309715,0.833341
1817,198,3.28735,-0.0138346,0.308557,0.832061
1819,196,3.28629,-0.0158634,0.309105,0.832132
1821,194,3.28545,-0.017525,0.309648,0.831128
1823,192,3.28621,-0.0141701,0.308558,0.830652
1825,190,3.28547,-0.0149373,0.308557,0.830254
1827,188,3.28645,-0.0139258,0.308495,0.82952
1829,186,3.28664,-0.0127433,0.307943,0.829021
1831,184,3.28645,-0.00962395,0.307396,0.828259
1833,182,3.28565,-0.0123022,0.307945,0.82802
1835,180,3.28665,-0.00742112,0.306794,0.827043
1837,178,3.28653,-0.0158519,0.306792,0.826758
1839,176,3.28622,-0.0135615,0.305711,0.825558
1841,174,3.28561,-0.0162117,0.306794,0.82532
1843,172,3.28422,-0.0191469,0.307885,0.824776
1845,170,3.28672,-0.0139704,0.306182,0.824116
1847,168,3.28614,-0.0127814,0.306175,0.82344
1849,166,3.28586,-0.01158,0.305627,0.822942
1851,164,3.28455,-0.0144643,0.306716,0.82242
1853,162,3.28482,-0.013224,0.306168,0.821952
1855,160,3.28692,-0.00807878,0.304474,0.821278
1857,158,3.28576,-0.00888079,0.305017,0.820703
1859,156,3.28533,-0.0117402,0.305567,0.820375
1861,154,3.28604,-0.0162941,0.304001,0.819802
1863,152,3.2865,-0.0155882,0.304425,0.819023
1865,150,3.2863,-0.0109087,0.302846,0.817806
1867,148,3.28625,-0.0136768,0.303395,0.817546
1869,146,3.28638,-0.0100394,0.302304,0.81716
1871,144,3.28499,-0.0136086,0.303388,0.81631
1873,142,3.28547,-0.0121825,0.303801,0.815834
1875,140,3.28609,-0.00891525,0.302712,0.815277
1877,138,3.28544,-0.017528,0.302803,0.814923
1879,136,3.28421,-0.0183705,0.303247,0.814335
1881,134,3.28663,-0.0073302,0.302093,0.813695
1883,132,3.28646,-0.0139631,0.301551,0.81325
1885,130,3.28562,-0.0136358,0.301547,0.812398
1887,128,3.28442,-0.0145158,0.30209,0.81155
1889,126,3.28416,-0.0152704,0.301568,0.811198
1891,124,3.28705,-0.00807799,0.299871,0.810669
1893,122,3.28638,-0.00881561,0.299879,0.810077
1895,120,3.28443,-0.0117564,0.3015,0.809388
1897,118,3.28539,-0.00892538,0.299917,0.808522
1899,116,3.28664,-0.0156399,0.299813,0.808157
1901,114,3.28555,-0.0147783,0.299805,0.807311
1903,112,3.28445,-0.0098335,0.300891,0.806741
1905,110,3.28435,-0.0165243,0.300371,0.806297
1907,108,3.2849,-0.0133076,0.298763,0.805614
1909,106,3.28523,-0.0121572,0.299193,0.804999
1911,104,3.28517,-0.0129528,0.299189,0.804606
1913,102,3.28565,-0.00969469,0.298584,0.804006
1915,100,3.28422,-0.0104845,0.298643,0.803462
1917,98,3.28489,-0.00952763,0.298583,0.802699
1919,96,3.28632,-0.0141506,0.296448,0.802268
1921,94,3.28618,-0.0117318,0.295924,0.801114
1923,92,3.28448,-0.0149728,0.297,0.800477
1925,90,3.28341,-0.015937,0.297539,0.799847
1927,88,3.28613,-0.00856649,0.295311,0.799087
1929,86,3.2856,-0.00734536,0.294775,0.798585
1931,84,3.28496,-0.00814018,0.294775,0.798196
1933,82,3.28473,-0.00891502,0.294769,0.797811
1935,80,3.28625,-0.0125299,0.293627,0.796548
1937,78,3.28492,-0.0133793,0.294158,0.795973
1939,76,3.28384,-0.0143012,0.294695,0.795363
1941,74,3.28465,-0.0129311,0.293621,0.795084
1943,72,3.28624,-0.00777301,0.292481,0.79419
1945,70,3.28483,-0.00859711,0.293006,0.793606
1947,68,3.28426,-0.0118826,0.293553,0.793133
1949,66,3.28364,-0.0180528,0.293534,0.792981
1951,64,3.28304,-0.011298,0.294063,0.792196
1953,62,3.28392,-0.0103232,0.294001,0.791456
1955,60,3.28415,-0.00903676,0.293461,0.790979
1957,58,3.28338,-0.0178525,0.29347,0.790641
1959,56,3.28194,-0.0186688,0.293995,0.790061
1961,54,3.28407,-0.0159213,0.292867,0.789275
1963,52,3.28562,-0.0105425,0.290718,0.788494
1965,50,3.28331,-0.0137836,0.29232,0.78792
1967,48,3.28196,-0.0147267,0.292854,0.787292
1969,46,3.28211,-0.0134627,0.292318,0.78681
1971,44,3.28415,-0.0161904,0.290173,0.786147
1973,42,3.28329,-0.00901942,0.291174,0.785524
1975,40,3.28253,-0.0118476,0.291703,0.785262
1977,38,3.28229,-0.0185774,0.291163,0.784809
1979,36,3.28329,-0.0155389,0.290564,0.783991
1981,34,3.28265,-0.016342,0.290563,0.78359
1983,32,3.28292,-0.0150617,0.290027,0.783105
1985,30,3.2826,-0.0125982,0.289964,0.781904
1987,28,3.281,-0.0134648,0.290025,0.781329
1989,26,3.28303,-0.010275,0.288898,0.780738
1991,24,3.28282,-0.0171009,0.288365,0.78026
1993,22,3.28149,-0.0179019,0.288891,0.779714
1995,20,3.28117,-0.0106984,0.288885,0.77925
1997,18,3.2835,-0.0134444,0.287224,0.778593
1999,16,3.28254,-0.013018,0.287226,0.777536
2001,14,3.28094,-0.0160242,0.28881,0.777044
2003,12,3.28136,-0.0127099,0.287225,0.77621
2005,10,3.28117,-0.0114027,0.286694,0.775929
2007,8,3.28174,-0.0102459,0.286619,0.775278
2009,6,3.28152,-0.0110957,0.286617,0.77489
2011,4,3.28121,-0.017928,0.286175,0.77441
2012,3,3.28009,-0.0188238,0.286617,0.773831