File: hust_correlation_analysis/matrices/HUST_4-5_cycle_feature_matrix.csv
cycle_number,rul,voltage,current,capacity,charge_capacity
1,1563,3.31808,-0.00729108,0.312775,1.03813
3,1561,3.30592,-0.00801979,0.31786,1.03283
5,1559,3.30596,-0.00918817,0.317871,1.03215
7,1557,3.30751,-0.00680314,0.316667,1.0316
9,1555,3.30788,-0.00731039,0.31683,1.03148
11,1553,3.30785,-0.00795009,0.316237,1.03111
13,1551,3.30767,-0.00849473,0.316232,1.03078
15,1549,3.30767,-0.00908085,0.316239,1.03045
17,1547,3.30694,-0.00972857,0.316659,1.02988
19,1545,3.30877,-0.00735775,0.315462,1.02931
21,1543,3.30889,-0.00742322,0.31504,1.02947
23,1541,3.3087,-0.00792667,0.315038,1.02918
25,1539,3.30874,-0.00853504,0.315153,1.02881
27,1537,3.30859,-0.00855525,0.315046,1.02885
29,1535,3.30861,-0.00917285,0.315034,1.02844
31,1533,3.30822,-0.00921992,0.315033,1.02824
33,1531,3.30825,-0.00985626,0.31564,1.02807
35,1529,3.3084,-0.00975983,0.31461,1.02829
37,1527,3.30985,-0.00745641,0.313842,1.0275
39,1525,3.30949,-0.00751321,0.31384,1.02747
41,1523,3.30947,-0.00751744,0.31384,1.02746
43,1521,3.30799,-0.0140552,0.315185,1.02712
45,1519,3.30929,-0.00814906,0.313831,1.02708
47,1517,3.30873,-0.00877479,0.314258,1.02654
49,1515,3.31013,-0.00575466,0.313114,1.02653
51,1513,3.30904,-0.00941845,0.313835,1.02633
53,1511,3.30907,-0.0122323,0.314042,1.02641
55,1509,3.30975,-0.0069626,0.313535,1.02562
57,1507,3.30883,-0.00984476,0.313832,1.02606
59,1505,3.309,-0.0128508,0.314039,1.02603
61,1503,3.31003,-0.00761937,0.313062,1.02523
63,1501,3.30857,-0.0134287,0.314035,1.02593
65,1499,3.31037,-0.0104868,0.312842,1.02545
67,1497,3.3098,-0.0111535,0.31327,1.02489
69,1495,3.30956,-0.0111483,0.313267,1.02489
71,1493,3.30976,-0.0117183,0.313262,1.02453
73,1491,3.30958,-0.0117602,0.313267,1.02452
75,1489,3.3104,-0.0122996,0.31279,1.02422
77,1487,3.30958,-0.0122545,0.313191,1.02423
79,1485,3.30956,-0.0122053,0.313259,1.02426
81,1483,3.30977,-0.0128487,0.313257,1.02387
83,1481,3.30961,-0.0129011,0.313261,1.02383
85,1479,3.30942,-0.0129045,0.313263,1.02383
87,1477,3.30952,-0.0134445,0.313259,1.02351
89,1475,3.3092,-0.01345,0.313263,1.02352
91,1473,3.30894,-0.0134404,0.313259,1.02351
93,1471,3.31053,-0.0111803,0.312489,1.0227
95,1469,3.31072,-0.011117,0.312065,1.02291
97,1467,3.31083,-0.0111077,0.312075,1.02321
99,1465,3.31032,-0.0117351,0.312494,1.02239
101,1463,3.31047,-0.00869896,0.311858,1.0226
103,1461,3.30931,-0.014548,0.312787,1.02285
105,1459,3.31095,-0.0123331,0.312015,1.02203
107,1457,3.31022,-0.0123221,0.312489,1.02203
109,1455,3.31004,-0.0123385,0.312489,1.02202
111,1453,3.31003,-0.0123601,0.312484,1.02226
113,1451,3.31003,-0.0128958,0.312485,1.02168
115,1449,3.30986,-0.012885,0.312483,1.02169
117,1447,3.30967,-0.0129249,0.312575,1.02166
119,1445,3.30931,-0.0135801,0.312917,1.02112
121,1443,3.30958,-0.0134967,0.312486,1.02132
123,1441,3.30938,-0.0133779,0.312576,1.02139
125,1439,3.31096,-0.0111402,0.311715,1.02056
127,1437,3.31083,-0.0111841,0.311716,1.02053
129,1435,3.31073,-0.0111661,0.311715,1.02055
131,1433,3.31108,-0.0110776,0.311297,1.02077
133,1431,3.31086,-0.0117516,0.311715,1.0202
135,1429,3.30984,-0.00877504,0.311975,1.0202
137,1427,3.31046,-0.0118137,0.311723,1.02019
139,1425,3.31144,-0.00579649,0.31078,1.01999
141,1423,3.3105,-0.0123328,0.311957,1.01988
143,1421,3.31033,-0.0123347,0.311722,1.01987
145,1419,3.31035,-0.0122797,0.311711,1.01989
147,1417,3.31037,-0.0128579,0.311717,1.01955
149,1415,3.31023,-0.0128604,0.311715,1.01954
151,1413,3.31016,-0.0128585,0.311714,1.01955
153,1411,3.31026,-0.0128209,0.311139,1.01957
155,1409,3.30989,-0.0135264,0.312144,1.01898
157,1407,3.31017,-0.013455,0.311717,1.0192
159,1405,3.31003,-0.0134514,0.311717,1.01919
161,1403,3.31183,-0.0104699,0.310515,1.01898
163,1401,3.31141,-0.00808904,0.310731,1.01846
165,1399,3.31128,-0.00807907,0.310731,1.01872
167,1397,3.3112,-0.00810198,0.310741,1.01846
169,1395,3.31122,-0.00814281,0.310739,1.01843
171,1393,3.31115,-0.00869589,0.310735,1.01811
173,1391,3.31107,-0.00868262,0.310733,1.01812
175,1389,3.30983,-0.0146402,0.311672,1.01834
177,1387,3.31112,-0.00866295,0.310734,1.01811
179,1385,3.31071,-0.00931324,0.311158,1.01757
181,1383,3.31089,-0.00923953,0.310741,1.0178
183,1381,3.31153,-0.0122099,0.310478,1.0178
185,1379,3.31061,-0.00928064,0.310655,1.01776
187,1377,3.31047,-0.00994117,0.311158,1.01722
189,1375,3.31018,-0.00994934,0.311162,1.0172
191,1373,3.30992,-0.00995316,0.311159,1.0172
193,1371,3.30978,-0.0100624,0.311279,1.01711
195,1369,3.31173,-0.00705555,0.309962,1.01692
197,1367,3.31177,-0.0075714,0.309968,1.01662
199,1365,3.31172,-0.00755485,0.310085,1.01663
201,1363,3.31077,-0.013532,0.310895,1.01683
203,1361,3.31065,-0.0135481,0.310902,1.01684
205,1359,3.3117,-0.00757322,0.309961,1.01661
207,1357,3.31077,-0.0141597,0.311017,1.01646
209,1355,3.31154,-0.00814424,0.309963,1.01627
211,1353,3.31141,-0.00818003,0.309962,1.01625
213,1351,3.31104,-0.00822605,0.310383,1.01603
215,1349,3.31098,-0.00886595,0.310393,1.01567
217,1347,3.31087,-0.0088158,0.310381,1.01569
219,1345,3.30969,-0.0148659,0.31132,1.01587
221,1343,3.31105,-0.0087752,0.309963,1.01589
223,1341,3.3113,-0.0117002,0.310177,1.01593
225,1339,3.31146,-0.0124105,0.310122,1.01531
227,1337,3.31139,-0.0124097,0.310124,1.01534
229,1335,3.31064,-0.0124961,0.310599,1.01527
231,1333,3.31139,-0.00651399,0.309656,1.01504
233,1331,3.31025,-0.00941766,0.310385,1.01532
235,1329,3.31087,-0.0125219,0.310124,1.01526
237,1327,3.31005,-0.0125702,0.310592,1.0152
239,1325,3.31029,-0.0132539,0.310597,1.0148
241,1323,3.30996,-0.0133011,0.310007,1.01476
243,1321,3.31098,-0.00714967,0.309658,1.01466
245,1319,3.31116,-0.0071154,0.30965,1.01467
247,1317,3.31024,-0.0137181,0.310597,1.01436
249,1315,3.31007,-0.0137037,0.310822,1.01451
251,1313,3.30996,-0.0137166,0.310589,1.01451
253,1311,3.30984,-0.0137272,0.310594,1.01452
255,1309,3.31168,-0.010758,0.309398,1.01429
257,1307,3.31069,-0.0143342,0.310116,1.01414
259,1305,3.31159,-0.0112905,0.309399,1.01396
261,1303,3.31143,-0.011321,0.309401,1.01395
263,1301,3.31123,-0.0119522,0.309937,1.01338
265,1299,3.31153,-0.0118574,0.309395,1.0122
267,1297,3.31021,-0.0148767,0.310118,1.01382
269,1295,3.31148,-0.0118819,0.309625,1.0136
271,1293,3.31128,-0.0124876,0.309817,1.01307
273,1291,3.31209,-0.0124566,0.308924,1.01327
275,1289,3.31138,-0.0124515,0.309396,1.01326
277,1287,3.3111,-0.0124165,0.309394,1.0133
279,1285,3.31102,-0.0124311,0.309393,1.01328
281,1283,3.31091,-0.0131102,0.309812,1.01267
283,1281,3.3107,-0.0131392,0.309821,1.0127
285,1279,3.31056,-0.0130646,0.309819,1.01275
287,1277,3.31137,-0.0131202,0.309345,1.01271
289,1275,3.31066,-0.0136475,0.309816,1.01238
291,1273,3.31062,-0.0136794,0.30982,1.01236
293,1271,3.31049,-0.0136683,0.309819,1.01237
295,1269,3.31035,-0.01366,0.309813,1.01237
297,1267,3.31211,-0.0106739,0.308614,1.01213
299,1265,3.31216,-0.0113218,0.308621,1.01175
301,1263,3.31202,-0.0112381,0.308607,1.01178
303,1261,3.31139,-0.0114162,0.309046,1.01153
305,1259,3.31144,-0.0114381,0.309044,1.01151
307,1257,3.31029,-0.0149642,0.30977,1.01143
309,1255,3.3105,-0.00893153,0.309298,1.01121
311,1253,3.31175,-0.0118386,0.308626,1.01146
313,1251,3.31189,-0.0117997,0.309213,1.01148
315,1249,3.31233,-0.00648667,0.308104,1.01066
317,1247,3.31131,-0.012504,0.30904,1.01087
319,1245,3.31121,-0.0125534,0.309051,1.01087
321,1243,3.31104,-0.0125204,0.309048,1.01089
323,1241,3.31114,-0.0130884,0.309041,1.01052
325,1239,3.31058,-0.0132621,0.309474,1.01026
327,1237,3.31105,-0.0132377,0.308999,1.00884
329,1235,3.3107,-0.0131433,0.309049,1.01051
331,1233,3.31044,-0.013767,0.309466,1.00996
333,1231,3.31079,-0.0136483,0.309041,1.0102
335,1229,3.31139,-0.00767365,0.308483,1.01004
337,1227,3.31228,-0.0112564,0.308278,1.00945
339,1225,3.31215,-0.0113085,0.308274,1.00943
341,1223,3.31193,-0.0113242,0.3081,1.00939
343,1221,3.31068,-0.0143845,0.309001,1.00962
345,1219,3.31186,-0.0113142,0.308269,1.0094
347,1217,3.31096,-0.00892542,0.308525,1.00903
349,1215,3.31161,-0.011951,0.308271,1.00902
351,1213,3.3115,-0.0119663,0.308276,1.00902
353,1211,3.31168,-0.0119838,0.308868,1.00902
355,1209,3.31176,-0.0123975,0.308268,1.00875
357,1207,3.31167,-0.0124258,0.308273,1.00876
359,1205,3.31251,-0.00644187,0.307329,1.00851
361,1203,3.31159,-0.0124715,0.30827,1.00873
363,1201,3.31184,-0.0131213,0.308229,1.0082
365,1199,3.31079,-0.0100955,0.308482,1.00818
367,1197,3.31086,-0.0130884,0.308813,1.00819
369,1195,3.31065,-0.0131825,0.308702,1.00815
371,1193,3.3108,-0.0138273,0.308697,1.00773
373,1191,3.31241,-0.00772301,0.307284,1.00758
375,1189,3.31155,-0.0137103,0.308226,1.00783
377,1187,3.31196,-0.00767121,0.307753,1.00761
379,1185,3.31199,-0.00819777,0.307753,1.00729
381,1183,3.31256,-0.0112502,0.307494,1.00726
383,1181,3.31236,-0.0112179,0.307504,1.0073
385,1179,3.31251,-0.0112562,0.307501,1.00725
387,1177,3.31204,-0.011931,0.307925,1.0067
389,1175,3.31053,-0.0149948,0.308649,1.00667
391,1173,3.3116,-0.012013,0.307927,1.00663
393,1171,3.31212,-0.0118926,0.307496,1.00687
395,1169,3.31168,-0.0125344,0.308516,1.00633
397,1167,3.31237,-0.0125692,0.307455,1.00632
399,1165,3.31152,-0.00952537,0.307703,1.00631
401,1163,3.31284,-0.00703571,0.306981,1.00579
403,1161,3.31264,-0.00704138,0.306984,1.00578
405,1159,3.31132,-0.0100355,0.307705,1.00604
407,1157,3.31216,-0.0132526,0.307458,1.00592
409,1155,3.31244,-0.00759445,0.306977,1.00545
411,1153,3.31129,-0.0136339,0.307923,1.00569
413,1151,3.31197,-0.0136516,0.307539,1.0057
415,1149,3.31221,-0.00759454,0.306982,1.00547
417,1147,3.31306,-0.00819858,0.306506,1.00509
419,1145,3.31282,-0.00825217,0.306512,1.00507
421,1143,3.31282,-0.011256,0.307318,1.00508
423,1141,3.31163,-0.0143051,0.307457,1.00529
425,1139,3.31232,-0.00892046,0.306934,1.0045
427,1137,3.31219,-0.00890426,0.306931,1.00451
429,1135,3.31217,-0.0088829,0.306931,1.00454
431,1133,3.31289,-0.0119038,0.30668,1.00454
433,1131,3.31326,-0.00638882,0.3062,1.00396
435,1129,3.31275,-0.0125126,0.306682,1.00417
437,1127,3.31299,-0.00646228,0.306202,1.00393
439,1125,3.31282,-0.00648788,0.306203,1.00391
441,1123,3.31267,-0.00647096,0.306208,1.00394
443,1121,3.31165,-0.0126649,0.307155,1.00434
445,1119,3.31141,-0.0101552,0.306916,1.00375
447,1117,3.31235,-0.0132474,0.306686,1.00374
449,1115,3.3113,-0.0101564,0.306934,1.00378
451,1113,3.3129,-0.00775967,0.306158,1.00298
453,1111,3.31317,-0.00770664,0.305732,1.0032
455,1109,3.31133,-0.0137893,0.307154,1.00342
457,1107,3.31227,-0.00770491,0.306204,1.0032
459,1105,3.31298,-0.01075,0.305958,1.00319
461,1103,3.31245,-0.0114951,0.306386,1.00258
463,1101,3.31124,-0.0145336,0.307108,1.0028
465,1099,3.31149,-0.014421,0.30668,1.00303
467,1097,3.31161,-0.00861678,0.306628,1.00247
469,1095,3.31247,-0.0120878,0.306384,1.00222
471,1093,3.31232,-0.00897135,0.306153,1.00226
473,1091,3.31103,-0.0150648,0.307111,1.0025
475,1089,3.31234,-0.00954953,0.306156,1.00193
477,1087,3.31203,-0.00957905,0.306169,1.00193
479,1085,3.31182,-0.00967497,0.306157,1.00185
481,1083,3.31208,-0.0126271,0.306374,1.00215
483,1081,3.31305,-0.00710856,0.305424,1.00132
485,1079,3.31201,-0.013203,0.306377,1.00155
487,1077,3.3125,-0.0132389,0.305913,1.00153
489,1075,3.31178,-0.0132156,0.306375,1.00154
491,1073,3.31171,-0.0137878,0.306373,1.00119
493,1071,3.31116,-0.0138953,0.306611,1.00097
495,1069,3.31244,-0.00771428,0.306017,1.00098
497,1067,3.31282,-0.00837672,0.305377,1.00041
499,1065,3.31288,-0.00830065,0.30538,1.00048
501,1063,3.31176,-0.0144096,0.306333,1.0007
503,1061,3.31228,-0.00890566,0.305972,1.00011
505,1059,3.3127,-0.00896841,0.305379,1.00006
507,1057,3.31182,-0.00898088,0.305849,1.00005
509,1055,3.31162,-0.00896454,0.305848,1.00006
511,1053,3.31221,-0.0120923,0.305604,1
513,1051,3.31234,-0.0127089,0.305597,0.999626
515,1049,3.31235,-0.012683,0.3056,0.999661
517,1047,3.31229,-0.0126596,0.305805,0.999662
519,1045,3.31341,-0.00713261,0.30465,0.999359
521,1043,3.31241,-0.0132324,0.305602,0.999344
523,1041,3.31232,-0.0132019,0.305601,0.999362
525,1039,3.31328,-0.00704432,0.304646,0.999169
527,1037,3.31269,-0.00773575,0.305078,0.998591
529,1035,3.31293,-0.00771407,0.304651,0.998765
531,1033,3.31287,-0.00773553,0.30465,0.998753
533,1031,3.31362,-0.0107706,0.304406,0.998781
535,1029,3.31322,-0.0114436,0.304833,0.998216
537,1027,3.31276,-0.00823152,0.304644,0.998452
539,1025,3.31212,-0.00839184,0.305077,0.998206
541,1023,3.31288,-0.0115134,0.304829,0.998152
543,1021,3.31284,-0.00895661,0.304608,0.997882
545,1019,3.31293,-0.00893203,0.304608,0.9979
547,1017,3.31344,-0.012605,0.304789,0.997346
549,1015,3.31255,-0.00952496,0.30503,0.997369
551,1013,3.31276,-0.00949878,0.304608,0.997557
553,1011,3.31243,-0.0101248,0.305037,0.997039
555,1009,3.31228,-0.0101307,0.305038,0.997015
557,1007,3.31201,-0.0101529,0.305027,0.997228
559,1005,3.31385,-0.00709532,0.303839,0.996787
561,1003,3.31353,-0.00775769,0.304265,0.996225
563,1001,3.3128,-0.0138051,0.304791,0.996654
565,999,3.31281,-0.0138909,0.304787,0.996625
567,997,3.31344,-0.0083774,0.304271,0.99586
569,995,3.31307,-0.00838393,0.304261,0.995845
571,993,3.31315,-0.00836025,0.304266,0.995869
573,991,3.31331,-0.00833932,0.303838,0.996052
575,989,3.31307,-0.00895806,0.304275,0.994089
577,987,3.31294,-0.00890319,0.304263,0.995565
579,985,3.31341,-0.00886104,0.30384,0.995774
581,983,3.31279,-0.00947715,0.304262,0.993815
583,981,3.31261,-0.0095881,0.304269,0.995156
585,979,3.31265,-0.00961866,0.304274,0.995158
587,977,3.31253,-0.0101442,0.304268,0.994822
589,975,3.31247,-0.0101426,0.304495,0.994836
591,973,3.31432,-0.00711419,0.303069,0.994599
593,971,3.31377,-0.00778769,0.303725,0.994044
595,969,3.31409,-0.00765919,0.303069,0.994273
597,967,3.31341,-0.00781049,0.303505,0.994024
599,965,3.31365,-0.00838547,0.303497,0.993898
601,963,3.31339,-0.00838245,0.303496,0.993669
603,961,3.31344,-0.00837702,0.303504,0.993691
605,959,3.31349,-0.00899043,0.3035,0.99311
607,957,3.31325,-0.00900351,0.303497,0.993308
609,955,3.31306,-0.00900961,0.303502,0.993308
611,953,3.31293,-0.00907431,0.3035,0.993269
613,951,3.31288,-0.00964584,0.3035,0.992932
615,949,3.31284,-0.00964416,0.303496,0.992932
617,947,3.31282,-0.00964834,0.303502,0.992933
619,945,3.31288,-0.0102102,0.303505,0.992601
621,943,3.3126,-0.0101706,0.303493,0.992594
623,941,3.31388,-0.00723447,0.302724,0.992103
625,939,3.31379,-0.00789389,0.302727,0.99174
627,937,3.31371,-0.00783476,0.302725,0.991789
629,935,3.31383,-0.0077964,0.303253,0.991803
631,933,3.31378,-0.0084258,0.302719,0.991417
633,931,3.31351,-0.00845332,0.302725,0.991398
635,929,3.31343,-0.00843127,0.302726,0.991409
637,927,3.31287,-0.00920915,0.303146,0.990767
639,925,3.31319,-0.00910916,0.302723,0.99101
641,923,3.31267,-0.00911256,0.303229,0.99084
643,921,3.31287,-0.00970428,0.303143,0.990481
645,919,3.31282,-0.00968268,0.303145,0.990498
647,917,3.3125,-0.0102568,0.303143,0.990144
649,915,3.31188,-0.0103986,0.304168,0.9899
651,913,3.31422,-0.00726538,0.301949,0.989899
653,911,3.31427,-0.00775941,0.301945,0.989577
655,909,3.31408,-0.0077941,0.301945,0.989556
657,907,3.31378,-0.00843571,0.302372,0.989009
659,905,3.31356,-0.00839075,0.302367,0.989035
661,903,3.31321,-0.00846628,0.30237,0.988994
663,901,3.31343,-0.00909256,0.302376,0.987136
665,899,3.31321,-0.00911279,0.302377,0.98863
667,897,3.31334,-0.00903699,0.30237,0.988656
669,895,3.31313,-0.00962973,0.30237,0.988288
671,893,3.31294,-0.00963537,0.302374,0.988299
673,891,3.31259,-0.0103574,0.302804,0.987708
675,889,3.31241,-0.010336,0.3028,0.987708
677,887,3.31428,-0.00720945,0.301605,0.987529
679,885,3.31422,-0.00779252,0.301604,0.987173
681,883,3.31397,-0.00782075,0.301598,0.98715
683,881,3.31402,-0.00837234,0.301592,0.986815
685,879,3.31377,-0.00844153,0.301681,0.986789
687,877,3.3135,-0.00850934,0.3016,0.986753
689,875,3.31374,-0.00904408,0.301591,0.986401
691,873,3.31349,-0.00900281,0.301593,0.986439
693,871,3.31343,-0.00907347,0.30159,0.986389
695,869,3.31292,-0.00981561,0.302023,0.985782
697,867,3.31282,-0.00982914,0.302025,0.985782
699,865,3.31277,-0.0103591,0.302031,0.985494
701,863,3.3127,-0.0102664,0.302025,0.985518
703,861,3.31412,-0.00797471,0.301372,0.984662
705,859,3.31438,-0.0078347,0.30082,0.9849
707,857,3.31384,-0.00799973,0.301261,0.98467
709,855,3.31369,-0.00855355,0.301251,0.984323
711,853,3.31352,-0.00860404,0.301254,0.9843
713,851,3.31368,-0.00915025,0.30125,0.983962
715,849,3.31355,-0.00916708,0.301261,0.983975
717,847,3.31309,-0.00983219,0.301809,0.983418
719,845,3.3128,-0.0098952,0.30169,0.983372
721,843,3.31312,-0.0097624,0.301252,0.983613
723,841,3.31275,-0.0103833,0.301683,0.983067
725,839,3.31496,-0.00712334,0.30005,0.983105
727,837,3.31445,-0.00787763,0.300489,0.982325
729,835,3.31418,-0.00788603,0.300474,0.982454
731,833,3.31382,-0.00860868,0.300901,0.981871
733,831,3.31298,-0.0147711,0.301443,0.982305
735,829,3.31389,-0.00920104,0.300903,0.981525
737,827,3.31339,-0.00920041,0.3009,0.98152
739,825,3.31323,-0.00923614,0.300904,0.981493
741,823,3.31307,-0.00989109,0.300909,0.981119
743,821,3.3131,-0.0098304,0.300902,0.981144
745,819,3.31302,-0.0103697,0.300904,0.980829
747,817,3.31281,-0.0104469,0.300899,0.980787
749,815,3.31433,-0.00793474,0.300132,0.980036
751,813,3.31396,-0.00802251,0.300253,0.979984
753,811,3.31393,-0.00807527,0.300136,0.979953
755,809,3.31394,-0.00860045,0.300126,0.979618
757,807,3.31379,-0.00863648,0.300128,0.979602
759,805,3.31318,-0.00929036,0.300563,0.979053
761,803,3.313,-0.0093697,0.30056,0.979205
763,801,3.31296,-0.00996038,0.300566,0.978654
765,799,3.31298,-0.00988852,0.30057,0.978717
767,797,3.31301,-0.0104224,0.300567,0.978391
769,795,3.31475,-0.00725543,0.299355,0.978175
771,793,3.31399,-0.00800573,0.299787,0.977549
773,791,3.31429,-0.00796629,0.29935,0.97774
775,789,3.31396,-0.00857374,0.29978,0.977215
777,787,3.31373,-0.00865114,0.299781,0.977185
779,785,3.31363,-0.009266,0.299782,0.9768
781,783,3.31329,-0.00927057,0.299786,0.976816
783,781,3.31415,-0.0130733,0.299552,0.976422
785,779,3.31443,-0.00663937,0.29904,0.976253
787,777,3.31278,-0.0106025,0.300212,0.975847
789,775,3.31259,-0.0104564,0.300215,0.97595
791,773,3.31443,-0.00796116,0.299004,0.975317
793,771,3.31441,-0.00797965,0.299013,0.975338
795,769,3.31399,-0.00863769,0.299439,0.974762
797,767,3.3143,-0.00856682,0.299007,0.974982
799,765,3.3129,-0.00922429,0.299903,0.974397
801,763,3.31334,-0.00927104,0.299441,0.974395
803,761,3.3135,-0.00986809,0.299442,0.974048
805,759,3.31333,-0.00980823,0.299436,0.974073
807,757,3.31284,-0.0105782,0.299872,0.973455
809,755,3.31247,-0.01055,0.299869,0.97346
811,753,3.3145,-0.00801471,0.298665,0.972875
813,751,3.31444,-0.00789866,0.298667,0.972951
815,749,3.31445,-0.00852034,0.298663,0.972585
817,747,3.31387,-0.00863819,0.299101,0.972335
819,745,3.31364,-0.00929094,0.299097,0.971955
821,743,3.31363,-0.00927446,0.299102,0.971982
823,741,3.31353,-0.00984937,0.299102,0.971624
825,739,3.31332,-0.00981781,0.299096,0.97164
827,737,3.31254,-0.010609,0.299537,0.971019
829,735,3.31489,-0.00738098,0.297895,0.970985
831,733,3.31338,-0.0143874,0.299525,0.970675
833,731,3.31426,-0.00799819,0.298325,0.970462
835,729,3.31352,-0.00870712,0.298768,0.969887
837,727,3.31375,-0.00860892,0.298323,0.97009
839,725,3.31371,-0.00925306,0.298325,0.969711
841,723,3.31352,-0.00985241,0.298755,0.969193
843,721,3.31319,-0.00988739,0.298764,0.969168
845,719,3.31246,-0.0106677,0.299191,0.96854
847,717,3.3128,-0.0106045,0.298763,0.968749
849,715,3.31416,-0.00809162,0.297986,0.967967
851,713,3.31392,-0.00804359,0.297992,0.968022
853,711,3.3138,-0.00873723,0.297992,0.967611
855,709,3.31368,-0.00877802,0.297994,0.967591
857,707,3.31364,-0.00935858,0.297988,0.967243
859,705,3.31334,-0.00935503,0.297986,0.967254
861,703,3.31273,-0.0100919,0.298421,0.966629
863,701,3.31254,-0.0101617,0.298425,0.966605
865,699,3.31258,-0.0106978,0.298423,0.966278
867,697,3.31406,-0.00817749,0.297661,0.965516
869,695,3.3136,-0.00828788,0.297658,0.965433
871,693,3.3138,-0.00884284,0.297654,0.965123
873,691,3.31368,-0.00879592,0.297658,0.965155
875,689,3.31291,-0.00949651,0.298097,0.96458
877,687,3.31265,-0.00956896,0.298096,0.964534
879,685,3.31258,-0.0101792,0.298092,0.964159
881,683,3.31249,-0.0101198,0.298094,0.964213
883,681,3.31226,-0.0107872,0.298092,0.963816
885,679,3.31363,-0.00823976,0.297322,0.963027
887,677,3.31387,-0.00815967,0.296881,0.963236
889,675,3.31359,-0.00886473,0.297328,0.962674
891,673,3.31339,-0.00885783,0.297323,0.962677
893,671,3.3132,-0.00934038,0.297317,0.962381
895,669,3.31265,-0.0100595,0.297754,0.961798
897,667,3.3125,-0.0101406,0.297761,0.961751
899,665,3.31242,-0.0107582,0.297759,0.961398
901,663,3.31411,-0.00749601,0.296542,0.961176
903,661,3.31399,-0.00820712,0.296552,0.960776
905,659,3.31391,-0.00810822,0.296749,0.960818
907,657,3.31327,-0.00892481,0.296986,0.960179
909,655,3.31311,-0.00952227,0.296982,0.959825
911,653,3.31293,-0.00956709,0.296988,0.959818
913,651,3.31243,-0.0101247,0.297428,0.959326
915,649,3.31233,-0.0102825,0.297428,0.959236
917,647,3.3142,-0.00757305,0.296822,0.958693
919,645,3.31363,-0.00826479,0.29666,0.958137
921,643,3.31397,-0.00818081,0.296217,0.958358
923,641,3.31393,-0.00878949,0.296208,0.95799
925,639,3.31324,-0.00948979,0.297261,0.957416
927,637,3.31286,-0.00954143,0.296653,0.957385
929,635,3.31289,-0.0101479,0.296653,0.957017
931,633,3.31235,-0.0108461,0.29709,0.956445
933,631,3.314,-0.00759275,0.296479,0.956226
935,629,3.31337,-0.00831919,0.296315,0.955619
937,627,3.31339,-0.00896333,0.296318,0.955251
939,625,3.31199,-0.0155835,0.297322,0.955438
941,623,3.31293,-0.00954753,0.296315,0.954904
943,621,3.31227,-0.0102699,0.296762,0.95433
945,619,3.31246,-0.0102769,0.296321,0.954491
947,617,3.31205,-0.0110064,0.296767,0.953904
949,615,3.31348,-0.00832116,0.295993,0.953175
951,613,3.31315,-0.00837721,0.295993,0.95314
953,611,3.313,-0.0089901,0.295987,0.952788
955,609,3.31261,-0.00968649,0.29644,0.952218
957,607,3.31266,-0.00955688,0.295986,0.952457
959,605,3.31192,-0.0103757,0.296448,0.951843
961,603,3.31185,-0.0109836,0.296436,0.951466
963,601,3.31372,-0.00767266,0.295225,0.951268
965,599,3.31322,-0.00835418,0.295662,0.950696
967,597,3.31292,-0.00890963,0.295666,0.950373
969,595,3.3123,-0.00975592,0.296118,0.949731
971,593,3.31226,-0.0096858,0.296113,0.949768
973,591,3.31203,-0.0103307,0.296056,0.9494
975,589,3.31131,-0.0110298,0.296567,0.948845
977,587,3.31287,-0.00781204,0.29535,0.948572
979,585,3.31291,-0.00837016,0.295347,0.948251
981,583,3.31274,-0.00901409,0.29534,0.947854
983,581,3.31204,-0.00978618,0.295793,0.947249
985,579,3.31171,-0.00983321,0.29579,0.947227
987,577,3.31151,-0.0103795,0.295791,0.94691
989,575,3.31098,-0.0112367,0.296247,0.94627
991,573,3.31302,-0.00846848,0.295028,0.945722
993,571,3.31238,-0.00910662,0.295477,0.945192
995,569,3.31251,-0.00903224,0.295014,0.94539
997,567,3.31208,-0.00971885,0.295469,0.944825
999,565,3.31176,-0.0103641,0.295468,0.944455
1001,563,3.31108,-0.0111203,0.295922,0.943848
1003,561,3.31307,-0.00777536,0.294242,0.943797
1005,559,3.31254,-0.00841581,0.294696,0.943262
1007,557,3.31191,-0.00921178,0.295146,0.942619
1009,555,3.31179,-0.00983039,0.295143,0.942273
1011,553,3.31129,-0.00990157,0.295143,0.942222
1013,551,3.31118,-0.0105214,0.295137,0.941867
1015,549,3.31188,-0.0145306,0.294941,0.941515
1017,547,3.31248,-0.00855133,0.294439,0.940696
1019,545,3.31181,-0.0092858,0.294827,0.940109
1021,543,3.31195,-0.00919697,0.294366,0.94032
1023,541,3.31153,-0.00991924,0.294825,0.939761
1025,539,3.31124,-0.0105405,0.294819,0.939386
1027,537,3.31056,-0.00957196,0.29482,0.938682
1029,535,3.31232,-0.00689084,0.293597,0.938054
1031,533,3.31204,-0.0142738,0.293587,0.937723
1033,531,3.31047,-0.0211289,0.294614,0.937908
1035,529,3.31132,-0.013348,0.293594,0.937019
1037,527,3.31062,-0.0157575,0.294166,0.936735
1039,525,3.3104,-0.0164066,0.294047,0.936374
1041,523,3.31044,-0.0170628,0.293864,0.935557
1043,521,3.31224,-0.0109903,0.29237,0.934961
1045,519,3.31147,-0.0116805,0.292817,0.93438
1047,517,3.31133,-0.0122853,0.293427,0.934052
1049,515,3.3112,-0.0122568,0.292816,0.934063
1051,513,3.3132,-0.00781984,0.291148,0.933366
1053,511,3.31277,-0.00682068,0.291143,0.932405
1055,509,3.31209,-0.00919856,0.291591,0.932385
1057,507,3.3117,-0.00822265,0.291588,0.931669
1059,505,3.31156,-0.0122824,0.291864,0.931315
1061,503,3.31052,-0.0164501,0.292101,0.930753
1063,501,3.31216,-0.0137356,0.290817,0.930138
1065,499,3.31235,-0.0143525,0.29082,0.929804
1067,497,3.31203,-0.0126307,0.290355,0.929643
1069,495,3.31127,-0.013357,0.290764,0.92909
1071,493,3.31122,-0.0139921,0.29088,0.928745
1073,491,3.31251,-0.0113825,0.290041,0.927905
1075,489,3.31261,-0.0102401,0.289588,0.927462
1077,487,3.31212,-0.00923297,0.289591,0.926766
1079,485,3.31172,-0.00995217,0.289593,0.926346
1081,483,3.31147,-0.0105546,0.28959,0.926017
1083,481,3.31106,-0.00956732,0.289585,0.925302
1085,479,3.31264,-0.0136906,0.288363,0.924738
1087,477,3.31173,-0.0145009,0.288816,0.924107
1089,475,3.31154,-0.01516,0.288814,0.923741
1091,473,3.31112,-0.0141166,0.288809,0.923049
1093,471,3.31084,-0.0147373,0.289004,0.922714
1095,469,3.31241,-0.0114352,0.287595,0.922432
1097,467,3.31225,-0.0120292,0.287589,0.922105
1099,465,3.31177,-0.0110779,0.287594,0.921383
1101,463,3.3115,-0.0116691,0.287585,0.921022
1103,461,3.31084,-0.0106956,0.28759,0.920324
1105,459,3.3127,-0.00795227,0.286366,0.919974
1107,457,3.31275,-0.00683374,0.285914,0.91924
1109,455,3.31072,-0.0144335,0.2874,0.918899
1111,453,3.31115,-0.00837494,0.286806,0.918291
1113,451,3.31104,-0.00899844,0.286818,0.917718
1115,449,3.31261,-0.0131771,0.285588,0.91712
1117,447,3.31255,-0.0119503,0.28514,0.91669
1119,445,3.31168,-0.0128156,0.285595,0.916056
1121,443,3.31154,-0.0134423,0.285586,0.915694
1123,441,3.31096,-0.0124062,0.285587,0.915019
1125,439,3.31238,-0.00970645,0.284821,0.914246
1127,437,3.31196,-0.010478,0.284823,0.913817
1129,435,3.31203,-0.00933851,0.28437,0.913337
1131,433,3.31172,-0.00997963,0.284359,0.912966
1133,431,3.31117,-0.0089446,0.284367,0.912286
1135,429,3.31222,-0.00800793,0.284043,0.911607
1137,427,3.31243,-0.00690607,0.283593,0.911118
1139,425,3.31182,-0.0145192,0.28359,0.910771
1141,423,3.31098,-0.0152983,0.284041,0.910181
1143,421,3.31068,-0.0159928,0.284039,0.909787
1145,419,3.31234,-0.0114965,0.282817,0.908885
1147,417,3.31205,-0.0121531,0.282815,0.908511
1149,415,3.31132,-0.0111793,0.282821,0.907792
1151,413,3.3112,-0.0118545,0.282821,0.907435
1153,411,3.31118,-0.0107096,0.282365,0.906953
1155,409,3.31287,-0.00689597,0.281151,0.905672
1157,407,3.31197,-0.00768593,0.281598,0.905063
1159,405,3.31191,-0.00831214,0.281601,0.904729
1161,403,3.31081,-0.0160788,0.282162,0.904157
1163,401,3.31041,-0.0167369,0.282042,0.90379
1165,399,3.311812,-0.0140968,0.281267,0.90294
1167,397,3.31192,-0.0129434,0.280817,0.902455
1169,395,3.31178,-0.011843,0.280367,0.901957
1171,393,3.31086,-0.0125768,0.280817,0.901402
1173,391,3.31063,-0.0132393,0.280821,0.901047
1175,389,3.31287,-0.00867204,0.279145,0.900308
1177,387,3.31221,-0.00758414,0.279146,0.899629
1179,385,3.31115,-0.010222,0.280045,0.899136
1181,383,3.31116,-0.00898776,0.279596,0.898698
1183,381,3.31308,-0.00618005,0.278369,0.898105
1185,379,3.31189,-0.014009,0.278817,0.897529
1187,377,3.31156,-0.0146867,0.278817,0.897166
1189,375,3.31122,-0.0143996,0.278816,0.896053
1191,373,3.31053,-0.0133283,0.278821,0.895385
1193,371,3.31226,-0.01056,0.277596,0.894748
1195,369,3.31219,-0.0111619,0.277593,0.894415
1197,367,3.31158,-0.0101737,0.2776,0.893706
1199,365,3.31068,-0.0109008,0.278038,0.893132
1201,363,3.31276,-0.00629348,0.276373,0.892403
1203,361,3.31229,-0.0140879,0.276373,0.892023
1205,359,3.31202,-0.0146788,0.276551,0.891709
1207,357,3.3111,-0.0155322,0.276812,0.891079
1209,355,3.31093,-0.0144142,0.276364,0.890578
1211,353,3.31267,-0.0105242,0.275203,0.889289
1213,351,3.31173,-0.0113074,0.275593,0.888709
1215,349,3.31157,-0.0120312,0.275597,0.888306
1217,347,3.31152,-0.0108902,0.275153,0.887845
1219,345,3.31075,-0.00987899,0.275263,0.887112
1221,343,3.31236,-0.00883841,0.274376,0.886651
1223,341,3.31191,-0.00777964,0.273893,0.885967
1225,339,3.31134,-0.0155827,0.274373,0.8856
1227,337,3.31036,-0.0164194,0.274823,0.885003
1229,335,3.31239,-0.0135414,0.273598,0.884412
1231,333,3.31189,-0.0130948,0.27359,0.883373
1233,331,3.31094,-0.0139012,0.274012,0.882786
1235,329,3.31106,-0.0127755,0.273589,0.882264
1237,327,3.31315,-0.0080859,0.272043,0.881559
1239,325,3.31236,-0.00886421,0.272373,0.88098
1241,323,3.31201,-0.0095199,0.27237,0.880621
1243,321,3.31159,-0.00915111,0.272373,0.879569
1245,319,3.31102,-0.0169486,0.272371,0.879232
1247,317,3.31209,-0.0142725,0.271591,0.878363
1249,315,3.31186,-0.0149333,0.271589,0.878011
1251,313,3.31178,-0.0138018,0.271149,0.877519
1253,311,3.31079,-0.0146205,0.271588,0.876907
1255,309,3.31294,-0.00988678,0.269933,0.876212
1257,307,3.31217,-0.0106857,0.270364,0.875612
1259,305,3.31139,-0.00967203,0.270367,0.874876
1261,303,3.31168,-0.0103056,0.2699,0.874729
1263,301,3.31117,-0.00990854,0.269922,0.873648
1265,299,3.31246,-0.0070983,0.269152,0.872859
1267,297,3.31224,-0.00774531,0.269143,0.872505
1269,295,3.31123,-0.0157437,0.269595,0.871962
1271,293,3.31084,-0.0163611,0.269591,0.871611
1273,291,3.31238,-0.0125432,0.268369,0.870239
1275,289,3.31189,-0.0114365,0.268365,0.869559
1277,287,3.31006,-0.0192891,0.269444,0.869418
1279,285,3.31058,-0.0129927,0.268266,0.868557
1281,283,3.31134,-0.0153974,0.268228,0.868085
1283,281,3.31234,-0.00885879,0.267144,0.867507
1285,279,3.31037,-0.00862737,0.268034,0.8662
1287,277,3.31142,-0.0201692,0.267453,0.86586
1289,275,3.31186,-0.0136153,0.266817,0.865293
1291,273,3.31181,-0.0126763,0.266373,0.864536
1293,271,3.31166,-0.0132774,0.266375,0.864216
1295,269,3.31114,-0.0165067,0.266685,0.863125
1297,267,3.31012,-0.0137374,0.266811,0.862537
1299,265,3.3123,-0.010803,0.265593,0.861966
1301,263,3.31207,-0.00962519,0.265151,0.861478
1303,261,3.31204,-0.0121569,0.265019,0.860748
1305,259,3.3121,-0.00642733,0.264821,0.859575
1307,257,3.31222,-0.0144524,0.264372,0.859475
1309,255,3.31135,-0.0152856,0.264812,0.858631
1311,253,3.31097,-0.0159449,0.264809,0.858281
1313,251,3.31045,-0.0155137,0.264809,0.857235
1315,249,3.31196,-0.0108382,0.263595,0.856288
1317,247,3.3114,-0.013442,0.264029,0.856042
1319,245,3.31134,-0.0158362,0.263917,0.855566
1321,243,3.31049,-0.0166718,0.264356,0.854968
1323,241,3.31193,-0.0109143,0.26326,0.853815
1325,239,3.3105,-0.0170259,0.263903,0.853521
1327,237,3.3115,-0.00857281,0.262808,0.852627
1329,235,3.31088,-0.0093032,0.26281,0.852251
1331,233,3.31064,-0.0211494,0.263132,0.851679
1333,231,3.31171,-0.0188618,0.262363,0.850746
1335,229,3.30925,-0.0234031,0.263568,0.850349
1337,227,3.31091,-0.014862,0.262035,0.849658
1339,225,3.31238,-0.0101428,0.260931,0.848717
1341,223,3.31153,-0.011594,0.261256,0.847792
1343,221,3.31126,-0.012354,0.261254,0.847409
1345,219,3.31069,-0.0112319,0.261251,0.846709
1347,217,3.31259,-0.00640939,0.259598,0.845903
1349,215,3.31191,-0.0071979,0.260033,0.845652
1351,213,3.31118,-0.00871366,0.260475,0.844455
1353,211,3.31046,-0.0167807,0.26047,0.844139
1355,209,3.31239,-0.0138316,0.259261,0.843549
1357,207,3.31186,-0.0134101,0.259257,0.842489
1359,205,3.31116,-0.012337,0.25926,0.841764
1361,203,3.31195,-0.0112414,0.25892,0.841311
1363,201,3.31213,-0.0101819,0.258479,0.840594
1365,199,3.31178,-0.010896,0.258649,0.84023
1367,197,3.31114,-0.0105546,0.258478,0.839135
1369,195,3.31066,-0.00945978,0.258474,0.838406
1371,193,3.31236,-0.00641169,0.257258,0.837847
1373,191,3.31153,-0.00799296,0.257696,0.836859
1375,189,3.31051,-0.0162693,0.258137,0.83634
1377,187,3.31094,-0.0206843,0.258036,0.836007
1379,185,3.31156,-0.0121786,0.257517,0.835038
1381,183,3.31174,-0.0116401,0.256479,0.834191
1383,181,3.31143,-0.01232,0.256483,0.833853
1385,179,3.31052,-0.0113705,0.256486,0.833064
1387,177,3.31208,-0.00907288,0.255703,0.831955
1389,175,3.31206,-0.00789584,0.255258,0.831422
1391,173,3.31113,-0.00869284,0.255702,0.830861
1393,171,3.31138,-0.0132321,0.255597,0.830456
1395,169,3.31221,-0.0127951,0.254482,0.829444
1397,167,3.31129,-0.0136481,0.254919,0.828618
1399,165,3.31059,-0.0163523,0.255353,0.828369
1401,163,3.31003,-0.015219,0.255354,0.827668
1403,161,3.31171,-0.0110916,0.254145,0.826377
1405,159,3.31115,-0.0118169,0.254134,0.82601
1407,157,3.31123,-0.0105609,0.253696,0.82552
1409,155,3.31067,-0.0102094,0.253838,0.824427
1411,153,3.31209,-0.00733391,0.252927,0.823611
1413,151,3.3113,-0.0154761,0.252919,0.823328
1415,149,3.3109,-0.0162943,0.252919,0.822926
1417,147,3.31011,-0.0152477,0.252915,0.819179
1419,145,3.31136,-0.0149689,0.252579,0.821172
1421,143,3.31155,-0.0118347,0.251698,0.820494
1423,141,3.31059,-0.0126671,0.252135,0.819914
1425,139,3.31048,-0.0191258,0.252621,0.819709
1427,137,3.31019,-0.0167823,0.252047,0.818478
1429,135,3.30929,-0.0175885,0.252481,0.817923
1431,133,3.31039,-0.0108168,0.251353,0.817297
1433,131,3.30999,-0.010387,0.251352,0.816229
1435,129,3.31082,-0.0149377,0.25046,0.815667
1437,127,3.31072,-0.0158367,0.250583,0.815106
1439,125,3.31042,-0.0165133,0.250574,0.814754
1441,123,3.31215,-0.0122885,0.249361,0.813466
1443,121,3.31128,-0.013175,0.249801,0.81287
1445,119,3.31078,-0.0139134,0.249791,0.812505
1447,117,3.31047,-0.0116266,0.249355,0.811219
1449,115,3.30942,-0.0123999,0.249791,0.810694
1451,113,3.3113,-0.00941929,0.248582,0.810066
1453,111,3.31124,-0.0081314,0.248139,0.809567
1455,109,3.31192,-0.00578522,0.247791,0.808442
1457,107,3.31137,-0.0144218,0.247795,0.807871
1459,105,3.31119,-0.0151313,0.247795,0.807532
1461,103,3.31061,-0.0147238,0.247789,0.806441
1463,101,3.31112,-0.0117261,0.247449,0.805651
1465,99,3.31158,-0.0124882,0.247017,0.805292
1467,97,3.31117,-0.0121811,0.247019,0.80416
1469,95,3.31099,-0.0108698,0.24658,0.803683
1471,93,3.31001,-0.0117056,0.247013,0.803112
1473,91,3.30989,-0.0171876,0.247386,0.802188
1475,89,3.31155,-0.00818313,0.245794,0.801466
1477,87,3.31039,-0.00903832,0.246227,0.800866
1479,85,3.3098,-0.0175468,0.24623,0.800548
1481,83,3.31129,-0.0153151,0.245448,0.799362
1483,81,3.31111,-0.0140263,0.245011,0.798871
1485,79,3.31076,-0.0148238,0.245007,0.79849
1487,77,3.31021,-0.0144201,0.245014,0.797419
1489,75,3.3116,-0.0113949,0.244356,0.79664
1491,73,3.3111,-0.0122161,0.244232,0.796238
1493,71,3.31038,-0.0137061,0.244665,0.79535
1495,69,3.31202,-0.0086595,0.24345,0.7944
1497,67,3.31152,-0.00944333,0.24345,0.794019
1499,65,3.31123,-0.010181,0.243446,0.793658
1501,63,3.31071,-0.00980371,0.243448,0.79257
1503,61,3.31181,-0.0145629,0.242667,0.791819
1505,59,3.31162,-0.00750661,0.242664,0.79142
1507,57,3.31078,-0.0149859,0.242664,0.790348
1509,55,3.31038,-0.0157388,0.242663,0.789987
1511,53,3.31152,-0.01278,0.241994,0.789163
1513,51,3.31166,-0.01224,0.24146,0.788326
1515,49,3.31096,-0.0110468,0.241443,0.787596
1517,47,3.31048,-0.0118551,0.241451,0.787223
1519,45,3.31195,-0.00957101,0.240672,0.786057
1521,43,3.3119,-0.00836534,0.240237,0.785513
1523,41,3.31092,-0.00916524,0.240667,0.784975
1525,39,3.30961,-0.0187829,0.241216,0.78403
1527,37,3.31163,-0.0156171,0.239889,0.78193
1529,35,3.31156,-0.0143226,0.239454,0.782946
1531,33,3.31078,-0.0139227,0.239446,0.781836
1533,31,3.31256,-0.0128462,0.238666,0.781387
1535,29,3.3119,-0.0116136,0.238672,0.780711
1537,27,3.31181,-0.0111176,0.238239,0.779828
1539,25,3.31073,-0.0119923,0.238661,0.779238
1541,23,3.31267,-0.00766363,0.23746,0.777926
1543,21,3.31234,-0.00840966,0.237454,0.777592
1545,19,3.31105,-0.0172656,0.237992,0.777016
1547,17,3.31071,-0.0187955,0.237879,0.776293
1549,15,3.31238,-0.0156911,0.237103,0.775524
1551,13,3.31214,-0.014433,0.236674,0.775012
1553,11,3.31117,-0.0161156,0.237098,0.774046
1555,9,3.31321,-0.0128757,0.235893,0.773495
1557,7,3.3128,-0.0104262,0.23545,0.772222
1559,5,3.31248,-0.0111945,0.235452,0.771858
1561,3,3.31174,-0.0140425,0.235876,0.771659