File: hust_correlation_analysis/matrices/HUST_9-5_cycle_feature_matrix.csv
cycle_number,rul,voltage,current,capacity,charge_capacity
1,2170,3.31722,0.00527521,0.268492,1.02918
3,2168,3.30112,-0.0177839,0.28025,1.00424
5,2166,3.30236,-0.0249596,0.280369,1.00743
7,2164,3.30466,-0.02141,0.278244,1.01034
9,2162,3.30558,-0.0233278,0.278403,1.01205
11,2160,3.3077,-0.0212447,0.277143,1.01375
13,2158,3.30758,-0.0231266,0.2773,1.01541
15,2156,3.30911,-0.0216908,0.276068,1.01683
17,2154,3.30993,-0.0209785,0.275249,1.01766
19,2152,3.30945,-0.0234089,0.275832,1.01905
21,2150,3.31057,-0.0227071,0.275025,1.01961
23,2148,3.31087,-0.0220434,0.274616,1.02017
25,2146,3.31122,-0.0220039,0.274211,1.02043
27,2144,3.31196,-0.0219734,0.273918,1.02068
29,2142,3.31208,-0.0219604,0.27341,1.02092
31,2140,3.31228,-0.0219372,0.273019,1.02117
33,2138,3.31217,-0.0225334,0.273018,1.02086
35,2136,3.31253,-0.0218862,0.272953,1.02142
37,2134,3.31245,-0.021928,0.272621,1.02142
39,2132,3.31237,-0.0225824,0.272619,1.02108
41,2130,3.31305,-0.0224506,0.272221,1.02136
43,2128,3.31323,-0.0225098,0.27232,1.02133
45,2126,3.31334,-0.022505,0.272221,1.02135
47,2124,3.31362,-0.0224049,0.271824,1.02161
49,2122,3.31522,-0.0199567,0.270937,1.02077
51,2120,3.31607,-0.0199911,0.270458,1.02097
53,2118,3.31537,-0.0199431,0.270449,1.02098
55,2116,3.31505,-0.02005,0.270449,1.02093
57,2114,3.3151,-0.0206778,0.270846,1.0204
59,2112,3.31546,-0.0205938,0.270452,1.02044
61,2110,3.31535,-0.0211421,0.270449,1.02039
63,2108,3.315,-0.021187,0.270455,1.02037
65,2106,3.31464,-0.0218489,0.270841,1.01981
67,2104,3.31476,-0.0218897,0.270829,1.01975
69,2102,3.31419,-0.0218931,0.270842,1.01979
71,2100,3.31423,-0.0223935,0.270839,1.01952
73,2098,3.31466,-0.0225329,0.270835,1.01945
75,2096,3.31612,-0.0193838,0.269467,1.01917
77,2094,3.31643,-0.0198336,0.269456,1.01893
79,2092,3.3156,-0.0207173,0.269858,1.01827
81,2090,3.31601,-0.0206461,0.269474,1.01855
83,2088,3.31627,-0.0206699,0.269472,1.01855
85,2086,3.31599,-0.0211806,0.26946,1.01826
87,2084,3.31533,-0.021259,0.269849,1.01799
89,2082,3.31564,-0.0219532,0.269855,1.01764
91,2080,3.31534,-0.0218979,0.269854,1.01766
93,2078,3.3152,-0.0218371,0.26985,1.01769
95,2076,3.31482,-0.0225477,0.270239,1.0171
97,2074,3.31473,-0.0225746,0.27024,1.01709
99,2072,3.31658,-0.0194353,0.268962,1.01681
101,2070,3.3165,-0.0200051,0.268866,1.01651
103,2068,3.31613,-0.0207596,0.269265,1.01594
105,2066,3.31617,-0.0207512,0.269263,1.01593
107,2064,3.31584,-0.0207129,0.269258,1.01596
109,2062,3.31562,-0.0214038,0.269656,1.01538
111,2060,3.31601,-0.0213178,0.269264,1.01564
113,2058,3.31572,-0.0213054,0.269356,1.01563
115,2056,3.31563,-0.0220938,0.269433,1.01504
117,2054,3.31527,-0.0220002,0.269659,1.01507
119,2052,3.31482,-0.0228165,0.270053,1.01445
121,2050,3.31448,-0.0227028,0.270048,1.01449
123,2048,3.31453,-0.0227782,0.27005,1.01444
125,2046,3.31701,-0.0194425,0.268276,1.01446
127,2044,3.31581,-0.0202198,0.269067,1.01363
129,2042,3.31612,-0.0201205,0.26867,1.01392
131,2040,3.31588,-0.0208915,0.269071,1.01332
133,2038,3.31621,-0.0208176,0.268935,1.01357
135,2036,3.3156,-0.0208569,0.269065,1.01332
137,2034,3.31563,-0.0215383,0.269073,1.01298
139,2032,3.31557,-0.0215586,0.26907,1.01297
141,2030,3.31548,-0.0215534,0.269066,1.01297
143,2028,3.31457,-0.0221895,0.269452,1.0124
145,2026,3.31438,-0.0222021,0.269835,1.0124
147,2024,3.31454,-0.0222629,0.269461,1.01238
149,2022,3.31448,-0.0229299,0.26985,1.0118
151,2020,3.3139,-0.0229711,0.269857,1.0118
153,2018,3.31556,-0.0197026,0.268472,1.01155
155,2016,3.31601,-0.0202864,0.268469,1.01125
157,2014,3.31581,-0.0202544,0.268474,1.01128
159,2012,3.3154,-0.0202675,0.268473,1.01151
161,2010,3.31491,-0.0209137,0.268868,1.01072
163,2008,3.31499,-0.0209768,0.268873,1.0107
165,2006,3.31475,-0.0210575,0.268877,1.01068
167,2004,3.31409,-0.0217928,0.269273,1.01006
169,2002,3.31454,-0.0216161,0.268871,1.01037
171,2000,3.31455,-0.0216009,0.268869,1.01037
173,1998,3.31448,-0.0216404,0.268871,1.01036
175,1996,3.31408,-0.0222868,0.269272,1.00982
177,1994,3.31428,-0.0223706,0.269274,1.00978
179,1992,3.31424,-0.0222693,0.269277,1.00983
181,1990,3.31425,-0.0229585,0.269269,1.00946
183,1988,3.31345,-0.0229897,0.269669,1.00924
185,1986,3.31446,-0.0229504,0.269083,1.0095
187,1984,3.31532,-0.0197464,0.268287,1.00924
189,1982,3.31572,-0.0203765,0.268284,1.00867
191,1980,3.31556,-0.0203886,0.268284,1.00866
193,1978,3.31469,-0.0205142,0.268682,1.00837
195,1976,3.31479,-0.0210367,0.268677,1.00811
197,1974,3.31485,-0.0209607,0.268681,1.00817
199,1972,3.31512,-0.0211071,0.268678,1.00806
201,1970,3.31465,-0.0209928,0.268708,1.00816
203,1968,3.31493,-0.0217584,0.268685,1.00776
205,1966,3.31506,-0.0216738,0.268682,1.0078
207,1964,3.31436,-0.0217322,0.269085,1.00756
209,1962,3.31492,-0.0216897,0.268682,1.00778
211,1960,3.31422,-0.0218896,0.269079,1.00745
213,1958,3.31466,-0.0224912,0.269086,1.00716
215,1956,3.31409,-0.0224449,0.269085,1.0072
217,1954,3.31385,-0.0223973,0.269078,1.00721
219,1952,3.31416,-0.0230625,0.269082,1.00689
221,1950,3.31336,-0.023097,0.269483,1.00665
223,1948,3.31352,-0.0229774,0.269083,1.00692
225,1946,3.31484,-0.0198481,0.268352,1.00637
227,1944,3.31501,-0.0205843,0.268095,1.006
229,1942,3.31479,-0.0205287,0.268088,1.006
231,1940,3.31477,-0.0205425,0.268096,1.00604
233,1938,3.31446,-0.0212439,0.268496,1.00546
235,1936,3.31414,-0.0212248,0.268493,1.00544
237,1934,3.31412,-0.021328,0.268496,1.00541
239,1932,3.31408,-0.0212501,0.268487,1.00543
241,1930,3.31421,-0.0220163,0.268591,1.00507
243,1928,3.31422,-0.0217943,0.26821,1.00516
245,1926,3.31411,-0.0218404,0.26849,1.00514
247,1924,3.31383,-0.0219213,0.269148,1.00485
249,1922,3.31385,-0.0219481,0.268894,1.00485
251,1920,3.31377,-0.0218728,0.268885,1.00487
253,1918,3.314,-0.0219316,0.268887,1.00484
255,1916,3.31353,-0.0221518,0.269554,1.0045
257,1914,3.31417,-0.022458,0.269281,1.00432
259,1912,3.31346,-0.022609,0.269685,1.00401
261,1910,3.31411,-0.0224836,0.269283,1.00431
263,1908,3.31289,-0.0227724,0.269694,1.0037
265,1906,3.31296,-0.0233271,0.269791,1.00368
267,1904,3.31275,-0.0233289,0.269695,1.00367
269,1902,3.3128,-0.0234245,0.269415,1.00362
271,1900,3.3125,-0.0233478,0.269958,1.00368
273,1898,3.31451,-0.0207177,0.268294,1.00307
275,1896,3.31488,-0.0207023,0.268297,1.00308
277,1894,3.31439,-0.0208264,0.268699,1.00279
279,1892,3.31443,-0.0206978,0.268294,1.00306
281,1890,3.31359,-0.021452,0.268695,1.00246
283,1888,3.31396,-0.0214331,0.268301,1.00273
285,1886,3.31376,-0.021429,0.268393,1.00273
287,1884,3.31294,-0.0220716,0.268699,1.0022
289,1882,3.31295,-0.0221045,0.268699,1.00194
291,1880,3.3131,-0.0221663,0.268705,1.00214
293,1878,3.31321,-0.0219991,0.268298,1.00245
295,1876,3.31278,-0.0221666,0.2687,1.00215
297,1874,3.31322,-0.0227497,0.268691,1.0021
299,1872,3.3133,-0.0228173,0.2687,1.00182
301,1870,3.31296,-0.0227483,0.268689,1.00184
303,1868,3.31314,-0.0226811,0.268694,1.00188
305,1866,3.31285,-0.0235066,0.269096,1.00118
307,1864,3.31318,-0.0233664,0.268692,1.00179
309,1862,3.31311,-0.023409,0.268696,1.00153
311,1860,3.31477,-0.0207919,0.267702,1.0007
313,1858,3.31446,-0.0207377,0.267703,1.00074
315,1856,3.31416,-0.0207658,0.267706,1.0005
317,1854,3.31439,-0.0208395,0.267969,1.00068
319,1852,3.3144,-0.0214604,0.267698,1.00037
321,1850,3.31409,-0.0214447,0.267704,1.00039
323,1848,3.31405,-0.0214859,0.2677,1.00036
325,1846,3.31407,-0.0214732,0.268071,1.00035
327,1844,3.31334,-0.0215128,0.268104,1.00011
329,1842,3.31334,-0.0216073,0.268097,1.00004
331,1840,3.31321,-0.0222,0.2681,0.999746
333,1838,3.31286,-0.0221741,0.2681,0.999784
335,1836,3.31289,-0.0221501,0.268105,0.999809
337,1834,3.313,-0.0227965,0.268105,0.999487
339,1832,3.31302,-0.0228635,0.268106,0.999461
341,1830,3.31301,-0.022819,0.268107,0.999473
343,1828,3.31304,-0.022888,0.268108,0.999453
345,1826,3.31326,-0.0234362,0.268101,0.999154
347,1824,3.31268,-0.0235681,0.268514,0.998893
349,1822,3.31264,-0.0235161,0.268511,0.998913
351,1820,3.31246,-0.0234956,0.268768,0.998913
353,1818,3.31266,-0.0235819,0.26851,0.998874
355,1816,3.31407,-0.0209242,0.267512,0.998058
357,1814,3.31419,-0.0208665,0.267107,0.998309
359,1812,3.31422,-0.0208779,0.267111,0.998305
361,1810,3.31406,-0.0216041,0.267517,0.997748
363,1808,3.31417,-0.0214745,0.267114,0.998048
365,1806,3.31403,-0.021541,0.267116,0.998007
367,1804,3.31432,-0.0215767,0.266779,0.997983
369,1802,3.31343,-0.0216369,0.26752,0.997731
371,1800,3.3131,-0.0223808,0.267933,0.997141
373,1798,3.3134,-0.0222322,0.267515,0.997415
375,1796,3.31326,-0.0222086,0.267517,0.997429
377,1794,3.31299,-0.0223741,0.267512,0.997336
379,1792,3.31276,-0.0221778,0.267513,0.997455
381,1790,3.31305,-0.0223099,0.267511,0.997366
383,1788,3.31237,-0.0229022,0.26801,0.996852
385,1786,3.31254,-0.0230431,0.267925,0.996803
387,1784,3.31312,-0.0228409,0.267513,0.997125
389,1782,3.31301,-0.0236438,0.267925,0.99676
391,1780,3.31278,-0.0235686,0.267923,0.996557
393,1778,3.31292,-0.023619,0.267931,0.996536
395,1776,3.31281,-0.0236403,0.267924,0.996507
397,1774,3.31448,-0.0202765,0.266518,0.996261
399,1772,3.31393,-0.0210444,0.266932,0.995678
401,1770,3.31437,-0.0209092,0.266522,0.995957
403,1768,3.31397,-0.0210208,0.266928,0.99569
405,1766,3.31352,-0.0210545,0.266932,0.995671
407,1764,3.31348,-0.0210106,0.266931,0.995673
409,1762,3.31347,-0.0217081,0.266933,0.995347
411,1760,3.31338,-0.0217004,0.266927,0.995347
413,1758,3.31322,-0.0216448,0.266927,0.995375
415,1756,3.31364,-0.0216774,0.266924,0.995357
417,1754,3.31309,-0.0224396,0.267343,0.994773
419,1752,3.31259,-0.0224211,0.267338,0.99478
421,1750,3.31288,-0.0223877,0.267348,0.994811
423,1748,3.31311,-0.0224042,0.267344,0.994803
425,1746,3.31307,-0.0228703,0.267339,0.994561
427,1744,3.31232,-0.0230784,0.267746,0.994226
429,1742,3.31324,-0.0230135,0.267334,0.994466
431,1740,3.31312,-0.0229985,0.267331,0.994472
433,1738,3.31274,-0.0230302,0.267336,0.994468
435,1736,3.31294,-0.0230044,0.267331,0.994479
437,1734,3.31249,-0.0238416,0.26775,0.994124
439,1732,3.31168,-0.0237856,0.267746,0.993887
441,1730,3.31135,-0.0237323,0.26775,0.993911
443,1728,3.31378,-0.0205122,0.266341,0.993587
445,1726,3.31305,-0.0210304,0.266755,0.993118
447,1724,3.31309,-0.0211821,0.266749,0.993047
449,1722,3.31351,-0.021065,0.266336,0.993309
451,1720,3.31351,-0.0210942,0.26634,0.9933
453,1718,3.31355,-0.0211028,0.266346,0.993315
455,1716,3.31371,-0.0217498,0.266749,0.99276
457,1714,3.31363,-0.0217507,0.266748,0.992768
459,1712,3.3134,-0.0217518,0.266749,0.992759
461,1710,3.31336,-0.0217382,0.266748,0.99277
463,1708,3.31352,-0.0224933,0.266748,0.9924
465,1706,3.313,-0.0223199,0.266749,0.992482
467,1704,3.31221,-0.0226118,0.267161,0.992122
469,1702,3.31218,-0.0225683,0.267162,0.992391
471,1700,3.31234,-0.0231903,0.267168,0.991857
473,1698,3.31225,-0.0231932,0.267161,0.991843
475,1696,3.3119,-0.0231725,0.267158,0.991839
477,1694,3.31212,-0.0232187,0.267156,0.991816
479,1692,3.31195,-0.0232329,0.26716,0.991818
481,1690,3.31192,-0.023191,0.267154,0.99183
483,1688,3.31195,-0.0238436,0.26715,0.991496
485,1686,3.31233,-0.0238508,0.267155,0.991752
487,1684,3.31209,-0.0238841,0.26716,0.991501
489,1682,3.3119,-0.0237539,0.267155,0.991542
491,1680,3.31439,-0.0205325,0.26574,0.991204
493,1678,3.31361,-0.0212328,0.266156,0.990654
495,1676,3.31346,-0.0213645,0.266163,0.990604
497,1674,3.31358,-0.0212704,0.266153,0.990624
499,1672,3.31333,-0.0212642,0.266159,0.990633
501,1670,3.31263,-0.0219734,0.266568,0.990064
503,1668,3.31311,-0.0218029,0.266149,0.990362
505,1666,3.31303,-0.021888,0.266154,0.990314
507,1664,3.31262,-0.0219188,0.266152,0.990291
509,1662,3.31258,-0.0218744,0.266153,0.990323
511,1660,3.31323,-0.0219905,0.266155,0.990277
513,1658,3.31272,-0.0226534,0.266945,0.989726
515,1656,3.31269,-0.0225869,0.266563,0.989752
517,1654,3.31271,-0.022688,0.266563,0.989702
519,1652,3.31261,-0.0226545,0.266564,0.989723
521,1650,3.31247,-0.0233333,0.266662,0.989414
523,1648,3.31226,-0.02327,0.266572,0.989456
525,1646,3.31215,-0.023338,0.26657,0.989416
527,1644,3.31113,-0.0233725,0.266974,0.989148
529,1642,3.3115,-0.02399,0.266979,0.98886
531,1640,3.31153,-0.0240519,0.266977,0.988828
533,1638,3.3114,-0.02395,0.266971,0.988686
535,1636,3.31125,-0.0240927,0.266987,0.988832
537,1634,3.31206,-0.0239449,0.266566,0.989118
539,1632,3.31393,-0.0213296,0.265558,0.988228
541,1630,3.31357,-0.0213148,0.265655,0.988232
543,1628,3.31322,-0.0213509,0.265564,0.988116
545,1626,3.31338,-0.0213887,0.26557,0.988227
547,1624,3.3128,-0.0220862,0.265981,0.987674
549,1622,3.31252,-0.0220635,0.265977,0.98767
551,1620,3.31256,-0.0221121,0.265983,0.987655
553,1618,3.31242,-0.0220987,0.265984,0.987648
555,1616,3.31276,-0.0219022,0.265553,0.987963
557,1614,3.3126,-0.0227186,0.265972,0.987349
559,1612,3.31276,-0.022745,0.265975,0.98733
561,1610,3.31266,-0.022743,0.265975,0.987334
563,1608,3.3127,-0.0226218,0.265965,0.987372
565,1606,3.31252,-0.0227129,0.265963,0.987315
567,1604,3.31199,-0.0235525,0.26639,0.986704
569,1602,3.31164,-0.0235092,0.266386,0.986727
571,1600,3.31185,-0.0235769,0.266386,0.986692
573,1598,3.3112,-0.0235267,0.266388,0.986722
575,1596,3.31078,-0.0242453,0.266805,0.986163
577,1594,3.31149,-0.0241044,0.266382,0.986446
579,1592,3.31144,-0.0240996,0.26639,0.986463
581,1590,3.31087,-0.0241896,0.266388,0.986415
583,1588,3.31335,-0.0207268,0.264968,0.986163
585,1586,3.31387,-0.0214533,0.264963,0.985816
587,1584,3.3135,-0.0213356,0.264965,0.984563
589,1582,3.31304,-0.0214948,0.265379,0.985553
591,1580,3.31341,-0.0213976,0.264963,0.985825
593,1578,3.31296,-0.0221046,0.265377,0.985256
595,1576,3.31273,-0.0221452,0.265636,0.98524
597,1574,3.31279,-0.0221709,0.265382,0.985238
599,1572,3.31181,-0.0222085,0.265796,0.984999
601,1570,3.31212,-0.0227822,0.265796,0.984712
603,1568,3.31182,-0.0228623,0.265803,0.984695
605,1566,3.31188,-0.0228778,0.265804,0.984694
607,1564,3.31166,-0.0228309,0.2658,0.98471
609,1562,3.31188,-0.0228008,0.265791,0.984706
611,1560,3.31148,-0.0235894,0.266207,0.984107
613,1558,3.31197,-0.0235042,0.265797,0.984384
615,1556,3.31171,-0.0235542,0.265793,0.984351
617,1554,3.31186,-0.0235438,0.26579,0.984347
619,1552,3.3112,-0.0243051,0.266213,0.983772
621,1550,3.31085,-0.0242837,0.266212,0.984035
623,1548,3.31084,-0.0242102,0.266218,0.983826
625,1546,3.31086,-0.0243528,0.266214,0.983756
627,1544,3.3126,-0.0215085,0.264796,0.983219
629,1542,3.3128,-0.0214625,0.264796,0.983246
631,1540,3.31343,-0.0215596,0.26479,0.983185
633,1538,3.31266,-0.0214428,0.264792,0.983247
635,1536,3.31266,-0.0215585,0.264792,0.983191
637,1534,3.31231,-0.0223584,0.265211,0.982594
639,1532,3.31199,-0.0222632,0.265204,0.982617
641,1530,3.31171,-0.022265,0.26521,0.982397
643,1528,3.31177,-0.0223349,0.265213,0.982606
645,1526,3.31185,-0.0229345,0.265213,0.982318
647,1524,3.312,-0.0229757,0.265591,0.982297
649,1522,3.31193,-0.0228783,0.265219,0.982358
651,1520,3.31194,-0.02295,0.265598,0.982131
653,1518,3.3115,-0.0236333,0.265629,0.981772
655,1516,3.31223,-0.0236679,0.265216,0.981979
657,1514,3.3117,-0.0236865,0.265212,0.981954
659,1512,3.31219,-0.0168234,0.264478,0.981434
661,1510,3.31077,-0.0244385,0.265631,0.981378
663,1508,3.31061,-0.0244112,0.265629,0.981389
665,1506,3.3117,-0.0175359,0.264765,0.981091
667,1504,3.31066,-0.0244218,0.26563,0.981392
669,1502,3.31177,-0.0174169,0.264481,0.981159
671,1500,3.31323,-0.0209652,0.264202,0.981113
673,1498,3.31249,-0.0216298,0.264622,0.980573
675,1496,3.31266,-0.0216437,0.264205,0.980803
677,1494,3.31291,-0.0216884,0.264205,0.98078
679,1492,3.31208,-0.0217499,0.264626,0.980536
681,1490,3.3119,-0.0224377,0.264622,0.980189
683,1488,3.31221,-0.0224228,0.26462,0.980211
685,1486,3.31114,-0.0189238,0.265184,0.980209
687,1484,3.31181,-0.0223746,0.264617,0.980223
689,1482,3.31231,-0.0229652,0.26461,0.979924
691,1480,3.31238,-0.0230169,0.264622,0.979929
693,1478,3.31164,-0.0230807,0.264616,0.979877
695,1476,3.31258,-0.0160969,0.264046,0.979632
697,1474,3.31121,-0.0239144,0.265293,0.97926
699,1472,3.31073,-0.0238378,0.265037,0.979305
701,1470,3.31085,-0.0238615,0.265035,0.97929
703,1468,3.31079,-0.0239018,0.26503,0.979259
705,1466,3.31103,-0.0237948,0.264989,0.979324
707,1464,3.31255,-0.0175251,0.264209,0.978718
709,1462,3.31119,-0.0245324,0.265037,0.978963
711,1460,3.3111,-0.0244766,0.265033,0.979002
713,1458,3.31246,-0.021209,0.26403,0.978411
715,1456,3.3111,-0.0182422,0.264301,0.978151
717,1454,3.31242,-0.0218006,0.264024,0.978114
719,1452,3.3119,-0.0217962,0.264024,0.978128
721,1450,3.31223,-0.0217525,0.264026,0.97815
723,1448,3.3124,-0.0225056,0.264023,0.976306
725,1446,3.31224,-0.0225887,0.264018,0.977731
727,1444,3.31177,-0.0224964,0.264031,0.977797
729,1442,3.31195,-0.0225525,0.264024,0.977774
731,1440,3.31117,-0.0232458,0.26444,0.97719
733,1438,3.31125,-0.0232671,0.264444,0.976988
735,1436,3.311,-0.0232941,0.264447,0.977192
737,1434,3.31145,-0.0239156,0.264445,0.9769
739,1432,3.31116,-0.0239215,0.264445,0.976897
741,1430,3.31128,-0.0237933,0.264441,0.976944
743,1428,3.31105,-0.02388,0.264436,0.976897
745,1426,3.31053,-0.0247561,0.264862,0.976269
747,1424,3.31018,-0.0247192,0.264868,0.976287
749,1422,3.31027,-0.024807,0.26487,0.976262
751,1420,3.31002,-0.0246923,0.264869,0.976316
753,1418,3.31154,-0.0183258,0.263991,0.975722
755,1416,3.31244,-0.0218205,0.263428,0.975741
757,1414,3.31217,-0.0218232,0.263433,0.975739
759,1412,3.31192,-0.0218698,0.263435,0.975723
761,1410,3.31177,-0.0219545,0.263426,0.975667
763,1408,3.31128,-0.0227214,0.264173,0.975048
765,1406,3.31098,-0.0226375,0.26384,0.975099
767,1404,3.31189,-0.0225465,0.263422,0.975383
769,1402,3.31155,-0.0227222,0.264101,0.975062
771,1400,3.31188,-0.0226089,0.263427,0.974046
773,1398,3.31141,-0.0233327,0.263849,0.974788
775,1396,3.31113,-0.0233343,0.263854,0.974806
777,1394,3.31097,-0.0233699,0.263848,0.974775
779,1392,3.31023,-0.0241064,0.26427,0.974197
781,1390,3.311,-0.0238791,0.263848,0.974529
783,1388,3.31085,-0.0240711,0.263846,0.974435
785,1386,3.3109,-0.0248117,0.264272,0.973887
787,1384,3.31083,-0.0248113,0.264272,0.973877
789,1382,3.31053,-0.0248796,0.264273,0.973838
791,1380,3.30992,-0.0247748,0.264269,0.973888
793,1378,3.3118,-0.0213815,0.262833,0.973556
795,1376,3.31129,-0.0220913,0.263258,0.973008
797,1374,3.31149,-0.022069,0.263256,0.973016
799,1372,3.31211,-0.0220119,0.262833,0.973273
801,1370,3.31205,-0.0228204,0.263258,0.97267
803,1368,3.31164,-0.0227722,0.263254,0.972678
805,1366,3.31152,-0.0227763,0.262972,0.972688
807,1364,3.31132,-0.0228253,0.263341,0.972644
809,1362,3.31095,-0.0234171,0.263252,0.972369
811,1360,3.3111,-0.0234407,0.263251,0.972343
813,1358,3.31138,-0.0234484,0.263246,0.972343
815,1356,3.31128,-0.0233545,0.263252,0.972414
817,1354,3.31085,-0.0241879,0.263761,0.97177
819,1352,3.31074,-0.0242796,0.26367,0.971724
821,1350,3.31047,-0.0242415,0.263679,0.97177
823,1348,3.31005,-0.0242555,0.263674,0.971734
825,1346,3.31022,-0.0248481,0.263677,0.97147
827,1344,3.31018,-0.0248965,0.263677,0.971456
829,1342,3.3102,-0.0249115,0.263674,0.971441
831,1340,3.31185,-0.0221445,0.26266,0.970579
833,1338,3.3118,-0.0221609,0.262655,0.970579
835,1336,3.31142,-0.0222012,0.262646,0.970534
837,1334,3.31151,-0.0222049,0.26266,0.970551
839,1332,3.3114,-0.0222554,0.262651,0.970518
841,1330,3.3115,-0.0228392,0.26265,0.970244
843,1328,3.31159,-0.0228621,0.262719,0.970229
845,1326,3.3116,-0.0228889,0.262642,0.970205
847,1324,3.31071,-0.0236412,0.263075,0.969643
849,1322,3.31049,-0.0236067,0.263075,0.969654
851,1320,3.31064,-0.023647,0.263079,0.969655
853,1318,3.31083,-0.0243202,0.263081,0.969336
855,1316,3.31089,-0.0242391,0.263081,0.969376
857,1314,3.31091,-0.0242717,0.263081,0.969377
859,1312,3.31045,-0.0242741,0.263075,0.969345
861,1310,3.30965,-0.025097,0.263498,0.968726
863,1308,3.30935,-0.0251464,0.263503,0.968704
865,1306,3.30955,-0.025118,0.2635,0.968704
867,1304,3.3121,-0.0215055,0.261627,0.968695
869,1302,3.31208,-0.0222253,0.262437,0.968121
871,1300,3.31184,-0.0222304,0.261815,0.96814
873,1298,3.31148,-0.0223173,0.262054,0.96809
875,1296,3.31068,-0.023011,0.262734,0.967538
877,1294,3.31109,-0.0231688,0.262485,0.967471
879,1292,3.31118,-0.0229704,0.262055,0.967792
881,1290,3.31113,-0.0236938,0.262486,0.967225
883,1288,3.31107,-0.0236967,0.26248,0.967228
885,1286,3.31086,-0.0237681,0.262568,0.967193
887,1284,3.31012,-0.0244478,0.262904,0.96664
889,1282,3.31035,-0.0245155,0.26291,0.966621
891,1280,3.31038,-0.0243644,0.262474,0.966914
893,1278,3.31041,-0.0243462,0.262479,0.966916
895,1276,3.30995,-0.0252038,0.262999,0.966293
897,1274,3.30965,-0.0250574,0.262901,0.966341
899,1272,3.30873,-0.0252996,0.263239,0.965998
901,1270,3.30945,-0.0251811,0.2629,0.966276
903,1268,3.31139,-0.0223909,0.261884,0.965421
905,1266,3.31129,-0.0223716,0.261885,0.965445
907,1264,3.31112,-0.0223829,0.261883,0.965425
909,1262,3.31117,-0.023099,0.261878,0.965092
911,1260,3.30987,-0.0231823,0.262307,0.964829
913,1258,3.31069,-0.0230387,0.261885,0.965139
915,1256,3.31106,-0.0231094,0.261883,0.965102
917,1254,3.3106,-0.0238741,0.262311,0.964524
919,1252,3.31036,-0.0238069,0.262309,0.964555
921,1250,3.3102,-0.023975,0.262309,0.964466
923,1248,3.30945,-0.0245112,0.262304,0.964447
925,1246,3.3095,-0.0245674,0.262309,0.964184
927,1244,3.30992,-0.0245613,0.26231,0.964204
929,1242,3.30925,-0.0252794,0.262737,0.963631
931,1240,3.30916,-0.0253322,0.262734,0.963601
933,1238,3.30909,-0.0259458,0.262741,0.96332
935,1236,3.31029,-0.0225939,0.261715,0.96272
937,1234,3.31111,-0.0225192,0.261287,0.962975
939,1232,3.31101,-0.0224422,0.261277,0.963
941,1230,3.31056,-0.0232353,0.261713,0.962412
943,1228,3.31027,-0.0232693,0.261718,0.962408
945,1226,3.30998,-0.0233055,0.261461,0.962376
947,1224,3.31027,-0.0231852,0.261281,0.962666
949,1222,3.31024,-0.0240663,0.261717,0.962045
951,1220,3.31052,-0.0239478,0.261714,0.9621
953,1218,3.31029,-0.0239988,0.262037,0.962064
955,1216,3.30955,-0.0245823,0.261711,0.961783
957,1214,3.3095,-0.0246399,0.261703,0.961741
959,1212,3.3095,-0.0246833,0.261714,0.961742
961,1210,3.30962,-0.0245184,0.261713,0.961836
963,1208,3.30924,-0.0254683,0.262138,0.961147
965,1206,3.30893,-0.0255598,0.262152,0.961134
967,1204,3.31091,-0.0219365,0.260694,0.959587
969,1202,3.31037,-0.0226982,0.261118,0.960264
971,1200,3.31088,-0.0226153,0.260688,0.960532
973,1198,3.31024,-0.0227398,0.261119,0.960248
975,1196,3.3102,-0.0233517,0.261113,0.959949
977,1194,3.30989,-0.0233951,0.26112,0.959944
979,1192,3.30997,-0.0234671,0.261117,0.959926
981,1190,3.31019,-0.024091,0.26137,0.959629
983,1188,3.31048,-0.0240751,0.261119,0.95965
985,1186,3.30993,-0.0241375,0.261116,0.959609
987,1184,3.3092,-0.0248967,0.261544,0.959004
989,1182,3.30894,-0.0249475,0.261556,0.959008
991,1180,3.30904,-0.025812,0.261996,0.95842
993,1178,3.30872,-0.0256329,0.261983,0.958455
995,1176,3.30922,-0.0255837,0.261554,0.958717
997,1174,3.31056,-0.0227127,0.260523,0.957846
999,1172,3.31049,-0.0227574,0.260519,0.957819
1001,1170,3.31015,-0.0228415,0.260518,0.957801
1003,1168,3.30981,-0.0235651,0.260956,0.957231
1005,1166,3.30938,-0.0235016,0.260943,0.957244
1007,1164,3.30938,-0.0235898,0.260946,0.957209
1009,1162,3.30957,-0.0234886,0.260518,0.95749
1011,1160,3.3095,-0.024256,0.260949,0.956909
1013,1158,3.30966,-0.0241985,0.260945,0.956759
1015,1156,3.30918,-0.0242901,0.261332,0.956878
1017,1154,3.30832,-0.0251579,0.261388,0.956279
1019,1152,3.30852,-0.0251206,0.261388,0.956302
1021,1150,3.30875,-0.0257782,0.26139,0.956001
1023,1148,3.30869,-0.0256984,0.261389,0.956044
1025,1146,3.31059,-0.0221681,0.259922,0.955697
1027,1144,3.30999,-0.022981,0.260352,0.955082
1029,1142,3.30954,-0.0230005,0.260358,0.955075
1031,1140,3.31038,-0.0228865,0.260168,0.955171
1033,1138,3.3096,-0.023577,0.260349,0.954802
1035,1136,3.30923,-0.0235613,0.260346,0.954799
1037,1134,3.30937,-0.0236865,0.260438,0.954751
1039,1132,3.30938,-0.0244113,0.260354,0.954424
1041,1130,3.30897,-0.0244898,0.260789,0.954167
1043,1128,3.30932,-0.0243565,0.260339,0.954422
1045,1126,3.30846,-0.025223,0.260783,0.953806
1047,1124,3.30803,-0.0251386,0.260788,0.953863
1049,1122,3.3083,-0.0252086,0.260782,0.954065
1051,1120,3.30845,-0.0257814,0.260781,0.953551
1053,1118,3.31057,-0.0222066,0.259318,0.953262
1055,1116,3.30966,-0.0230705,0.259754,0.952619
1057,1114,3.30965,-0.0230452,0.260084,0.952645
1059,1112,3.30975,-0.0229957,0.259752,0.952651
1061,1110,3.3093,-0.0238416,0.26019,0.952048
1063,1108,3.30861,-0.0238584,0.260192,0.952032
1065,1106,3.30877,-0.0238788,0.260189,0.952026
1067,1104,3.30919,-0.0245907,0.260196,0.951727
1069,1102,3.30892,-0.0244926,0.26019,0.952001
1071,1100,3.30853,-0.0245539,0.26019,0.950437
1073,1098,3.30785,-0.025428,0.260629,0.951091
1075,1096,3.30746,-0.0254442,0.260635,0.951108
1077,1094,3.30797,-0.0259906,0.260633,0.950849
1079,1092,3.30783,-0.0260761,0.261028,0.950824
1081,1090,3.30887,-0.022577,0.259593,0.9502
1083,1088,3.30933,-0.023239,0.259593,0.949908
1085,1086,3.3097,-0.0230992,0.259486,0.950209
1087,1084,3.30953,-0.0230761,0.259154,0.950214
1089,1082,3.30862,-0.0239586,0.259591,0.949576
1091,1080,3.30879,-0.02402,0.259599,0.949559
1093,1078,3.30907,-0.0245791,0.259585,0.94928
1095,1076,3.30862,-0.0247758,0.260033,0.949223
1097,1074,3.30828,-0.025409,0.260032,0.948686
1099,1072,3.30774,-0.0255077,0.260029,0.948633
1101,1070,3.30763,-0.0255072,0.260028,0.94864
1103,1068,3.30736,-0.026244,0.260554,0.948076
1105,1066,3.3069,-0.0262786,0.26047,0.948071
1107,1064,3.30876,-0.0226414,0.259006,0.947781
1109,1062,3.3097,-0.0121794,0.258348,0.947174
1111,1060,3.30798,-0.019542,0.259559,0.947488
1113,1058,3.30897,-0.0232206,0.25899,0.947749
1115,1056,3.30808,-0.0240978,0.259429,0.946856
1117,1054,3.30791,-0.0241393,0.259436,0.946847
1119,1052,3.30833,-0.024134,0.259435,0.946848
1121,1050,3.30808,-0.0248648,0.259434,0.946509
1123,1048,3.30779,-0.0248569,0.259436,0.946767
1125,1046,3.30801,-0.0256207,0.25943,0.946167
1127,1044,3.30786,-0.0255529,0.259428,0.946189
1129,1042,3.30709,-0.0263548,0.26022,0.945594
1131,1040,3.30678,-0.0264421,0.259878,0.945568
1133,1038,3.30696,-0.0263989,0.259878,0.945607
1135,1036,3.30965,-0.0234066,0.258724,0.944987
1137,1034,3.3091,-0.0233941,0.258393,0.944993
1139,1032,3.30807,-0.0235225,0.258833,0.944696
1141,1030,3.30831,-0.0242474,0.258836,0.944377
1143,1028,3.30829,-0.0242985,0.258839,0.944353
1145,1026,3.30774,-0.0242918,0.258831,0.944339
1147,1024,3.307675,-0.0249123,0.258829,0.944052
1149,1022,3.30829,-0.0249968,0.258826,0.94401
1151,1020,3.30708,-0.0257412,0.259272,0.943453
1153,1018,3.30686,-0.0258636,0.259278,0.9434
1155,1016,3.30694,-0.0265135,0.259665,0.943094
1157,1014,3.30696,-0.0264984,0.259274,0.943115
1159,1012,3.30681,-0.0265025,0.259271,0.943106
1161,1010,3.30839,-0.0237024,0.258237,0.94217
1163,1008,3.30864,-0.0236034,0.258228,0.942212
1165,1006,3.3087,-0.0235574,0.258233,0.942255
1167,1004,3.30748,-0.0244614,0.258674,0.941594
1169,1002,3.30731,-0.0244169,0.258677,0.941619
1171,1000,3.30787,-0.0251149,0.258678,0.941316
1173,998,3.30748,-0.0251584,0.258676,0.941298
1175,996,3.30651,-0.0259989,0.25912,0.940684
1177,994,3.30736,-0.0259354,0.258677,0.940938
1179,992,3.30692,-0.025839,0.258665,0.940961
1181,990,3.30609,-0.0266978,0.259114,0.940349
1183,988,3.30596,-0.0267692,0.259109,0.940305
1185,986,3.30828,-0.0229229,0.257626,0.940072
1187,984,3.30829,-0.0236112,0.25802,0.939761
1189,982,3.30769,-0.0238623,0.258317,0.939409
1191,980,3.3074,-0.0245343,0.258078,0.939129
1193,978,3.30748,-0.0244651,0.258073,0.939158
1195,976,3.30671,-0.0254558,0.258525,0.938479
1197,974,3.30647,-0.0254128,0.258524,0.9385
1199,972,3.30767,-0.0252269,0.258078,0.93882
1201,970,3.30666,-0.026055,0.258523,0.938209
1203,968,3.30631,-0.0261417,0.258528,0.938187
1205,966,3.30643,-0.0267711,0.258518,0.937892
1207,964,3.30535,-0.0269448,0.258974,0.937591
1209,962,3.30765,-0.0238779,0.257478,0.936981
1211,960,3.30816,-0.0238551,0.257474,0.936991
1213,958,3.30753,-0.0238715,0.257477,0.936989
1215,956,3.30656,-0.0246935,0.257934,0.936384
1217,954,3.30741,-0.0246839,0.257476,0.936631
1219,952,3.3064,-0.0254496,0.257928,0.93606
1221,950,3.30616,-0.0254493,0.257923,0.936041
1223,948,3.3065,-0.0255431,0.257921,0.936
1225,946,3.3057,-0.0263002,0.258371,0.935436
1227,944,3.30556,-0.0263367,0.258376,0.935425
1229,942,3.30536,-0.0270565,0.258767,0.935098
1231,940,3.30761,-0.023235,0.256872,0.934803
1233,938,3.30687,-0.0240655,0.257326,0.934212
1235,936,3.30693,-0.0241606,0.257319,0.934163
1237,934,3.30723,-0.024805,0.257324,0.933891
1239,932,3.30674,-0.0248669,0.257333,0.933885
1241,930,3.3066,-0.0248448,0.257332,0.933887
1243,928,3.30604,-0.0256329,0.25778,0.933307
1245,926,3.3057,-0.0256841,0.257779,0.933272
1247,924,3.30576,-0.0264693,0.257777,0.932933
1249,922,3.30587,-0.0263915,0.257775,0.931467
1251,920,3.30486,-0.0272702,0.258477,0.932344
1253,918,3.30504,-0.0271694,0.257784,0.932636
1255,916,3.30707,-0.0241636,0.25673,0.931749
1257,914,3.30644,-0.0241851,0.256723,0.931701
1259,912,3.30612,-0.025058,0.257578,0.931117
1261,910,3.3067,-0.0249231,0.257056,0.931412
1263,908,3.30566,-0.0258291,0.257178,0.930752
1265,906,3.30583,-0.0257767,0.25718,0.930789
1267,904,3.30505,-0.0266217,0.257628,0.930176
1269,902,3.30468,-0.0267187,0.257632,0.930131
1271,900,3.30551,-0.0264381,0.257174,0.930499
1273,898,3.30458,-0.0274119,0.257637,0.929841
1275,896,3.30454,-0.0274219,0.25763,0.930074
1277,894,3.30694,-0.0242578,0.256122,0.92924
1279,892,3.30583,-0.0244497,0.256582,0.928928
1281,890,3.30623,-0.0251255,0.256584,0.928641
1283,888,3.306,-0.0251352,0.256584,0.928632
1285,886,3.30547,-0.0260791,0.257034,0.927978
1287,884,3.30576,-0.0257915,0.256582,0.928348
1289,882,3.30486,-0.0268092,0.257038,0.927654
1291,880,3.30461,-0.026802,0.257039,0.92792
1293,878,3.3049,-0.0274388,0.257031,0.927377
1295,876,3.30572,-0.0197417,0.255769,0.92705
1297,874,3.30654,-0.0243083,0.255978,0.92652
1299,872,3.30521,-0.0206647,0.256227,0.926408
1301,870,3.30585,-0.0245163,0.255979,0.926433
1303,868,3.30528,-0.0253072,0.256433,0.925855
1305,866,3.30481,-0.0253729,0.256432,0.92582
1307,864,3.30546,-0.0260642,0.256428,0.925497
1309,862,3.30484,-0.0260784,0.256427,0.925492
1311,860,3.30475,-0.0268503,0.256434,0.925182
1313,858,3.30392,-0.0270436,0.256896,0.924869
1315,856,3.30368,-0.0278122,0.256895,0.924524
1317,854,3.30612,-0.023837,0.255777,0.924277
1319,852,3.30541,-0.0247773,0.255832,0.923611
1321,850,3.30513,-0.0206158,0.255342,0.923972
1323,848,3.30508,-0.0254934,0.255841,0.923309
1325,846,3.30527,-0.0253644,0.255824,0.923342
1327,844,3.30501,-0.0261574,0.255831,0.923019
1329,842,3.30439,-0.0264029,0.256295,0.922688
1331,840,3.30429,-0.0269389,0.256289,0.922431
1333,838,3.30363,-0.0271867,0.256299,0.922342
1335,836,3.30398,-0.0278035,0.256292,0.922072
1337,834,3.3032,-0.0278441,0.256292,0.922053
1339,832,3.30527,-0.0247477,0.255232,0.921158
1341,830,3.30519,-0.0248453,0.255233,0.921133
1343,828,3.30459,-0.0256841,0.255691,0.920514
1345,826,3.30472,-0.0255187,0.255231,0.920831
1347,824,3.30411,-0.0265326,0.255937,0.920162
1349,822,3.30399,-0.0263864,0.255696,0.920233
1351,820,3.30495,-0.0195129,0.254875,0.919232
1353,818,3.30544,-0.0192546,0.254405,0.919584
1355,816,3.30302,-0.0281316,0.256151,0.919221
1357,814,3.30305,-0.0281482,0.256153,0.919218
1359,812,3.30514,-0.0248741,0.254619,0.918627
1361,810,3.30512,-0.0249697,0.254632,0.918611
1363,808,3.30378,-0.0218097,0.255654,0.917991
1365,806,3.30404,-0.025848,0.255093,0.917981
1367,804,3.30486,-0.0265807,0.255083,0.917657
1369,802,3.30379,-0.0266191,0.255087,0.917637
1371,800,3.30366,-0.0274151,0.255544,0.917048
1373,798,3.30475,-0.0195898,0.254665,0.916701
1375,796,3.30333,-0.0282089,0.255549,0.916716
1377,794,3.30548,-0.0242691,0.254021,0.916409
1379,792,3.3044,-0.0251123,0.254486,0.915807
1381,790,3.30454,-0.0250402,0.254482,0.915832
1383,788,3.30377,-0.0261582,0.254961,0.915133
1385,786,3.3043,-0.0259182,0.254488,0.915472
1387,784,3.30334,-0.026875,0.254955,0.914821
1389,782,3.30399,-0.0266806,0.254882,0.915127
1391,780,3.30212,-0.027689,0.255415,0.914208
1393,778,3.30317,-0.0276344,0.254945,0.914472
1395,776,3.30225,-0.0285163,0.255415,0.913862
1397,774,3.3027,-0.0283915,0.254945,0.914156
1399,772,3.30443,-0.0252413,0.25387,0.913237
1401,770,3.30388,-0.0252631,0.253877,0.913239
1403,768,3.30448,-0.0260497,0.25411,0.91289
1405,766,3.3034,-0.0263357,0.254348,0.912559
1407,764,3.30343,-0.0269216,0.254351,0.91232
1409,762,3.3031,-0.0270048,0.254343,0.912259
1411,760,3.3029,-0.0276558,0.254748,0.911999
1413,758,3.30236,-0.0286869,0.254818,0.911313
1415,756,3.30229,-0.0286014,0.254812,0.911356
1417,754,3.30356,-0.021329,0.253846,0.910718
1419,752,3.30446,-0.0253241,0.25327,0.910731
1421,750,3.30323,-0.0261828,0.253736,0.910127
1423,748,3.30341,-0.0263235,0.253735,0.910054
1425,746,3.30311,-0.0270225,0.254142,0.909776
1427,744,3.30301,-0.0270323,0.253726,0.909733
1429,742,3.3021,-0.0279072,0.254206,0.909144
1431,740,3.30182,-0.0279771,0.254205,0.909107
1433,738,3.30198,-0.0288066,0.254204,0.908746
1435,736,3.30394,-0.024735,0.252656,0.908454
1437,734,3.30359,-0.025596,0.253133,0.907868
1439,732,3.30308,-0.0264154,0.253132,0.907522
1441,730,3.30324,-0.0263407,0.253132,0.907562
1443,728,3.30225,-0.0273172,0.253608,0.906909
1445,726,3.30226,-0.0273003,0.253608,0.906921
1447,724,3.30226,-0.0281233,0.253846,0.906561
1449,722,3.30206,-0.0279963,0.253601,0.906617
1451,720,3.30088,-0.0289594,0.254403,0.90597
1453,718,3.30352,-0.0249063,0.252523,0.905648
1455,716,3.30316,-0.0258484,0.252528,0.905263
1457,714,3.30356,-0.0264307,0.252524,0.905028
1459,712,3.30238,-0.0266139,0.253,0.904697
1461,710,3.30239,-0.0273673,0.253001,0.90439
1463,708,3.30161,-0.0283491,0.253474,0.903714
1465,706,3.30143,-0.0283515,0.25347,0.903724
1467,704,3.30131,-0.0290789,0.25347,0.903401
1469,702,3.30343,-0.0250394,0.251914,0.903096
1471,700,3.30268,-0.0260612,0.252391,0.900913
1473,698,3.30264,-0.0259212,0.252389,0.902466
1475,696,3.30229,-0.0266957,0.252391,0.90215
1477,694,3.30221,-0.0277579,0.252874,0.901478
1479,692,3.30121,-0.0276578,0.252951,0.901512
1481,690,3.30129,-0.0284573,0.252869,0.901175
1483,688,3.30088,-0.028419,0.25287,0.901198
1485,686,3.30047,-0.0293799,0.253351,0.900556
1487,684,3.30287,-0.026064,0.251785,0.899898
1489,682,3.30235,-0.0260715,0.251786,0.899903
1491,680,3.3017,-0.0270194,0.252265,0.899268
1493,678,3.30175,-0.0269911,0.252265,0.899282
1495,676,3.30112,-0.0277241,0.252268,0.898969
1497,674,3.30126,-0.0277175,0.25226,0.898971
1499,672,3.30022,-0.0287184,0.252743,0.898312
1501,670,3.30031,-0.0295269,0.252739,0.897962
1503,668,3.30237,-0.0253905,0.251178,0.897654
1505,666,3.30277,-0.0261231,0.25118,0.897376
1507,664,3.30165,-0.0271203,0.251733,0.896706
1509,662,3.30157,-0.0270868,0.251665,0.896742
1511,660,3.30065,-0.0281317,0.252154,0.896065
1513,658,3.30146,-0.0278502,0.251661,0.896433
1515,656,3.30034,-0.0288336,0.252139,0.895747
1517,654,3.30034,-0.0296052,0.252141,0.895451
1519,652,3.29919,-0.029824,0.252625,0.895097
1521,650,3.30203,-0.0263236,0.251055,0.894519
1523,648,3.30148,-0.026463,0.25105,0.894444
1525,646,3.30165,-0.0272073,0.251052,0.894155
1527,644,3.30033,-0.0282192,0.251533,0.893483
1529,642,3.30064,-0.0281883,0.251541,0.893521
1531,640,3.29963,-0.0292063,0.252256,0.89283
1533,638,3.29971,-0.0298953,0.252013,0.892545
1535,636,3.29939,-0.0299681,0.252023,0.892525
1537,634,3.30074,-0.0266457,0.250938,0.891619
1539,632,3.30145,-0.0265058,0.25045,0.891932
1541,630,3.30031,-0.0276325,0.250939,0.891233
1543,628,3.30065,-0.0283394,0.250937,0.890945
1545,626,3.29919,-0.0292663,0.251417,0.890534
1547,624,3.30152,-0.0206278,0.249567,0.890305
1549,622,3.29873,-0.0301777,0.251421,0.889926
1551,620,3.30156,-0.0259437,0.249843,0.889635
1553,618,3.30055,-0.0268718,0.250332,0.889005
1555,616,3.30058,-0.0276275,0.250326,0.887282
1557,614,3.30019,-0.0277197,0.250324,0.888638
1559,612,3.3014,-0.0198985,0.24963,0.888036
1561,610,3.29964,-0.0295051,0.250818,0.88768
1563,608,3.29892,-0.0293313,0.250815,0.887748
1565,606,3.29828,-0.0303428,0.251312,0.887084
1567,604,3.30068,-0.0261319,0.24945,0.886749
1569,602,3.30086,-0.0269344,0.249718,0.886423
1571,600,3.2994,-0.0279601,0.250209,0.885752
1573,598,3.29961,-0.028781,0.250211,0.885437
1575,596,3.29904,-0.0288863,0.250209,0.885402
1577,594,3.29914,-0.0295181,0.250204,0.885125
1579,592,3.29836,-0.0305468,0.250693,0.884451
1581,590,3.30052,-0.0261806,0.249105,0.884189
1583,588,3.30037,-0.0271295,0.249098,0.883761
1585,586,3.29984,-0.0280423,0.249818,0.883149
1587,584,3.29944,-0.0280597,0.249596,0.883161
1589,582,3.29915,-0.0289199,0.249595,0.882817
1591,580,3.29888,-0.0288477,0.249588,0.882838
1593,578,3.29831,-0.029842,0.25008,0.882173
1595,576,3.29824,-0.030614,0.250083,0.881864
1597,574,3.3002,-0.0263757,0.248492,0.88153
1599,572,3.29963,-0.0272479,0.248982,0.880927
1601,570,3.29897,-0.0283021,0.249219,0.880242
1603,568,3.29878,-0.0283177,0.249483,0.88025
1605,566,3.29833,-0.0290894,0.249482,0.879939
1607,564,3.29738,-0.030159,0.249976,0.879245
1609,562,3.29808,-0.0299489,0.249477,0.879594
1611,560,3.29703,-0.0309821,0.249982,0.878937
1613,558,3.29959,-0.0274152,0.248698,0.878309
1615,556,3.29916,-0.0275807,0.248379,0.87824
1617,554,3.29812,-0.028404,0.2491,0.877645
1619,552,3.2986,-0.0292775,0.248871,0.877303
1621,550,3.29769,-0.0292911,0.248868,0.877295
1623,548,3.29697,-0.0301578,0.249372,0.876709
1625,546,3.29615,-0.0313167,0.249867,0.875956
1627,544,3.2993,-0.0266301,0.247829,0.876037
1629,542,3.29848,-0.0278508,0.248263,0.875303
1631,540,3.29792,-0.0285317,0.248256,0.875016
1633,538,3.29832,-0.0286196,0.248255,0.874985
1635,536,3.297,-0.0296126,0.249179,0.874335
1637,534,3.29729,-0.0303648,0.248983,0.87402
1639,532,3.29593,-0.0314776,0.249258,0.873329
1641,530,3.29869,-0.0269612,0.247642,0.873069
1643,528,3.29742,-0.0280165,0.24816,0.872415
1645,526,3.29769,-0.0288127,0.248162,0.872113
1647,524,3.29717,-0.0290055,0.248164,0.872028
1649,522,3.29619,-0.0298256,0.248662,0.871431
1651,520,3.29637,-0.0306921,0.248651,0.871078
1653,518,3.29512,-0.0317326,0.249161,0.870413
1655,516,3.29831,-0.0271156,0.247031,0.870409
1657,514,3.29735,-0.0282475,0.247859,0.869704
1659,512,3.29739,-0.0357181,0.247035,0.869415
1661,510,3.2968,-0.0268286,0.247028,0.869352
1663,508,3.29675,-0.0365127,0.247029,0.869106
1665,506,3.2958,-0.0284877,0.247531,0.868431
1667,504,3.29589,-0.0361836,0.247024,0.868042
1669,502,3.29775,-0.0340028,0.245913,0.867775
1671,500,3.29687,-0.032698,0.245825,0.867114
1673,498,3.29742,-0.0289574,0.244901,0.866732
1675,496,3.2973,-0.0297739,0.244896,0.866398
1677,494,3.29608,-0.030709,0.245405,0.865776
1679,492,3.29491,-0.0341464,0.246414,0.865105
1681,490,3.29889,-0.0247922,0.243274,0.865097
1683,488,3.29777,-0.0281708,0.244287,0.864463
1685,486,3.29764,-0.0267013,0.243781,0.864105
1687,484,3.29721,-0.0290594,0.244276,0.864105
1689,482,3.2964,-0.027763,0.244283,0.863431
1691,480,3.29665,-0.0285819,0.244282,0.863115
1693,478,3.29553,-0.0297379,0.245197,0.8624
1695,476,3.29766,-0.0349748,0.243163,0.861866
1697,474,3.29764,-0.0260354,0.24316,0.86177
1699,472,3.29698,-0.033796,0.243156,0.861129
1701,470,3.29659,-0.0370383,0.243663,0.860813
1703,468,3.29482,-0.0371395,0.244163,0.860504
1705,466,3.29682,-0.0331262,0.242652,0.86047
1707,464,3.29497,-0.0365761,0.243654,0.859789
1709,462,3.29811,-0.0282147,0.241031,0.859137
1711,460,3.29734,-0.0306045,0.241522,0.859119
1713,458,3.29682,-0.0292161,0.241516,0.85847
1715,456,3.29654,-0.032513,0.242028,0.858137
1717,454,3.29552,-0.0310741,0.242026,0.857511
1719,452,3.29559,-0.031167,0.242024,0.857475
1721,450,3.29414,-0.0322279,0.242531,0.856815
1723,448,3.29794,-0.0351501,0.239893,0.856504
1725,446,3.29689,-0.0271612,0.240391,0.855768
1727,444,3.296,-0.0281146,0.241115,0.855156
1729,442,3.29546,-0.0373947,0.240899,0.855145
1731,440,3.29541,-0.0358572,0.240396,0.854806
1733,438,3.29538,-0.0366604,0.240392,0.854484
1735,436,3.29698,-0.0331937,0.239262,0.853505
1737,434,3.29708,-0.0308248,0.238763,0.853502
1739,432,3.29611,-0.034288,0.239762,0.852852
1741,430,3.29584,-0.0326482,0.239254,0.852523
1743,428,3.29526,-0.036004,0.239762,0.852188
1745,426,3.29514,-0.0322755,0.23926,0.851509
1747,424,3.29761,-0.0286303,0.237841,0.850845
1749,422,3.29734,-0.0263668,0.237134,0.850797
1751,420,3.29621,-0.0296171,0.238123,0.850218
1753,418,3.29586,-0.0376541,0.237628,0.849763
1755,416,3.29566,-0.0382518,0.237627,0.849547
1757,414,3.29532,-0.0302196,0.238125,0.84882
1759,412,3.29689,-0.0347145,0.236482,0.848564
1761,410,3.29703,-0.0356703,0.236483,0.848198
1763,408,3.29634,-0.0343446,0.236482,0.847531
1765,406,3.29653,-0.0328053,0.235985,0.847182
1767,404,3.29495,-0.0363275,0.236975,0.846513
1769,402,3.29527,-0.0338021,0.236532,0.846548
1771,400,3.29722,-0.0325495,0.235334,0.845884
1773,398,3.2977,-0.0286228,0.234347,0.845542
1775,396,3.29657,-0.029766,0.234845,0.844844
1777,394,3.29583,-0.0283411,0.234843,0.844437
1779,392,3.29579,-0.0386358,0.234845,0.84385
1781,390,3.29527,-0.030231,0.234844,0.843504
1783,388,3.29768,-0.0348696,0.233205,0.843215
1785,386,3.2968,-0.0267077,0.2337,0.842508
1787,384,3.29674,-0.0344302,0.233209,0.842216
1789,382,3.29624,-0.0352683,0.233201,0.841884
1791,380,3.29538,-0.0363671,0.233693,0.841205
1793,378,3.29512,-0.0363402,0.233691,0.841231
1795,376,3.29755,-0.0327173,0.232064,0.84057
1797,374,3.298,-0.0287808,0.231079,0.840192
1799,372,3.29612,-0.034594,0.232545,0.83958
1801,370,3.29591,-0.030741,0.232319,0.838907
1803,368,3.29592,-0.031832,0.232056,0.838529
1805,366,3.29468,-0.0328387,0.232546,0.837881
1807,364,3.29712,-0.0282095,0.230905,0.837575
1809,362,3.29725,-0.0267715,0.230417,0.83719
1811,360,3.29672,-0.0368565,0.230406,0.836921
1813,358,3.29776,-0.0193401,0.229422,0.836142
1815,356,3.29544,-0.0364165,0.230415,0.835757
1817,354,3.29466,-0.0399937,0.231396,0.835273
1819,352,3.29696,-0.0337353,0.229259,0.834612
1821,350,3.29711,-0.0337827,0.229259,0.834604
1823,348,3.29526,-0.0373025,0.230234,0.833946
1825,346,3.29641,-0.0307869,0.229059,0.833582
1827,344,3.29537,-0.0344626,0.229734,0.83288
1829,342,3.29467,-0.0352686,0.229738,0.831366
1831,340,3.29732,-0.0307069,0.228096,0.832243
1833,338,3.29679,-0.0293617,0.228095,0.831558
1835,336,3.29815,-0.0207857,0.226983,0.830942
1837,334,3.29487,-0.0337169,0.229072,0.830618
1839,332,3.29541,-0.0391521,0.228093,0.830282
1841,330,3.29527,-0.0306524,0.228083,0.829896
1843,328,3.29685,-0.036485,0.22693,0.828949
1845,326,3.29668,-0.0269619,0.227338,0.82897
1847,324,3.29617,-0.0375228,0.226934,0.828578
1849,322,3.29624,-0.0358012,0.226438,0.828275
1851,320,3.29521,-0.0369589,0.226924,0.827591
1853,318,3.2947,-0.0368507,0.227124,0.827615
1855,316,3.29693,-0.0333947,0.225762,0.826591
1857,314,3.29704,-0.0293242,0.224792,0.826261
1859,312,3.29653,-0.0326789,0.225275,0.825952
1861,310,3.29525,-0.033874,0.22576,0.825243
1863,308,3.29623,-0.0298201,0.224789,0.824903
1865,306,3.29434,-0.0358882,0.22625,0.824262
1867,304,3.29732,-0.0270867,0.223626,0.823596
1869,302,3.29677,-0.0282389,0.224109,0.822919
1871,300,3.29613,-0.0290695,0.224107,0.822611
1873,298,3.29562,-0.0386233,0.224105,0.82262
1875,296,3.29463,-0.0301417,0.224588,0.82194
1877,294,3.29736,-0.0334453,0.222455,0.821275
1879,292,3.29684,-0.0368164,0.222929,0.820965
1881,290,3.29598,-0.0353015,0.222929,0.820332
1883,288,3.29597,-0.0363449,0.222923,0.819949
1885,286,3.29481,-0.0374523,0.223411,0.81952
1887,284,3.29571,-0.0347011,0.222439,0.819629
1889,282,3.294,-0.0383651,0.22341,0.818958
1891,280,3.29694,-0.0298,0.221266,0.817924
1893,278,3.29626,-0.0331714,0.221759,0.817653
1895,276,3.29537,-0.0317496,0.221749,0.816955
1897,274,3.29513,-0.0326285,0.22179,0.816632
1899,272,3.29458,-0.0313379,0.221748,0.81594
1901,270,3.2971,-0.027446,0.220089,0.815295
1903,268,3.29637,-0.0299316,0.220567,0.815329
1905,266,3.29549,-0.0390681,0.220566,0.814329
1907,264,3.29555,-0.0293919,0.220569,0.81433
1909,262,3.29464,-0.0399895,0.220572,0.814026
1911,260,3.29375,-0.0410439,0.221053,0.813377
1913,258,3.29627,-0.0373679,0.219385,0.812651
1915,256,3.29558,-0.035918,0.219389,0.812012
1917,254,3.2953,-0.0368982,0.219385,0.811643
1919,252,3.2945,-0.0354323,0.219382,0.810983
1921,250,3.29481,-0.0338329,0.2189,0.810643
1923,248,3.29568,-0.0326956,0.218197,0.809662
1925,246,3.29727,-0.0274983,0.216795,0.809945
1927,244,3.29574,-0.0310971,0.217712,0.809096
1929,242,3.29556,-0.0295619,0.217238,0.808956
1931,240,3.29461,-0.0331277,0.218236,0.808346
1933,238,3.29747,-0.026767,0.21605,0.807652
1935,236,3.29637,-0.0278142,0.216539,0.807038
1937,234,3.29603,-0.0288036,0.216529,0.806673
1939,232,3.29721,-0.0272515,0.214911,0.806047
1941,230,3.29439,-0.0406175,0.217012,0.805715
1943,228,3.2937,-0.0392529,0.217013,0.805013
1945,226,3.29583,-0.0376627,0.21582,0.804463
1947,224,3.29533,-0.0365187,0.215819,0.803688
1949,222,3.29548,-0.0347317,0.215327,0.803373
1951,220,3.29418,-0.0399681,0.216299,0.803388
1953,218,3.29473,-0.0331794,0.21485,0.803008
1955,216,3.29704,-0.0295214,0.213652,0.802222
1957,214,3.29584,-0.0329448,0.214137,0.801717
1959,212,3.29659,-0.0287923,0.213174,0.801339
1961,210,3.29478,-0.0324964,0.21413,0.800675
1963,208,3.29464,-0.0407231,0.213644,0.800349
1965,206,3.29374,-0.0345772,0.214608,0.799474
1967,204,3.29557,-0.0381299,0.212928,0.798706
1969,202,3.29515,-0.0391189,0.212928,0.798368
1971,200,3.29465,-0.0391235,0.212929,0.79837
1973,198,3.29483,-0.0374306,0.212851,0.798047
1975,196,3.29326,-0.0412375,0.21341,0.797383
1977,194,3.29629,-0.0346265,0.211251,0.796737
1979,192,3.29546,-0.0358109,0.211716,0.796043
1981,190,3.29534,-0.0341722,0.211242,0.795939
1983,188,3.29406,-0.0378009,0.2122,0.795101
1985,186,3.29338,-0.0387978,0.212201,0.79476
1987,184,3.29412,-0.0346302,0.211243,0.794366
1989,182,3.29511,-0.0334529,0.210512,0.793398
1991,180,3.2958,-0.0291929,0.209559,0.793037
1993,178,3.29454,-0.0329618,0.210511,0.792399
1995,176,3.29428,-0.0313148,0.210031,0.792044
1997,174,3.2935,-0.0338067,0.210508,0.792117
1999,172,3.29615,-0.0276146,0.20882,0.791021
2001,170,3.29439,-0.0334402,0.20892,0.790774
2003,168,3.29468,-0.0296064,0.209302,0.790084
2005,166,3.29393,-0.040536,0.20929,0.789772
2007,164,3.29421,-0.0389156,0.208815,0.789414
2009,162,3.2954,-0.0376483,0.208075,0.788707
2011,160,3.29628,-0.0335109,0.207129,0.788071
2013,158,3.29449,-0.0372513,0.208077,0.787441
2015,156,3.29458,-0.0356127,0.207604,0.787093
2017,154,3.29594,-0.0267898,0.206479,0.786096
2019,152,3.29651,-0.0301196,0.206186,0.785529
2021,150,3.29611,-0.0310995,0.205908,0.785424
2023,148,3.29546,-0.0296535,0.2059,0.784723
2025,146,3.29469,-0.040634,0.205901,0.784438
2027,144,3.29416,-0.0318346,0.206378,0.783731
2029,142,3.2936,-0.0401193,0.205901,0.782054
2031,140,3.29653,-0.0362103,0.204214,0.782749
2033,138,3.29472,-0.0399927,0.205153,0.78212
2035,136,3.29503,-0.0383019,0.204683,0.78179
2037,134,3.29409,-0.039537,0.205151,0.781107
2039,132,3.29274,-0.040635,0.205785,0.780451
2041,130,3.29609,-0.035458,0.203454,0.780455
2043,128,3.29528,-0.034,0.203448,0.779754
2045,126,3.295,-0.0349335,0.203444,0.779433
2047,124,3.29375,-0.0387168,0.204397,0.778833
2049,122,3.29426,-0.0318532,0.202978,0.778397
2051,120,3.29595,-0.0306763,0.202216,0.777407
2053,118,3.29543,-0.0315469,0.202213,0.777109
2055,116,3.29525,-0.0299756,0.201741,0.776732
2057,114,3.29419,-0.0310802,0.20237,0.776096
2059,112,3.29376,-0.042302,0.202206,0.775767
2061,110,3.29229,-0.043567,0.202676,0.775085
2063,108,3.29551,-0.036765,0.200505,0.774428
2065,106,3.29493,-0.0376988,0.200504,0.774127
2067,104,3.29449,-0.0362492,0.200503,0.773427
2069,102,3.29429,-0.0372181,0.2005,0.773105
2071,100,3.2963,-0.0306957,0.198954,0.772075
2073,98,3.29592,-0.0316122,0.198797,0.771774
2075,96,3.29483,-0.0328078,0.199259,0.771101
2077,94,3.2949,-0.0311685,0.198794,0.770737
2079,92,3.29452,-0.0321558,0.198792,0.770417
2081,90,3.29331,-0.0333533,0.199257,0.769755
2083,88,3.29585,-0.0394924,0.197568,0.769134
2085,86,3.29453,-0.040779,0.198013,0.768451
2087,84,3.29403,-0.0417529,0.198013,0.768136
2089,82,3.29402,-0.0400608,0.197547,0.767781
2091,80,3.29586,-0.0361849,0.196303,0.766785
2093,78,3.29562,-0.0371245,0.1963,0.766474
2095,76,3.2946,-0.0383394,0.196762,0.7658
2097,74,3.29439,-0.0393277,0.19676,0.765476
2099,72,3.29324,-0.0404127,0.197225,0.764855
2101,70,3.29549,-0.033912,0.195509,0.763779
2103,68,3.29514,-0.0348204,0.195507,0.763491
2105,66,3.29475,-0.0357664,0.195765,0.763183
2107,64,3.29445,-0.0343324,0.195503,0.762469
2109,62,3.29367,-0.0352646,0.195502,0.762167
2111,60,3.29693,-0.0285015,0.193325,0.761453
2113,58,3.29584,-0.0296986,0.193783,0.760784
2115,56,3.29554,-0.0305965,0.193781,0.760493
2117,54,3.29424,-0.0317951,0.194241,0.759838
2119,52,3.2935,-0.0433636,0.19424,0.759502
2121,50,3.2957,-0.0366669,0.192519,0.75848
2123,48,3.29551,-0.0376872,0.192774,0.758154
2125,46,3.29527,-0.0359039,0.192058,0.757828
2127,44,3.294,-0.0371758,0.192514,0.757143
2129,42,3.29412,-0.0355043,0.192055,0.756787
2131,40,3.2966,-0.0313121,0.190337,0.756133
2133,38,3.29558,-0.0325742,0.190791,0.755453
2135,36,3.2945,-0.0347119,0.191248,0.754497
2137,34,3.29436,-0.0357427,0.191248,0.754175
2139,32,3.29342,-0.0341634,0.191245,0.753497
2141,30,3.29619,-0.0300197,0.18966,0.752814
2143,28,3.29499,-0.0312045,0.189975,0.752164
2145,26,3.2944,-0.0428723,0.189972,0.75184
2147,24,3.29428,-0.0410623,0.189515,0.751515
2149,22,3.29299,-0.0422166,0.189969,0.751103
2151,20,3.29667,-0.0354195,0.187785,0.750137
2153,18,3.29532,-0.0390696,0.188238,0.749881
2155,16,3.29507,-0.0376305,0.188236,0.749168
2157,14,3.29338,-0.0416067,0.18915,0.748534
2159,12,3.29356,-0.0398227,0.18869,0.748197
2161,10,3.29616,-0.0355995,0.186955,0.747525
2163,8,3.29532,-0.0340478,0.186954,0.746846
2165,6,3.29539,-0.0322864,0.186511,0.746507
2167,4,3.29488,-0.0333993,0.186498,0.746157
2168,3,3.29386,-0.0345855,0.18695,0.745511