File: hust_correlation_analysis/matrices/HUST_9-8_cycle_feature_matrix.csv
cycle_number,rul,voltage,current,capacity,charge_capacity
1,2310,3.31154,0.0185895,0.286099,1.02791
4,2307,3.29775,-0.0142051,0.301131,1.0054
7,2304,3.29899,-0.0141333,0.300233,1.0111
10,2301,3.30105,-0.0140057,0.298921,1.01441
13,2298,3.30311,-0.0113411,0.297188,1.01667
16,2295,3.30444,-0.012626,0.296791,1.01882
19,2292,3.30558,-0.0107619,0.295521,1.02049
22,2289,3.30475,-0.0131955,0.295977,1.02154
25,2286,3.30585,-0.0126736,0.295145,1.02228
28,2283,3.30664,-0.0118798,0.294295,1.02312
31,2280,3.30679,-0.0119043,0.293874,1.02328
34,2277,3.30769,-0.0118368,0.29345,1.02354
37,2274,3.30803,-0.0112367,0.293132,1.02409
40,2271,3.30844,-0.0111448,0.292617,1.02432
43,2268,3.30864,-0.0112404,0.292619,1.02427
46,2265,3.30931,-0.0112126,0.29221,1.02448
49,2262,3.30841,-0.0112636,0.292212,1.02449
52,2259,3.30891,-0.011823,0.292201,1.02414
55,2256,3.30935,-0.0118501,0.291784,1.02433
58,2253,3.30882,-0.0118234,0.291795,1.02437
61,2250,3.30843,-0.012479,0.292591,1.0238
64,2247,3.30917,-0.0124766,0.292244,1.02399
67,2244,3.30905,-0.0124171,0.291787,1.02402
70,2241,3.30811,-0.0130665,0.29219,1.02345
73,2238,3.31024,-0.0106368,0.290901,1.02286
76,2235,3.31028,-0.0107389,0.290906,1.02283
79,2232,3.30961,-0.0112759,0.29091,1.02254
82,2229,3.30917,-0.0119428,0.291319,1.02197
85,2226,3.30985,-0.0119157,0.290908,1.02218
88,2223,3.30954,-0.0118322,0.290906,1.02223
91,2220,3.30918,-0.012523,0.29131,1.02164
94,2217,3.30958,-0.0124354,0.290901,1.02188
97,2214,3.30899,-0.013129,0.29131,1.02128
100,2211,3.31071,-0.0106529,0.29003,1.02074
103,2208,3.31062,-0.0106149,0.290485,1.02078
106,2205,3.31019,-0.0113195,0.290431,1.02016
109,2202,3.30982,-0.0113282,0.290427,1.02016
112,2199,3.31008,-0.0112823,0.290428,1.02017
115,2196,3.30996,-0.0119876,0.290434,1.01979
118,2193,3.30959,-0.01192,0.290431,1.01984
121,2190,3.30939,-0.0125856,0.29084,1.01927
124,2187,3.30946,-0.013246,0.290846,1.01892
127,2184,3.30897,-0.0131372,0.290845,1.01898
130,2181,3.31035,-0.0107508,0.289964,1.01814
133,2178,3.31051,-0.0106934,0.289955,1.01815
136,2175,3.31055,-0.0107052,0.290047,1.01792
139,2172,3.31,-0.0113438,0.289949,1.01776
142,2169,3.30996,-0.011264,0.289953,1.01783
145,2166,3.30993,-0.0120413,0.290368,1.01714
148,2163,3.30937,-0.0120213,0.29037,1.01722
151,2160,3.30899,-0.0126135,0.29079,1.01673
154,2157,3.30966,-0.0125642,0.290371,1.01694
157,2154,3.3096,-0.012581,0.290363,1.01692
160,2151,3.30869,-0.0131847,0.290644,1.0164
163,2148,3.30857,-0.0133306,0.290782,1.01632
166,2145,3.3104,-0.0107694,0.289903,1.01557
169,2142,3.31049,-0.0107084,0.289492,1.01582
172,2139,3.31009,-0.0113186,0.290365,1.0153
175,2136,3.31018,-0.0114476,0.290326,1.01502
178,2133,3.309393,-0.0120198,0.290403,1.0147
181,2130,3.3093,-0.0120577,0.290326,1.01469
184,2127,3.30953,-0.0120868,0.290331,1.01469
187,2124,3.30867,-0.0127407,0.290746,1.01413
190,2121,3.30854,-0.0127131,0.290739,1.01413
193,2118,3.30934,-0.0126986,0.290322,1.01433
196,2115,3.30842,-0.013286,0.290738,1.01381
199,2112,3.3082,-0.0132409,0.291131,1.01383
202,2109,3.30872,-0.0132797,0.290719,1.01375
205,2106,3.31008,-0.0108285,0.2903,1.01297
208,2103,3.30938,-0.0108483,0.289852,1.01298
211,2100,3.31024,-0.01082,0.289437,1.01321
214,2097,3.30971,-0.0114205,0.289849,1.01265
217,2094,3.30919,-0.011478,0.289859,1.01266
220,2091,3.30948,-0.0114393,0.289854,1.01267
223,2088,3.30912,-0.0121106,0.290261,1.01208
226,2085,3.30935,-0.012082,0.289854,1.01232
229,2082,3.30886,-0.0127471,0.290264,1.01174
232,2079,3.30868,-0.0127405,0.29026,1.01174
235,2076,3.30842,-0.0127278,0.290347,1.01172
238,2073,3.30864,-0.0127016,0.290254,1.01172
241,2070,3.30856,-0.0128045,0.290251,1.01163
244,2067,3.30835,-0.0132889,0.291066,1.00942
247,2064,3.30808,-0.0133871,0.291066,1.01086
250,2061,3.30708,-0.0129695,0.291061,1.01105
253,2058,3.3068,-0.0136994,0.291483,1.01026
256,2055,3.30923,-0.0108644,0.289757,1.01024
259,2052,3.309,-0.0108859,0.289758,1.01022
262,2049,3.30876,-0.0109966,0.290578,1.00997
265,2046,3.30831,-0.0116154,0.290174,1.00963
268,2043,3.30843,-0.0115928,0.290266,1.00964
271,2040,3.30866,-0.0123214,0.290183,1.00928
274,2037,3.30841,-0.0122574,0.289777,1.00955
277,2034,3.30788,-0.0128744,0.290192,1.00902
280,2031,3.30866,-0.0128145,0.290166,1.00925
283,2028,3.30816,-0.0128509,0.290185,1.00902
286,2025,3.30783,-0.0133655,0.290265,1.00871
289,2022,3.3082,-0.0135283,0.29018,1.00864
292,2019,3.30794,-0.0134177,0.290175,1.00868
295,2016,3.30902,-0.0110586,0.289298,1.00783
298,2013,3.30953,-0.0109302,0.288893,1.00814
301,2010,3.30911,-0.0116191,0.289313,1.00755
304,2007,3.30881,-0.0116318,0.28931,1.00756
307,2004,3.30898,-0.0115637,0.289294,1.00755
310,2001,3.30904,-0.012219,0.289292,1.0072
313,1998,3.30872,-0.0122173,0.289298,1.0072
316,1995,3.30848,-0.0123338,0.289709,1.0069
319,1992,3.30844,-0.0122845,0.289303,1.00719
322,1989,3.30791,-0.0128462,0.289715,1.00667
325,1986,3.30788,-0.0129226,0.289725,1.00667
328,1983,3.30823,-0.0135435,0.289721,1.00492
331,1980,3.30787,-0.0134981,0.289726,1.00635
334,1977,3.30759,-0.0135373,0.289727,1.00633
337,1974,3.30934,-0.0103988,0.288419,1.00606
340,1971,3.30953,-0.0110499,0.288828,1.00548
343,1968,3.30872,-0.0110881,0.288433,1.00548
346,1965,3.30905,-0.011612,0.288838,1.0052
349,1962,3.30923,-0.0117177,0.288843,1.00517
352,1959,3.30865,-0.0116381,0.288842,1.00521
355,1956,3.30844,-0.0122723,0.289261,1.00465
358,1953,3.30912,-0.0122955,0.288839,1.00483
361,1950,3.30846,-0.0122523,0.288835,1.00485
364,1947,3.30834,-0.0122398,0.28883,1.00485
367,1944,3.30847,-0.0130097,0.289254,1.00424
370,1941,3.30792,-0.0129036,0.28941,1.00431
373,1938,3.308,-0.0135657,0.289255,1.00395
376,1935,3.30812,-0.0135513,0.28926,1.00398
379,1932,3.30772,-0.0134999,0.289355,1.00402
382,1929,3.30941,-0.0110711,0.28837,1.00314
385,1926,3.30927,-0.0110455,0.288373,1.00316
388,1923,3.30921,-0.0110541,0.288377,1.00317
391,1920,3.30901,-0.011653,0.288375,1.00283
394,1917,3.30911,-0.0116293,0.288387,1.00289
397,1914,3.30937,-0.0116896,0.288383,1.00283
400,1911,3.30851,-0.0124001,0.2888,1.00225
403,1908,3.3082,-0.0123302,0.288807,1.0023
406,1905,3.30885,-0.0124174,0.288811,1.00228
409,1902,3.30847,-0.0123457,0.288356,1.00226
412,1899,3.30747,-0.0130308,0.289622,1.0017
415,1896,3.30842,-0.0130212,0.288796,1.00191
418,1893,3.30815,-0.0130059,0.288789,1.00189
421,1890,3.30752,-0.0136608,0.289238,1.00141
424,1887,3.30791,-0.0137408,0.289233,1.00137
427,1884,3.30954,-0.0103914,0.287924,1.0012
430,1881,3.30932,-0.0110593,0.288012,1.00085
433,1878,3.30976,-0.0110398,0.287924,1.00088
436,1875,3.30929,-0.0111035,0.287929,1.00083
439,1872,3.30878,-0.0117298,0.288342,1.00026
442,1869,3.3089,-0.0117315,0.288336,1.00026
445,1866,3.3088,-0.0117808,0.28835,1.00026
448,1863,3.30843,-0.012365,0.288348,0.99994
451,1860,3.30821,-0.0124032,0.288785,0.999751
454,1857,3.30875,-0.0124068,0.28835,0.999923
457,1854,3.30848,-0.0124446,0.288346,0.999903
460,1851,3.30763,-0.0130481,0.288759,0.999356
463,1848,3.30777,-0.0131269,0.288764,0.999326
466,1845,3.30834,-0.0130149,0.288427,0.999572
469,1842,3.30732,-0.0136301,0.288642,0.99903
472,1839,3.30763,-0.0137346,0.288761,0.99899
475,1836,3.30761,-0.0137161,0.288768,0.999012
478,1833,3.30914,-0.0110936,0.287443,0.998422
481,1830,3.30939,-0.011122,0.28744,0.998398
484,1827,3.30939,-0.0110848,0.287434,0.998396
487,1824,3.30877,-0.011173,0.287597,0.998345
490,1821,3.30938,-0.0111531,0.287435,0.998361
493,1818,3.30878,-0.0118284,0.287859,0.997794
496,1815,3.30828,-0.011935,0.288021,0.997754
499,1812,3.30862,-0.012474,0.28788,0.997503
502,1809,3.30883,-0.0125268,0.287884,0.997502
505,1806,3.30799,-0.0124493,0.288272,0.997516
508,1803,3.30826,-0.0124258,0.287866,0.997501
511,1800,3.30844,-0.0130425,0.287862,0.997169
514,1797,3.30806,-0.0130509,0.287861,0.997167
517,1794,3.3073,-0.0131924,0.288289,0.996882
520,1791,3.30772,-0.0138559,0.288296,0.996564
523,1788,3.30784,-0.0138028,0.288302,0.996609
526,1785,3.30898,-0.0112715,0.287571,0.995794
529,1782,3.30951,-0.0111924,0.286992,0.99604
532,1779,3.30962,-0.0111309,0.286987,0.996069
535,1776,3.30888,-0.0111895,0.286979,0.995999
538,1773,3.30908,-0.0111944,0.286973,0.995988
541,1770,3.30877,-0.011898,0.287402,0.995393
544,1767,3.30822,-0.0118512,0.287388,0.995402
547,1764,3.30854,-0.0118559,0.287401,0.995445
550,1761,3.30882,-0.012506,0.287413,0.995124
553,1758,3.30811,-0.0124776,0.287412,0.995148
556,1755,3.30813,-0.013145,0.287841,0.994584
559,1752,3.30822,-0.0132275,0.28783,0.994527
562,1749,3.30806,-0.01295,0.287398,0.994613
565,1746,3.3075,-0.0131798,0.287821,0.994513
568,1743,3.30779,-0.0138925,0.287826,0.994134
571,1740,3.30758,-0.0138488,0.287829,0.994456
574,1737,3.30766,-0.0137532,0.28784,0.99427
577,1734,3.30904,-0.0112948,0.287099,0.993391
580,1731,3.30916,-0.0112055,0.286947,0.993436
583,1728,3.30876,-0.0112453,0.28695,0.993435
586,1725,3.309,-0.0118368,0.286946,0.993109
589,1722,3.30895,-0.0118439,0.286948,0.993115
592,1719,3.30817,-0.0124941,0.287374,0.992549
595,1716,3.30851,-0.0125707,0.287381,0.992542
598,1713,3.30844,-0.0125394,0.287373,0.992538
601,1710,3.30751,-0.0125965,0.287382,0.992529
604,1707,3.30851,-0.0132029,0.28739,0.992233
607,1704,3.30812,-0.0132469,0.287387,0.992209
610,1701,3.30769,-0.013222,0.287385,0.992211
613,1698,3.3075,-0.0138887,0.288271,0.991644
616,1695,3.30717,-0.013937,0.287817,0.991646
619,1692,3.30769,-0.0138826,0.28739,0.991891
622,1689,3.30911,-0.0112615,0.286494,0.991074
625,1686,3.30885,-0.0113266,0.286494,0.991048
628,1683,3.30923,-0.0112738,0.286071,0.991288
631,1680,3.30837,-0.012057,0.287084,0.990461
634,1677,3.30874,-0.0119324,0.286486,0.990725
637,1674,3.30884,-0.0119204,0.286493,0.990746
640,1671,3.30839,-0.0119039,0.286492,0.990744
643,1668,3.30854,-0.0126742,0.286919,0.990124
646,1665,3.30872,-0.0125815,0.286488,0.990379
649,1662,3.30763,-0.0126664,0.286924,0.990143
652,1659,3.30841,-0.0125384,0.286482,0.990386
655,1656,3.3083,-0.0132686,0.286922,0.990068
658,1653,3.30796,-0.0131972,0.286147,0.99006
661,1650,3.30719,-0.0142203,0.287345,0.989087
664,1647,3.30815,-0.0138717,0.286914,0.989475
667,1644,3.30712,-0.0139667,0.286911,0.989421
670,1641,3.30748,-0.0138953,0.286912,0.989457
673,1638,3.30909,-0.0114453,0.286018,0.988567
676,1635,3.30908,-0.0113579,0.286023,0.988628
679,1632,3.30874,-0.0113297,0.286024,0.988644
682,1629,3.30911,-0.012018,0.286026,0.988283
685,1626,3.30863,-0.0119741,0.286027,0.98832
688,1623,3.30853,-0.0119691,0.286027,0.988323
691,1620,3.30877,-0.0127061,0.286023,0.987927
694,1617,3.30812,-0.0127201,0.28645,0.987703
697,1614,3.30818,-0.0126269,0.286026,0.987979
700,1611,3.30809,-0.0133887,0.286157,0.987372
703,1608,3.30815,-0.0133813,0.286918,0.987393
706,1605,3.30763,-0.0133407,0.286461,0.987413
709,1602,3.30768,-0.0138861,0.286449,0.987099
712,1599,3.30719,-0.0140365,0.286891,0.98685
715,1596,3.30898,-0.0114903,0.285973,0.986213
718,1593,3.30924,-0.0113848,0.285565,0.986265
721,1590,3.30902,-0.0114321,0.285567,0.986234
724,1587,3.30851,-0.0114432,0.28556,0.986222
727,1584,3.30844,-0.0114744,0.28555,0.986424
730,1581,3.30933,-0.0121423,0.28555,0.985813
733,1578,3.30845,-0.0120304,0.285544,0.986111
736,1575,3.30823,-0.0121002,0.285561,0.985667
739,1572,3.30873,-0.0127558,0.285558,0.985515
742,1569,3.30844,-0.0126607,0.285565,0.985583
745,1566,3.3077,-0.0134214,0.28614,0.984954
748,1563,3.30785,-0.0134521,0.285986,0.984954
751,1560,3.30759,-0.0133835,0.285988,0.984981
754,1557,3.30747,-0.013563,0.285984,0.984873
757,1554,3.30754,-0.0141004,0.28599,0.984622
760,1551,3.30769,-0.0140369,0.285993,0.984655
763,1548,3.30943,-0.0107676,0.284666,0.98439
766,1545,3.30898,-0.0116566,0.285097,0.983721
769,1542,3.30939,-0.0115487,0.285108,0.983801
772,1539,3.30851,-0.0121268,0.285097,0.98348
775,1536,3.30818,-0.0121029,0.28553,0.983272
778,1533,3.30913,-0.012136,0.284963,0.983471
781,1530,3.30834,-0.0121367,0.285089,0.983443
784,1527,3.30796,-0.0128531,0.285524,0.982866
787,1524,3.30861,-0.0128289,0.285252,0.983086
790,1521,3.30824,-0.0127091,0.285087,0.983155
793,1518,3.30781,-0.0134795,0.285526,0.982562
796,1515,3.30795,-0.0135831,0.28552,0.982478
799,1512,3.30747,-0.0135292,0.285514,0.982487
802,1509,3.30736,-0.0141783,0.28551,0.982136
805,1506,3.30778,-0.0141402,0.285649,0.982135
808,1503,3.30924,-0.011546,0.284625,0.981344
811,1500,3.30891,-0.0115741,0.284635,0.981361
814,1497,3.30884,-0.0115384,0.28449,0.981367
817,1494,3.30913,-0.0121074,0.284623,0.981065
820,1491,3.30875,-0.0122141,0.28463,0.981026
823,1488,3.30859,-0.0121453,0.284619,0.981027
826,1485,3.30867,-0.0122123,0.28462,0.980993
829,1482,3.30786,-0.0129138,0.285053,0.980421
832,1479,3.30796,-0.0129547,0.285051,0.980403
835,1476,3.30831,-0.0135491,0.28506,0.980118
838,1473,3.30803,-0.0135306,0.285063,0.980138
841,1470,3.30756,-0.0135563,0.285059,0.978661
844,1467,3.30745,-0.0142518,0.2855,0.979565
847,1464,3.30798,-0.0141549,0.285061,0.979815
850,1461,3.30902,-0.0115533,0.284165,0.978954
853,1458,3.30904,-0.011461,0.284159,0.979001
856,1455,3.30937,-0.011528,0.284161,0.978957
859,1452,3.30883,-0.0115397,0.284165,0.978964
862,1449,3.30848,-0.0122122,0.284602,0.978414
865,1446,3.30872,-0.0122925,0.284606,0.978379
868,1443,3.30787,-0.0129282,0.284599,0.97805
871,1440,3.30837,-0.0128245,0.284607,0.978116
874,1437,3.30841,-0.0130011,0.284597,0.977985
877,1434,3.30695,-0.0136669,0.28504,0.977449
880,1431,3.30713,-0.0136592,0.285033,0.97746
883,1428,3.30796,-0.0136102,0.284602,0.977697
886,1425,3.30714,-0.0142114,0.285032,0.977169
889,1422,3.30715,-0.0142844,0.285031,0.977129
892,1419,3.3092,-0.0116246,0.283699,0.97651
895,1416,3.30872,-0.0115787,0.283695,0.976524
898,1413,3.30817,-0.0116507,0.284138,0.976306
901,1410,3.30852,-0.0124211,0.284591,0.975905
904,1407,3.30825,-0.0123514,0.284141,0.975939
907,1404,3.30769,-0.0123689,0.28413,0.975914
910,1401,3.3074,-0.0129454,0.28456,0.975374
913,1398,3.30787,-0.0130646,0.284131,0.975543
916,1395,3.30766,-0.0130401,0.284128,0.97557
919,1392,3.30744,-0.0136956,0.284574,0.975031
922,1389,3.3072,-0.0137701,0.284579,0.975015
925,1386,3.30716,-0.0143132,0.284566,0.974716
928,1383,3.30699,-0.0143564,0.284564,0.974678
931,1380,3.30907,-0.0110866,0.283233,0.974376
934,1377,3.30844,-0.0117205,0.283672,0.973853
937,1374,3.30807,-0.011735,0.283667,0.973818
940,1371,3.30826,-0.0124351,0.283685,0.973505
943,1368,3.30858,-0.0122715,0.283695,0.97363
946,1365,3.30764,-0.0131143,0.284108,0.973169
949,1362,3.30769,-0.0130812,0.284271,0.972956
952,1359,3.30742,-0.01307,0.284115,0.972963
955,1356,3.30723,-0.0137359,0.284113,0.972601
958,1353,3.30701,-0.0137252,0.284192,0.972597
961,1350,3.30728,-0.0144023,0.284109,0.972259
964,1347,3.30648,-0.0145274,0.284541,0.972213
967,1344,3.30626,-0.0145029,0.284552,0.972012
970,1341,3.30859,-0.0117676,0.283224,0.971455
973,1338,3.30851,-0.0117491,0.283215,0.971451
976,1335,3.30802,-0.0124596,0.283655,0.970867
979,1332,3.30814,-0.0124252,0.283658,0.971053
982,1329,3.30749,-0.0124277,0.283656,0.970872
985,1326,3.30739,-0.0131233,0.283642,0.970478
988,1323,3.30741,-0.0131597,0.283644,0.970488
991,1320,3.30694,-0.0138352,0.28408,0.969908
994,1317,3.30659,-0.0139316,0.284085,0.969866
997,1314,3.30649,-0.0138238,0.284079,0.969921
1000,1311,3.30629,-0.0145223,0.284088,0.969565
1003,1308,3.30811,-0.011804,0.283189,0.968765
1006,1305,3.30796,-0.0118649,0.283202,0.968757
1009,1302,3.30774,-0.0118417,0.283193,0.968763
1012,1299,3.30761,-0.0124498,0.283196,0.968446
1015,1296,3.30695,-0.0125859,0.283638,0.968166
1018,1293,3.30743,-0.0133086,0.283641,0.967825
1021,1290,3.30695,-0.0132305,0.283642,0.967869
1024,1287,3.30631,-0.0139016,0.284085,0.967317
1027,1284,3.30692,-0.0139428,0.283656,0.967531
1030,1281,3.3065,-0.0138124,0.283635,0.967551
1033,1278,3.30582,-0.0145923,0.28408,0.966945
1036,1275,3.30867,-0.0111145,0.282752,0.966937
1039,1272,3.30773,-0.0118103,0.282738,0.966357
1042,1269,3.30751,-0.0119045,0.282732,0.966304
1045,1266,3.30708,-0.0126675,0.283638,0.965735
1048,1263,3.3072,-0.0131896,0.283185,0.965467
1051,1260,3.30708,-0.0132223,0.283282,0.965509
1054,1257,3.30696,-0.0132556,0.283188,0.965446
1057,1254,3.30666,-0.0139852,0.283628,0.964844
1060,1251,3.30584,-0.0139968,0.283629,0.964841
1063,1248,3.30611,-0.014642,0.283781,0.964492
1066,1245,3.30599,-0.0146679,0.283627,0.964489
1069,1242,3.30749,-0.0112724,0.282282,0.964212
1072,1239,3.30714,-0.0123916,0.282721,0.963415
1075,1236,3.3073,-0.0126567,0.282722,0.963301
1078,1233,3.30709,-0.0126378,0.282731,0.963328
1081,1230,3.30677,-0.0126247,0.282666,0.963299
1084,1227,3.30711,-0.0133606,0.282722,0.962937
1087,1224,3.30671,-0.013287,0.282717,0.962951
1090,1221,3.30566,-0.0140584,0.28316,0.962345
1093,1218,3.30608,-0.0140711,0.283609,0.962339
1096,1215,3.30551,-0.0147658,0.283599,0.961767
1099,1212,3.30494,-0.01485,0.283604,0.96173
1102,1209,3.30747,-0.0120417,0.282263,0.961166
1105,1206,3.30728,-0.0119636,0.282268,0.961223
1108,1203,3.3063,-0.0127871,0.282721,0.960608
1111,1200,3.30633,-0.012735,0.282712,0.960618
1114,1197,3.30687,-0.0134697,0.282708,0.960223
1117,1194,3.30585,-0.0134407,0.282706,0.960225
1120,1191,3.30571,-0.0141684,0.283151,0.959629
1123,1188,3.30573,-0.0142509,0.283154,0.959619
1126,1185,3.30454,-0.0149436,0.28361,0.958827
1129,1182,3.3047,-0.0149512,0.283614,0.959073
1132,1179,3.30707,-0.0122141,0.282257,0.958441
1135,1176,3.30656,-0.0120499,0.28272,0.958538
1138,1173,3.30653,-0.0126992,0.282253,0.958192
1141,1170,3.30649,-0.0128645,0.282259,0.958114
1144,1167,3.30564,-0.0134997,0.282716,0.957601
1147,1164,3.30528,-0.0134993,0.282702,0.957567
1150,1161,3.30587,-0.0142436,0.28316,0.957205
1153,1158,3.30499,-0.014921,0.283046,0.956655
1156,1155,3.30447,-0.0149599,0.28316,0.956645
1159,1152,3.30688,-0.0121489,0.281804,0.956024
1162,1149,3.30667,-0.0120648,0.282217,0.956081
1165,1146,3.30585,-0.0130136,0.282255,0.955387
1168,1143,3.30571,-0.0129228,0.282255,0.955443
1171,1140,3.30615,-0.0135586,0.282262,0.955131
1174,1137,3.30472,-0.0136691,0.282715,0.95487
1177,1134,3.3049,-0.0142719,0.282715,0.95458
1180,1131,3.30486,-0.0142651,0.282714,0.954565
1183,1128,3.30452,-0.0150662,0.282725,0.954192
1186,1125,3.30618,-0.0122288,0.281813,0.953381
1189,1122,3.30624,-0.0122059,0.281815,0.953393
1192,1119,3.3053,-0.013084,0.282269,0.952736
1195,1116,3.30498,-0.0130013,0.282266,0.952778
1198,1113,3.30521,-0.0136271,0.282228,0.952459
1201,1110,3.30482,-0.0136634,0.282718,0.952447
1204,1107,3.30433,-0.0144227,0.282723,0.951853
1207,1104,3.3044,-0.01508,0.282716,0.951521
1210,1101,3.30396,-0.0151896,0.282731,0.951504
1213,1098,3.30547,-0.0123592,0.281825,0.950671
1216,1095,3.30562,-0.0130041,0.28182,0.950344
1219,1092,3.30502,-0.0130437,0.281868,0.950324
1222,1089,3.30464,-0.0137759,0.282284,0.949757
1225,1086,3.30515,-0.0137052,0.281816,0.949987
1228,1083,3.3043,-0.0144509,0.282273,0.949412
1231,1080,3.3042,-0.014462,0.282273,0.949396
1234,1077,3.30342,-0.0151731,0.282735,0.948853
1237,1074,3.3057,-0.0115082,0.28092,0.948892
1240,1071,3.30542,-0.0123326,0.281368,0.948228
1243,1068,3.30536,-0.0130826,0.281374,0.947861
1246,1065,3.30483,-0.0129147,0.281369,0.947948
1249,1062,3.30451,-0.013779,0.281829,0.947301
1252,1059,3.30459,-0.0138086,0.281827,0.947296
1255,1056,3.30321,-0.0145345,0.282293,0.946726
1258,1053,3.30347,-0.0152319,0.282288,0.946362
1261,1050,3.30564,-0.0117575,0.280924,0.946072
1264,1047,3.30508,-0.01236,0.280921,0.945761
1267,1044,3.3047,-0.0131387,0.281375,0.94516
1270,1041,3.30463,-0.0132187,0.281377,0.945124
1273,1038,3.3035,-0.013936,0.281848,0.944575
1276,1035,3.30351,-0.0138435,0.281844,0.944615
1279,1032,3.30355,-0.014715,0.28185,0.9442
1282,1029,3.30318,-0.0152818,0.281845,0.943907
1285,1026,3.30231,-0.0153921,0.282301,0.943602
1288,1023,3.30521,-0.0126546,0.281379,0.942906
1291,1020,3.30431,-0.0125559,0.280927,0.942966
1294,1017,3.30346,-0.013327,0.281395,0.941074
1297,1014,3.3041,-0.0140242,0.281395,0.942051
1300,1011,3.30354,-0.0139351,0.281393,0.942086
1303,1008,3.30288,-0.01476,0.281868,0.941492
1306,1005,3.30311,-0.0154946,0.281859,0.941118
1309,1002,3.30473,-0.0118554,0.280477,0.940845
1312,999,3.30361,-0.0125485,0.280954,0.940307
1315,996,3.30397,-0.0133568,0.280942,0.939887
1318,993,3.30356,-0.0133381,0.280932,0.939876
1321,990,3.30272,-0.0140925,0.2814,0.939302
1324,987,3.30331,-0.0140768,0.280939,0.939523
1327,984,3.30273,-0.0149143,0.281413,0.938926
1330,981,3.30187,-0.0155924,0.281883,0.938379
1333,978,3.30422,-0.0126929,0.280926,0.93776
1336,975,3.3035,-0.0126454,0.280502,0.937773
1339,972,3.30319,-0.0134807,0.280968,0.937142
1342,969,3.30278,-0.0134512,0.280957,0.937137
1345,966,3.30256,-0.0142231,0.280958,0.936761
1348,963,3.30211,-0.0149519,0.281425,0.936183
1351,960,3.30232,-0.0149059,0.280579,0.936413
1354,957,3.30142,-0.0157061,0.281425,0.935826
1357,954,3.30419,-0.0126745,0.280046,0.935263
1360,951,3.30323,-0.0134894,0.280531,0.934676
1363,948,3.30254,-0.0134845,0.280531,0.934695
1366,945,3.30223,-0.0143301,0.280995,0.934299
1369,942,3.30205,-0.0142985,0.281417,0.934063
1372,939,3.30148,-0.0149277,0.280585,0.933742
1375,936,3.30131,-0.0158518,0.281467,0.933098
1378,933,3.30383,-0.012054,0.27961,0.933085
1381,930,3.30275,-0.0128139,0.280085,0.932514
1384,927,3.30247,-0.0136044,0.280561,0.931938
1387,924,3.30254,-0.0143236,0.280556,0.931578
1390,921,3.30131,-0.0149587,0.28104,0.931071
1393,918,3.30136,-0.0150963,0.281039,0.931011
1396,915,3.30112,-0.0157594,0.281187,0.930681
1399,912,3.30259,-0.012888,0.280126,0.929805
1402,909,3.30253,-0.0129718,0.280124,0.929765
1405,906,3.30247,-0.0136401,0.280545,0.929446
1408,903,3.30169,-0.0143684,0.280596,0.928871
1411,900,3.30099,-0.0152616,0.281084,0.928243
1414,897,3.30112,-0.0151324,0.280684,0.928532
1417,894,3.30074,-0.0159199,0.281086,0.927945
1420,891,3.30211,-0.0129452,0.280173,0.9271
1423,888,3.30215,-0.0128602,0.279762,0.927343
1426,885,3.3018,-0.0136921,0.280177,0.926753
1429,882,3.30132,-0.0145422,0.280654,0.926121
1432,879,3.3007,-0.015262,0.28065,0.925769
1435,876,3.30083,-0.0153418,0.280664,0.925756
1438,873,3.29997,-0.0160207,0.281285,0.92518
1441,870,3.30175,-0.0129789,0.279746,0.9246
1444,867,3.30187,-0.0130708,0.279751,0.924586
1447,864,3.30166,-0.0137223,0.279748,0.924272
1450,861,3.30054,-0.0145271,0.28023,0.923644
1453,858,3.30098,-0.0153656,0.280227,0.923268
1456,855,3.30005,-0.0160961,0.280714,0.922721
1459,852,3.30181,-0.0122864,0.279316,0.922456
1462,849,3.30173,-0.0130501,0.27932,0.922089
1465,846,3.30094,-0.013888,0.279797,0.921469
1468,843,3.30092,-0.0138366,0.27979,0.921481
1471,840,3.3002,-0.0147222,0.280279,0.920867
1474,837,3.29985,-0.0154072,0.280288,0.920583
1477,834,3.29967,-0.0160782,0.280286,0.920258
1480,831,3.30118,-0.0131548,0.278981,0.91929
1483,828,3.30043,-0.0131723,0.279353,0.919289
1486,825,3.30083,-0.0139963,0.279349,0.918886
1489,822,3.29979,-0.0147501,0.279833,0.918294
1492,819,3.29892,-0.0155765,0.280329,0.917701
1495,816,3.29961,-0.0154886,0.279832,0.917948
1498,813,3.29873,-0.0163468,0.280315,0.917333
1501,810,3.30015,-0.0132973,0.279414,0.916482
1504,807,3.30028,-0.0141234,0.279489,0.916116
1507,804,3.29997,-0.0148321,0.27942,0.915798
1510,801,3.29942,-0.0147351,0.279535,0.915807
1513,798,3.29893,-0.0156501,0.279893,0.915143
1516,795,3.29783,-0.0164401,0.280542,0.914565
1519,792,3.30051,-0.0134935,0.279411,0.913881
1522,789,3.29974,-0.0133656,0.278977,0.913924
1525,786,3.2989,-0.0141709,0.279462,0.913318
1528,783,3.29921,-0.0150372,0.27947,0.912916
1531,780,3.29821,-0.0158085,0.279962,0.912356
1534,777,3.29761,-0.0166006,0.280468,0.911782
1537,774,3.30008,-0.0135322,0.279055,0.911162
1540,771,3.29936,-0.0133962,0.279047,0.911211
1543,768,3.29898,-0.0141805,0.279049,0.910825
1546,765,3.29842,-0.0150065,0.279538,0.91021
1549,762,3.29807,-0.0157427,0.279548,0.909888
1552,759,3.29804,-0.0166299,0.279545,0.909464
1555,756,3.29916,-0.0127697,0.278776,0.90897
1558,753,3.29907,-0.0134856,0.278628,0.908638
1561,750,3.29893,-0.0143103,0.278615,0.908236
1564,747,3.29753,-0.0150781,0.279119,0.907686
1567,744,3.2967,-0.0160428,0.279624,0.907024
1570,741,3.29707,-0.0167173,0.28005,0.906688
1573,738,3.29894,-0.0134931,0.278197,0.906098
1576,735,3.29822,-0.0144878,0.278701,0.905431
1579,732,3.29814,-0.0143893,0.278697,0.905462
1582,729,3.29718,-0.0152959,0.279205,0.904834
1585,726,3.29706,-0.0161509,0.279203,0.904432
1588,723,3.29572,-0.0168872,0.279707,0.903868
1591,720,3.29839,-0.0136749,0.27833,0.903247
1594,717,3.2983,-0.0144152,0.278271,0.902899
1597,714,3.29742,-0.014537,0.278264,0.902825
1600,711,3.29687,-0.0154052,0.278773,0.902215
1603,708,3.29648,-0.0161025,0.278777,0.901694
1606,705,3.29567,-0.0169722,0.279281,0.901297
1609,702,3.29773,-0.0137552,0.277856,0.900695
1612,699,3.29716,-0.0146137,0.278361,0.900064
1615,696,3.29649,-0.0154848,0.278871,0.899457
1618,693,3.29649,-0.0141942,0.278361,0.899041
1621,690,3.29512,-0.0171065,0.279379,0.898487
1624,687,3.29781,-0.011952,0.277905,0.897773
1627,684,3.29736,-0.011842,0.277438,0.897798
1630,681,3.29645,-0.0127011,0.277949,0.89719
1633,678,3.29666,-0.0202876,0.277443,0.896453
1636,675,3.29543,-0.0223643,0.277946,0.896502
1639,672,3.29731,-0.0171423,0.27652,0.89557
1642,669,3.29743,-0.0158241,0.275999,0.895147
1645,666,3.29621,-0.018852,0.277024,0.894561
1648,663,3.29695,-0.0134866,0.275496,0.894008
1651,660,3.29558,-0.0163279,0.276507,0.893489
1654,657,3.29515,-0.0171047,0.276105,0.893127
1657,654,3.2979,-0.0119127,0.274714,0.892403
1660,651,3.29654,-0.0126635,0.27507,0.891853
1663,648,3.29613,-0.0216195,0.275075,0.89149
1666,645,3.29559,-0.0224819,0.275578,0.890872
1669,642,3.29524,-0.0212142,0.275072,0.890451
1672,639,3.29756,-0.0159059,0.273135,0.889766
1675,636,3.29684,-0.0166821,0.273636,0.889426
1678,633,3.29628,-0.017516,0.273636,0.88881
1681,630,3.2958,-0.0163007,0.273636,0.888146
1684,627,3.29577,-0.0170952,0.273639,0.887799
1687,624,3.29704,-0.0140153,0.273159,0.886873
1690,621,3.29693,-0.0207069,0.272198,0.886531
1693,618,3.29645,-0.0135649,0.272699,0.885829
1696,615,3.29573,-0.014418,0.272701,0.885435
1699,612,3.29522,-0.0213715,0.272695,0.884776
1702,609,3.29721,-0.0180772,0.271262,0.884165
1705,606,3.29617,-0.019053,0.271769,0.883513
1708,603,3.2966,-0.0189045,0.271255,0.883791
1711,600,3.29625,-0.0177102,0.271253,0.883104
1714,597,3.29529,-0.0193853,0.272212,0.882136
1717,594,3.29755,-0.0133033,0.269813,0.88175
1720,591,3.29709,-0.0140214,0.269805,0.881405
1723,588,3.2962,-0.014942,0.270312,0.880786
1726,585,3.29639,-0.0137059,0.269811,0.880353
1729,582,3.29521,-0.0226752,0.270314,0.879814
1732,579,3.29713,-0.0120899,0.269387,0.87855
1735,576,3.29754,-0.0181643,0.268379,0.878738
1738,573,3.29643,-0.0190384,0.268871,0.878107
1741,570,3.2957,-0.0218468,0.269372,0.877877
1744,567,3.29566,-0.0186627,0.268864,0.877052
1747,564,3.29776,-0.01531,0.267875,0.876441
1750,561,3.29628,-0.0182854,0.2685,0.875852
1753,558,3.29637,-0.0168461,0.26794,0.875579
1756,555,3.29623,-0.0159045,0.267943,0.874779
1759,552,3.2956,-0.0165773,0.267943,0.874687
1762,549,3.29765,-0.0113224,0.266504,0.873481
1765,546,3.29755,-0.0120858,0.26651,0.87317
1768,543,3.29606,-0.021198,0.267001,0.872588
1771,540,3.29544,-0.0228314,0.267497,0.87164
1774,537,3.29506,-0.0146208,0.267501,0.871597
1777,534,3.29693,-0.0174215,0.265553,0.870917
1780,531,3.29668,-0.0182899,0.265556,0.870561
1783,528,3.29653,-0.0158476,0.265055,0.869398
1786,525,3.29571,-0.0166216,0.265557,0.868851
1789,522,3.29461,-0.0196452,0.266572,0.86835
1792,519,3.29714,-0.0143022,0.264632,0.86762
1795,516,3.29708,-0.01283,0.264125,0.867248
1798,513,3.29554,-0.015967,0.265125,0.866637
1801,510,3.29572,-0.0229912,0.264618,0.866219
1804,507,3.29451,-0.0238617,0.265116,0.865607
1807,504,3.29664,-0.0121897,0.263673,0.864954
1810,501,3.29568,-0.0214434,0.26431,0.864337
1813,498,3.29559,-0.0201989,0.263668,0.863892
1816,495,3.29433,-0.0232348,0.264668,0.863362
1819,492,3.29416,-0.0217561,0.264162,0.862992
1822,489,3.29609,-0.0186427,0.263233,0.862075
1825,486,3.29618,-0.0150835,0.262223,0.86161
1828,483,3.29616,-0.0138485,0.261876,0.861155
1831,480,3.29556,-0.0154886,0.262224,0.860213
1834,477,3.29702,-0.0113177,0.260781,0.859936
1837,474,3.29613,-0.0206779,0.261276,0.859309
1840,471,3.29619,-0.0201474,0.260781,0.858553
1843,468,3.2946,-0.0232745,0.261778,0.857993
1846,465,3.29433,-0.0197924,0.261268,0.857232
1849,462,3.29674,-0.016611,0.259832,0.85679
1852,459,3.29628,-0.0172672,0.259823,0.856246
1855,456,3.29509,-0.0181345,0.260325,0.855666
1858,453,3.2953,-0.0169772,0.259831,0.855182
1861,450,3.29694,-0.0114638,0.258378,0.85422
1864,447,3.29654,-0.0123059,0.258378,0.853862
1867,444,3.29558,-0.0225739,0.258875,0.852887
1870,441,3.2953,-0.0211325,0.258376,0.852494
1873,438,3.2941,-0.0242343,0.259369,0.851963
1876,435,3.29681,-0.0187154,0.257432,0.851251
1879,432,3.29586,-0.0174435,0.257473,0.85054
1882,429,3.29525,-0.020414,0.257927,0.850301
1885,426,3.2944,-0.0213811,0.258418,0.849661
1888,423,3.29704,-0.0135756,0.25598,0.84892
1891,420,3.29648,-0.0144125,0.255975,0.848555
1894,417,3.29589,-0.0224994,0.255975,0.847523
1897,414,3.29503,-0.0234964,0.256892,0.84688
1900,411,3.29454,-0.0157271,0.256466,0.846549
1903,408,3.29592,-0.0209861,0.255516,0.845666
1906,405,3.29605,-0.0196627,0.25502,0.845216
1909,402,3.29469,-0.0227858,0.256009,0.844687
1912,399,3.29491,-0.0192193,0.255018,0.844188
1915,396,3.29701,-0.0157892,0.253574,0.843568
1918,393,3.29605,-0.0175704,0.254071,0.842616
1921,390,3.29568,-0.0142185,0.253576,0.842045
1924,387,3.29516,-0.0149252,0.253575,0.841502
1927,384,3.29678,-0.0116492,0.252622,0.840594
1930,381,3.29658,-0.0124651,0.252755,0.840255
1933,378,3.29553,-0.0205692,0.252616,0.839225
1936,375,3.29411,-0.023702,0.253602,0.838708
1939,372,3.2941,-0.0223776,0.253107,0.838252
1942,369,3.29674,-0.0167813,0.251166,0.837529
1945,366,3.29538,-0.0176679,0.251655,0.836939
1948,363,3.29511,-0.0184973,0.251653,0.838041
1951,360,3.29491,-0.015828,0.251161,0.83547
1954,357,3.29615,-0.0147891,0.2507,0.834632
1957,354,3.29569,-0.0220698,0.250208,0.834233
1960,351,3.2952,-0.0228295,0.250209,0.833919
1963,348,3.29426,-0.0238434,0.2507,0.833284
1966,345,3.29649,-0.0191726,0.249671,0.831943
1969,342,3.2956,-0.0198499,0.249248,0.831651
1972,339,3.29504,-0.0186709,0.249247,0.830909
1975,336,3.29497,-0.0195357,0.249379,0.830566
1978,333,3.29441,-0.0180386,0.248754,0.83017
1981,330,3.29595,-0.0169445,0.248179,0.829359
1984,327,3.29527,-0.0165562,0.248289,0.828303
1987,324,3.29489,-0.0238566,0.247809,0.827917
1990,321,3.29372,-0.0247733,0.248301,0.827338
1993,318,3.29624,-0.0213072,0.246845,0.826715
1996,315,3.29591,-0.0199214,0.246346,0.826252
1999,312,3.29493,-0.0208518,0.246833,0.825639
2002,309,3.29423,-0.0227224,0.24732,0.824654
2005,306,3.29536,-0.0192695,0.246355,0.82378
2008,303,3.2957,-0.017917,0.245863,0.823317
2011,300,3.29537,-0.0187518,0.245863,0.822984
2014,297,3.29362,-0.0197877,0.246347,0.822337
2017,294,3.29664,-0.0191692,0.243436,0.821101
2020,291,3.29535,-0.0223433,0.244404,0.820602
2023,288,3.29498,-0.0144605,0.244405,0.82025
2026,285,3.29427,-0.0219185,0.244403,0.819563
2029,282,3.29595,-0.0193029,0.243437,0.818358
2032,279,3.29543,-0.0202216,0.243437,0.817993
2035,276,3.29537,-0.0187551,0.242949,0.817582
2038,273,3.294455,-0.0197108,0.243434,0.816973
2041,270,3.29639,-0.0184832,0.242465,0.816426
2044,267,3.2953,-0.019457,0.242954,0.81582
2047,264,3.29532,-0.0145446,0.241978,0.814561
2050,261,3.2947,-0.015293,0.241976,0.814261
2053,258,3.29653,-0.0206603,0.240522,0.813634
2056,255,3.2958,-0.0223921,0.241005,0.81272
2059,252,3.2948,-0.0212456,0.241008,0.811957
2062,249,3.29468,-0.0198374,0.240521,0.811529
2065,246,3.29681,-0.0162392,0.239068,0.810938
2068,243,3.29628,-0.0157318,0.239067,0.809906
2071,240,3.29558,-0.0168603,0.239461,0.809224
2074,237,3.29462,-0.0176275,0.239545,0.808918
2077,234,3.29397,-0.0163063,0.239543,0.808214
2080,231,3.29616,-0.0217287,0.238212,0.807571
2083,228,3.29466,-0.0160481,0.239053,0.807056
2086,225,3.29403,-0.0245568,0.239056,0.806032
2089,222,3.29376,-0.0253196,0.239066,0.805756
2092,219,3.29555,-0.0218423,0.237602,0.805101
2095,216,3.29552,-0.0182078,0.237119,0.804306
2098,213,3.29463,-0.0200895,0.237604,0.803341
2101,210,3.2938,-0.020893,0.23759,0.802997
2104,207,3.2959,-0.015216,0.236131,0.801972
2107,204,3.29568,-0.0137613,0.235678,0.801538
2110,201,3.29448,-0.0169549,0.236608,0.801045
2113,198,3.29345,-0.0189017,0.237087,0.800051
2116,195,3.29536,-0.0220591,0.235145,0.799329
2119,192,3.29534,-0.0205573,0.234584,0.798922
2122,189,3.29444,-0.0224647,0.235155,0.797981
2125,186,3.29416,-0.0209564,0.234671,0.797569
2128,183,3.29618,-0.0151518,0.233221,0.796597
2131,180,3.2951,-0.017006,0.233694,0.795642
2134,177,3.29472,-0.0179297,0.233689,0.795276
2137,174,3.29353,-0.0189097,0.234173,0.794684
2140,171,3.29603,-0.0152203,0.232708,0.794079
2143,168,3.29505,-0.0139674,0.232698,0.793324
2146,165,3.29412,-0.0158217,0.233175,0.792366
2149,162,3.29299,-0.0257649,0.233176,0.79204
2152,159,3.29569,-0.0197458,0.231232,0.791349
2155,156,3.29507,-0.0194573,0.231239,0.790006
2158,153,3.29399,-0.0204006,0.231718,0.789678
2161,150,3.29658,-0.0144396,0.22978,0.788952
2164,147,3.29554,-0.0231642,0.229777,0.787883
2167,144,3.29512,-0.0148592,0.229777,0.787573
2170,141,3.29436,-0.0248609,0.229772,0.787234
2173,138,3.29659,-0.0175259,0.22784,0.7858
2176,135,3.29503,-0.02092,0.228787,0.78528
2179,132,3.295,-0.0195096,0.228311,0.784817
2182,129,3.29404,-0.019011,0.228308,0.78378
2185,126,3.2954,-0.0154875,0.227325,0.782892
2188,123,3.29554,-0.016364,0.227432,0.782539
2191,120,3.29381,-0.0196885,0.228261,0.782044
2194,117,3.29381,-0.0181624,0.227782,0.781614
2197,114,3.29599,-0.0131671,0.226707,0.780279
2200,111,3.29443,-0.0165806,0.227274,0.779762
2203,108,3.29423,-0.0242634,0.226797,0.779371
2206,105,3.29354,-0.025142,0.226789,0.779017
2209,102,3.29541,-0.0201229,0.225323,0.777665
2212,99,3.29474,-0.0211596,0.225794,0.777053
2215,96,3.29363,-0.0243835,0.226267,0.77684
2218,93,3.29326,-0.0215204,0.225787,0.775673
2221,90,3.29509,-0.0180031,0.224793,0.774753
2224,87,3.29435,-0.0188854,0.224793,0.774425
2227,84,3.29425,-0.0197787,0.224788,0.774084
2230,81,3.29305,-0.0184514,0.224788,0.773353
2233,78,3.29476,-0.022655,0.223321,0.772047
2236,75,3.29446,-0.0235642,0.22332,0.771715
2239,72,3.29302,-0.0254596,0.223789,0.770778
2242,69,3.29279,-0.0263615,0.223786,0.77044
2245,66,3.29472,-0.0203694,0.222318,0.769445
2248,63,3.29338,-0.0215186,0.222789,0.768788
2251,60,3.29369,-0.0208526,0.222313,0.768035
2254,57,3.29194,-0.0242474,0.223261,0.767549
2257,54,3.29506,-0.0156957,0.220856,0.766708
2260,51,3.29432,-0.0152761,0.220838,0.765638
2263,48,3.2928,-0.0186027,0.22178,0.765174
2266,45,3.29553,-0.0125884,0.219837,0.764394
2269,42,3.29375,-0.023896,0.220308,0.76349
2272,39,3.29401,-0.022394,0.219835,0.763049
2275,36,3.29252,-0.0234561,0.220315,0.762454
2278,33,3.29451,-0.0182668,0.218833,0.761112
2281,30,3.29411,-0.0191907,0.218827,0.760761
2284,27,3.29325,-0.0200308,0.218824,0.760451
2287,24,3.29262,-0.0196899,0.218933,0.75935
2290,21,3.29442,-0.013543,0.217347,0.758363
2293,18,3.29354,-0.0239246,0.217345,0.758046
2296,15,3.29254,-0.0258657,0.217812,0.757105
2299,12,3.29183,-0.0268382,0.217809,0.756753
2302,9,3.29444,-0.0206319,0.215863,0.756014
2305,6,3.29255,-0.0226919,0.217204,0.754799
2308,3,3.29242,-0.021139,0.21633,0.754378