File: hust_correlation_analysis/matrices/HUST_4-4_cycle_feature_matrix.csv
cycle_number,rul,voltage,current,capacity,charge_capacity
1,1493,3.31516,-0.0076925,0.317822,1.02201
3,1491,3.30076,-0.0109895,0.323888,1.01746
5,1489,3.30069,-0.0120691,0.323888,1.01684
7,1487,3.3024,-0.0096441,0.322724,1.01628
9,1485,3.3025,-0.010239,0.322708,1.01592
11,1483,3.30241,-0.0106729,0.322703,1.01566
13,1481,3.3024,-0.0108964,0.322708,1.01555
15,1479,3.30243,-0.0114275,0.322697,1.01521
17,1477,3.30228,-0.0120393,0.323314,1.01486
19,1475,3.3044,-0.00897552,0.321088,1.01485
21,1473,3.30423,-0.00960355,0.321085,1.01449
23,1471,3.30446,-0.0102045,0.321099,1.01416
25,1469,3.30415,-0.010159,0.321096,1.01419
27,1467,3.30402,-0.0108374,0.321086,1.01403
29,1465,3.30375,-0.010877,0.321066,1.0137
31,1463,3.30425,-0.0108606,0.320553,1.01388
33,1461,3.30365,-0.011514,0.321051,1.01328
35,1459,3.30401,-0.0114314,0.320616,1.01352
37,1457,3.30346,-0.0121247,0.321052,1.01293
39,1455,3.30367,-0.0119116,0.320613,1.01321
41,1453,3.30559,-0.00968333,0.319438,1.01252
43,1451,3.30544,-0.00975209,0.319441,1.01249
45,1449,3.30545,-0.009748,0.319434,1.01248
47,1447,3.3054,-0.0102643,0.319428,1.01215
49,1445,3.30526,-0.0102818,0.319433,1.01215
51,1443,3.30471,-0.0109296,0.319865,1.01157
53,1441,3.30503,-0.0109437,0.319431,1.01175
55,1439,3.30504,-0.0109335,0.319422,1.01175
57,1437,3.30487,-0.0115425,0.319425,1.01139
59,1435,3.3046,-0.0115826,0.31942,1.01134
61,1433,3.30456,-0.0116073,0.319418,1.01109
63,1431,3.30443,-0.0121179,0.319411,1.01126
65,1429,3.30386,-0.0122619,0.319847,1.01074
67,1427,3.30407,-0.0121758,0.319412,1.01095
69,1425,3.30546,-0.00990712,0.318802,1.01015
71,1423,3.30577,-0.00978423,0.318236,1.01039
73,1421,3.30572,-0.00998555,0.318241,1.01026
75,1419,3.30539,-0.0104336,0.318686,1.00987
77,1417,3.30551,-0.0109226,0.31869,1.00984
79,1415,3.3053,-0.0109902,0.318691,1.00954
81,1413,3.30519,-0.0109842,0.318682,1.00953
83,1411,3.305,-0.01101,0.318682,1.0095
85,1409,3.30522,-0.0110172,0.318676,1.00949
87,1407,3.30513,-0.0115271,0.318669,1.00916
89,1405,3.30504,-0.0115856,0.318673,1.00913
91,1403,3.30493,-0.0116177,0.319281,1.00911
93,1401,3.30508,-0.0122537,0.318556,1.00872
95,1399,3.30495,-0.0122061,0.318683,1.0088
97,1397,3.30687,-0.00973311,0.31752,1.00827
99,1395,3.30675,-0.00969362,0.317519,1.00831
101,1393,3.30675,-0.00969689,0.317526,1.00834
103,1391,3.30691,-0.0102583,0.317517,1.00797
105,1389,3.30676,-0.0103172,0.317512,1.00791
107,1387,3.3066,-0.0103881,0.317508,1.00786
109,1385,3.30645,-0.010375,0.317509,1.00787
111,1383,3.30662,-0.0103622,0.317501,1.00786
113,1381,3.30654,-0.0109376,0.317507,1.00752
115,1379,3.30623,-0.0109696,0.317497,1.00749
117,1377,3.30613,-0.0110177,0.317511,1.0075
119,1375,3.30641,-0.0116134,0.317515,1.00715
121,1373,3.30633,-0.011568,0.317523,1.0072
123,1371,3.30588,-0.0116354,0.317956,1.00699
125,1369,3.30638,-0.0115783,0.317646,1.0072
127,1367,3.30587,-0.0121849,0.317957,1.00666
129,1365,3.30617,-0.0120774,0.317513,1.00686
131,1363,3.30598,-0.0121178,0.317509,1.00683
133,1361,3.30764,-0.00909875,0.316338,1.00661
135,1359,3.3073,-0.00978626,0.31677,1.00604
137,1357,3.30709,-0.00977049,0.316776,1.00606
139,1355,3.30699,-0.00983917,0.316776,1.00602
141,1353,3.30704,-0.00983484,0.31678,1.00604
143,1351,3.30696,-0.0104195,0.31691,1.0057
145,1349,3.30678,-0.0104213,0.316792,1.00572
147,1347,3.30664,-0.0104175,0.316792,1.00571
149,1345,3.30689,-0.010965,0.316792,1.00539
151,1343,3.30672,-0.010983,0.316789,1.00537
153,1341,3.30667,-0.0109571,0.316793,1.00539
155,1339,3.30658,-0.0109494,0.316289,1.00539
157,1337,3.30674,-0.0109622,0.316794,1.0054
159,1335,3.30667,-0.0112726,0.31679,1.0052
161,1333,3.3062,-0.011628,0.31723,1.00484
163,1331,3.30611,-0.0115976,0.317224,1.00484
165,1329,3.30632,-0.0121147,0.317235,1.00455
167,1327,3.30625,-0.0121268,0.317239,1.00455
169,1325,3.30618,-0.012164,0.317248,1.00457
171,1323,3.30598,-0.0121298,0.317428,1.00456
173,1321,3.30581,-0.012158,0.317238,1.00435
175,1319,3.30785,-0.00973691,0.316067,1.00397
177,1317,3.30734,-0.00980301,0.316503,1.00375
179,1315,3.30761,-0.00982705,0.316072,1.00393
181,1313,3.30756,-0.00978264,0.31607,1.00394
183,1311,3.3077,-0.00975651,0.316067,1.00397
185,1309,3.30775,-0.0103828,0.31607,1.0036
187,1307,3.30753,-0.0103945,0.316067,1.00357
189,1305,3.3075,-0.0103744,0.316067,1.00358
191,1303,3.30768,-0.0103686,0.31608,1.00362
193,1301,3.3078,-0.0108875,0.316068,1.00327
195,1299,3.30763,-0.0108845,0.316053,1.00324
197,1297,3.30749,-0.0110348,0.316056,1.00176
199,1295,3.30739,-0.0109634,0.316059,1.00321
201,1293,3.30725,-0.0109835,0.316071,1.00324
203,1291,3.30746,-0.0115973,0.316059,1.00282
205,1289,3.30732,-0.0115987,0.316062,1.00284
207,1287,3.30679,-0.0116507,0.316499,1.00265
209,1285,3.30708,-0.0115599,0.316059,1.00285
211,1283,3.307,-0.0116301,0.316065,1.00281
213,1281,3.30711,-0.0116026,0.316065,1.00284
215,1279,3.30672,-0.0122506,0.316494,1.00228
217,1277,3.30662,-0.01228,0.316503,1.00229
219,1275,3.30693,-0.0120902,0.316061,1.00255
221,1273,3.30675,-0.0120858,0.316056,1.00254
223,1271,3.30862,-0.00915747,0.314899,1.00228
225,1269,3.30814,-0.00988834,0.315325,1.00167
227,1267,3.30841,-0.00975718,0.314887,1.00191
229,1265,3.30828,-0.0098461,0.314881,1.00181
231,1263,3.30809,-0.00983357,0.314869,1.00179
233,1261,3.30787,-0.00990141,0.314866,1.00174
235,1259,3.30728,-0.0100197,0.315185,1.00175
237,1257,3.30712,-0.0101736,0.31529,1.00136
239,1255,3.30729,-0.00986419,0.315266,1.0015
241,1253,3.30677,-0.0115899,0.315701,1.00157
243,1251,3.30666,-0.010551,0.315694,1.00088
245,1249,3.30708,-0.0106173,0.315281,1.00108
247,1247,3.30702,-0.0105949,0.315883,1.00109
249,1245,3.30693,-0.0105532,0.315276,1.00113
251,1243,3.30696,-0.0105692,0.315276,1.00111
253,1241,3.30723,-0.0111213,0.315268,1.00076
255,1239,3.30708,-0.0111358,0.315264,1.00073
257,1237,3.30692,-0.012722,0.315704,1.0009
259,1235,3.30689,-0.0127622,0.315703,1.00088
261,1233,3.307,-0.0112026,0.315277,1.00074
263,1231,3.307,-0.0116687,0.315287,1.00048
265,1229,3.30694,-0.0117247,0.315305,1.00049
267,1227,3.30683,-0.0117248,0.315289,1.00046
269,1225,3.30675,-0.0117735,0.315297,1.00044
271,1223,3.30689,-0.0123295,0.315285,1.00007
273,1221,3.30674,-0.0123249,0.31528,1.00006
275,1219,3.30654,-0.0123683,0.315286,1.00006
277,1217,3.30665,-0.0123674,0.315277,1.0003
279,1215,3.3066,-0.0123869,0.315281,1.00004
281,1213,3.3086,-0.0099098,0.314109,0.99949
283,1211,3.30852,-0.00995188,0.314122,0.999489
285,1209,3.30841,-0.00992313,0.314119,0.999507
287,1207,3.30858,-0.00993037,0.314128,0.999784
289,1205,3.30862,-0.0104401,0.314126,0.999225
291,1203,3.30851,-0.0104741,0.314131,0.999213
293,1201,3.30839,-0.0104358,0.314128,0.999231
295,1199,3.30824,-0.0104881,0.314119,0.999164
297,1197,3.30807,-0.0105322,0.314118,0.999138
299,1195,3.30823,-0.010504,0.31411,0.999152
301,1193,3.30822,-0.0111398,0.314111,0.99875
303,1191,3.30804,-0.0111485,0.314107,0.99873
305,1189,3.30798,-0.0111215,0.314103,0.998742
307,1187,3.30815,-0.0111421,0.314109,0.997263
309,1185,3.30829,-0.0117389,0.314128,0.998429
311,1183,3.30812,-0.0117003,0.314134,0.998466
313,1181,3.30805,-0.0116817,0.314132,0.99848
315,1179,3.30797,-0.0116779,0.31413,0.998482
317,1177,3.30812,-0.012266,0.314132,0.998117
319,1175,3.30786,-0.0122277,0.314122,0.99813
321,1173,3.3078,-0.0122771,0.314152,0.998093
323,1171,3.30771,-0.0122337,0.314118,0.99811
325,1169,3.30748,-0.0122554,0.314238,0.998092
327,1167,3.30729,-0.0123309,0.314119,0.998049
329,1165,3.30895,-0.00996726,0.313389,0.997288
331,1163,3.30874,-0.00993693,0.313386,0.997296
333,1161,3.30907,-0.00991381,0.312965,0.997517
335,1159,3.30934,-0.00989375,0.312979,0.997579
337,1157,3.30896,-0.0104875,0.313403,0.997043
339,1155,3.3087,-0.0105185,0.313219,0.996998
341,1153,3.30869,-0.0105248,0.313393,0.996989
343,1151,3.309,-0.0104698,0.312971,0.997189
345,1149,3.30896,-0.0104852,0.312963,0.99717
347,1147,3.30854,-0.0110944,0.313384,0.996613
349,1145,3.30836,-0.0111069,0.313391,0.996614
351,1143,3.3082,-0.0111568,0.31339,0.99658
353,1141,3.30804,-0.0111675,0.313394,0.996597
355,1139,3.30828,-0.011783,0.313398,0.99623
357,1137,3.30814,-0.0117728,0.313405,0.996257
359,1135,3.30809,-0.0116718,0.313409,0.996332
361,1133,3.30815,-0.011755,0.313532,0.996283
363,1131,3.30804,-0.0122599,0.3134,0.995963
365,1129,3.30794,-0.0123473,0.313412,0.995913
367,1127,3.30738,-0.0123537,0.31384,0.995745
369,1125,3.30766,-0.0122632,0.313581,0.995944
371,1123,3.30963,-0.00923277,0.312238,0.99576
373,1121,3.30917,-0.00989654,0.312665,0.99515
375,1119,3.30899,-0.00997225,0.31267,0.995106
377,1117,3.309,-0.00995145,0.312668,0.995131
379,1115,3.30915,-0.0099555,0.312755,0.995163
381,1113,3.30916,-0.0104644,0.312673,0.994846
383,1111,3.30918,-0.0104312,0.312674,0.99488
385,1109,3.30913,-0.0104374,0.312687,0.994897
387,1107,3.30921,-0.010436,0.312564,0.995155
389,1105,3.30862,-0.0110997,0.3132,0.994329
391,1103,3.30863,-0.0111412,0.31312,0.994298
393,1101,3.30892,-0.0110414,0.312552,0.99449
395,1099,3.30875,-0.0110472,0.312671,0.994479
397,1097,3.30864,-0.0111047,0.312671,0.994451
399,1095,3.3086,-0.01116,0.312667,0.994395
401,1093,3.30862,-0.0117133,0.312665,0.994058
403,1091,3.30861,-0.0117137,0.31268,0.994107
405,1089,3.30877,-0.0116768,0.312691,0.994155
407,1087,3.30841,-0.0123688,0.313129,0.993595
409,1085,3.30875,-0.0122827,0.312875,0.993806
411,1083,3.30856,-0.0122976,0.312186,0.99383
413,1081,3.31015,-0.0098173,0.311964,0.993105
415,1079,3.31007,-0.00981252,0.311966,0.993109
417,1077,3.30994,-0.00982774,0.311964,0.993089
419,1075,3.30987,-0.00981994,0.311959,0.993083
421,1073,3.31026,-0.00979482,0.311531,0.99326
423,1071,3.30976,-0.0104808,0.311954,0.992663
425,1069,3.30971,-0.0105253,0.311954,0.992632
427,1067,3.31012,-0.0104755,0.311532,0.992861
429,1065,3.31014,-0.0104744,0.311539,0.992884
431,1063,3.30971,-0.0110154,0.311975,0.992415
433,1061,3.30968,-0.0111005,0.311982,0.992371
435,1059,3.3095,-0.011059,0.312506,0.992394
437,1057,3.30933,-0.0110422,0.311952,0.99233
439,1055,3.30922,-0.0110825,0.311946,0.992294
441,1053,3.30929,-0.0117346,0.311415,0.991888
443,1051,3.30919,-0.0117586,0.311946,0.991881
445,1049,3.30912,-0.0118008,0.311944,0.991845
447,1047,3.30895,-0.0118127,0.311936,0.991818
449,1045,3.30939,-0.0117141,0.311506,0.992054
451,1043,3.30917,-0.012414,0.311946,0.991477
453,1041,3.30896,-0.0123188,0.311943,0.991543
455,1039,3.30881,-0.0123247,0.311943,0.991524
457,1037,3.31068,-0.00930337,0.31077,0.991302
459,1035,3.31056,-0.00991787,0.310953,0.990941
461,1033,3.31048,-0.00994014,0.310777,0.99091
463,1031,3.31045,-0.00996668,0.310775,0.99089
465,1029,3.3103,-0.00994028,0.310775,0.990909
467,1027,3.31035,-0.00994685,0.310769,0.990903
469,1025,3.30992,-0.0106255,0.311199,0.990317
471,1023,3.31013,-0.0105366,0.310764,0.990519
473,1021,3.31,-0.0104865,0.310759,0.990538
475,1019,3.31001,-0.0105458,0.310768,0.99053
477,1017,3.30964,-0.0111984,0.311209,0.989979
479,1015,3.30958,-0.0112349,0.311215,0.989984
481,1013,3.30957,-0.0111711,0.311291,0.990031
483,1011,3.30971,-0.0117358,0.311214,0.989683
485,1009,3.3095,-0.0117318,0.311208,0.989674
487,1007,3.30943,-0.0117729,0.3112,0.989632
489,1005,3.30967,-0.0117005,0.310774,0.989839
491,1003,3.30937,-0.0123929,0.311206,0.989262
493,1001,3.30916,-0.0123989,0.311198,0.989247
495,999,3.309,-0.0124092,0.311199,0.989223
497,997,3.3089,-0.012403,0.311198,0.989248
499,995,3.31089,-0.00986107,0.310036,0.988728
501,993,3.31069,-0.00992703,0.310041,0.988718
503,991,3.31067,-0.00987404,0.310049,0.988774
505,989,3.31081,-0.0105085,0.310056,0.988377
507,987,3.31061,-0.0105453,0.310054,0.98836
509,985,3.31031,-0.0105177,0.31004,0.988346
511,983,3.31013,-0.0105644,0.310041,0.988312
513,981,3.31011,-0.0106031,0.310113,0.988267
515,979,3.30962,-0.011289,0.310476,0.987709
517,977,3.30949,-0.0112399,0.310459,0.987701
519,975,3.30934,-0.0112862,0.310453,0.987651
521,973,3.3094,-0.0113074,0.310462,0.987661
523,971,3.30945,-0.0118993,0.310466,0.987313
525,969,3.30932,-0.0118968,0.310479,0.987359
527,967,3.30955,-0.0123852,0.310479,0.987072
529,965,3.3094,-0.0123671,0.310607,0.987097
531,963,3.30915,-0.0123385,0.310489,0.987114
533,961,3.31066,-0.00933696,0.30932,0.98686
535,959,3.31035,-0.0100411,0.309747,0.986257
537,957,3.31027,-0.0100174,0.309687,0.986248
539,955,3.3101,-0.0100221,0.309739,0.986249
541,953,3.3103,-0.0105995,0.30974,0.98589
543,951,3.31014,-0.0106008,0.30974,0.985889
545,949,3.3099,-0.0106093,0.309739,0.985879
547,947,3.3097,-0.0113466,0.310196,0.985315
549,945,3.30956,-0.0112346,0.310196,0.985414
551,943,3.30994,-0.0111507,0.30977,0.985654
553,941,3.30955,-0.0118015,0.310209,0.985092
555,939,3.30945,-0.0117709,0.310211,0.985108
557,937,3.30943,-0.0117968,0.310206,0.985097
559,935,3.30895,-0.0125117,0.310649,0.984518
561,933,3.30886,-0.0125234,0.310655,0.984513
563,931,3.31062,-0.00939466,0.309484,0.984332
565,929,3.31031,-0.010044,0.309913,0.984012
567,927,3.31054,-0.00996299,0.309477,0.983985
569,925,3.3105,-0.0100417,0.309485,0.983958
571,923,3.31068,-0.0105749,0.309483,0.983613
573,921,3.31049,-0.0105691,0.309478,0.983632
575,919,3.31044,-0.0106077,0.309481,0.983616
577,917,3.3101,-0.0112076,0.30993,0.983101
579,915,3.31029,-0.0111452,0.30949,0.983307
581,913,3.31012,-0.0112356,0.309493,0.983267
583,911,3.31021,-0.0117558,0.30957,0.982955
585,909,3.31004,-0.0117651,0.309494,0.982941
587,907,3.30991,-0.0117943,0.309494,0.982931
589,905,3.30991,-0.0123553,0.309566,0.982578
591,903,3.30967,-0.0123422,0.309494,0.982599
593,901,3.31114,-0.00995774,0.30876,0.981794
595,899,3.31105,-0.0100109,0.308767,0.981778
597,897,3.31081,-0.010015,0.308767,0.981782
599,895,3.31124,-0.0099833,0.308316,0.981921
601,893,3.31087,-0.0105987,0.308762,0.981421
603,891,3.31066,-0.0105924,0.308756,0.981406
605,889,3.31058,-0.0106156,0.308757,0.981407
607,887,3.31056,-0.0112823,0.308765,0.980996
609,885,3.31047,-0.0113015,0.308762,0.98098
611,883,3.31036,-0.0113058,0.308752,0.980958
613,881,3.30997,-0.0119447,0.309179,0.980403
615,879,3.31021,-0.0118686,0.308742,0.980594
617,877,3.31005,-0.0118601,0.308741,0.980602
619,875,3.30977,-0.0126245,0.309181,0.979989
621,873,3.31005,-0.0124641,0.308745,0.980247
623,871,3.31173,-0.0094117,0.307584,0.980025
625,869,3.31131,-0.0100293,0.308018,0.979491
627,867,3.3112,-0.0100652,0.308018,0.979467
629,865,3.31126,-0.010641,0.308019,0.977824
631,863,3.31111,-0.0106417,0.308013,0.979108
633,861,3.31102,-0.0106842,0.308096,0.979097
635,859,3.31092,-0.0112526,0.308011,0.978726
637,857,3.31076,-0.0112504,0.308009,0.978719
639,855,3.31021,-0.0114006,0.308453,0.978488
641,853,3.31012,-0.0119647,0.308562,0.978118
643,851,3.30995,-0.011971,0.308438,0.978116
645,849,3.31004,-0.0120493,0.308442,0.978074
647,847,3.30965,-0.0125964,0.30844,0.977735
649,845,3.30969,-0.0125359,0.308441,0.977793
651,843,3.31165,-0.0100705,0.30729,0.977214
653,841,3.31078,-0.010147,0.307717,0.976996
655,839,3.31121,-0.0101045,0.307277,0.977182
657,837,3.31124,-0.0106778,0.307274,0.976823
659,835,3.3107,-0.0108208,0.307653,0.976608
661,833,3.31088,-0.0107101,0.307274,0.976811
663,831,3.31038,-0.0113228,0.307712,0.976288
665,829,3.31017,-0.0113601,0.307722,0.976268
667,827,3.31006,-0.0119613,0.307891,0.975886
669,825,3.30963,-0.0120923,0.308154,0.975662
671,823,3.30983,-0.0120231,0.307719,0.975878
673,821,3.30948,-0.012641,0.308173,0.975373
675,819,3.31122,-0.0100737,0.30707,0.974821
677,817,3.31101,-0.0100583,0.306991,0.97481
679,815,3.31063,-0.0102366,0.307434,0.974565
681,813,3.31056,-0.010733,0.307441,0.974265
683,811,3.31033,-0.0107787,0.307436,0.974238
685,809,3.31042,-0.0113613,0.307432,0.973874
687,807,3.31007,-0.0113699,0.307428,0.973856
689,805,3.30998,-0.0113887,0.307432,0.973857
691,803,3.30956,-0.0119861,0.30786,0.973324
693,801,3.30926,-0.0120358,0.307965,0.973253
695,799,3.30958,-0.0120848,0.307407,0.973365
697,797,3.30917,-0.0127443,0.307857,0.972838
699,795,3.30896,-0.0127768,0.307855,0.972813
701,793,3.31089,-0.010182,0.306679,0.972248
703,791,3.31094,-0.0102879,0.306699,0.972239
705,789,3.31043,-0.0108489,0.307132,0.97175
707,787,3.3102,-0.0108871,0.307206,0.971731
709,785,3.31022,-0.0114439,0.307128,0.971389
711,783,3.31047,-0.0113885,0.306691,0.971581
713,781,3.31008,-0.0121424,0.30713,0.970958
715,779,3.30986,-0.0120734,0.307117,0.970989
717,777,3.31013,-0.0120391,0.306687,0.971174
719,775,3.30951,-0.0128045,0.307731,0.970524
721,773,3.31145,-0.00969103,0.305965,0.970362
723,771,3.31133,-0.0101919,0.305955,0.970025
725,769,3.31127,-0.0102258,0.305962,0.970034
727,767,3.31124,-0.0107866,0.305958,0.969685
729,765,3.31114,-0.0107755,0.305967,0.969725
731,763,3.31068,-0.0114878,0.3064,0.969119
733,761,3.31094,-0.0113769,0.305837,0.969342
735,759,3.31058,-0.0120744,0.306396,0.968755
737,757,3.3103,-0.0120551,0.306565,0.968753
739,755,3.31027,-0.0126851,0.306393,0.968362
741,753,3.30991,-0.0126613,0.306393,0.968369
743,751,3.31131,-0.0102187,0.305652,0.967563
745,749,3.31126,-0.010308,0.305658,0.967523
747,747,3.3116,-0.0102208,0.305215,0.967735
749,745,3.31114,-0.0108934,0.305661,0.967192
751,743,3.31111,-0.0114492,0.305659,0.966831
753,741,3.3109,-0.0115339,0.305666,0.96681
755,739,3.31082,-0.0115344,0.305662,0.966805
757,737,3.31034,-0.0121659,0.306099,0.966252
759,735,3.31012,-0.0121886,0.306087,0.966219
761,733,3.31009,-0.0128242,0.306152,0.965814
763,731,3.30978,-0.0127309,0.306072,0.965846
765,729,3.31146,-0.00968503,0.304905,0.965553
767,727,3.31135,-0.0103137,0.304902,0.965177
769,725,3.31129,-0.0102778,0.304911,0.965223
771,723,3.31088,-0.0109256,0.305371,0.964733
773,721,3.31089,-0.0116119,0.305378,0.964325
775,719,3.31063,-0.0115087,0.305377,0.964413
777,717,3.31043,-0.0121312,0.305376,0.964007
779,715,3.31024,-0.0121701,0.305373,0.963992
781,713,3.31009,-0.0122238,0.305362,0.963942
783,711,3.30993,-0.0128402,0.305354,0.963546
785,709,3.31155,-0.00964566,0.304177,0.963332
787,707,3.31088,-0.0103973,0.304619,0.962721
789,705,3.31073,-0.0104035,0.304618,0.962723
791,703,3.31069,-0.0110262,0.304622,0.962344
793,701,3.31054,-0.0110052,0.304615,0.962357
795,699,3.31013,-0.0117565,0.305084,0.961814
797,697,3.31004,-0.0122386,0.305078,0.961499
799,695,3.30995,-0.0122939,0.305084,0.961492
801,693,3.30945,-0.0129322,0.305529,0.960961
803,691,3.31152,-0.00965212,0.304526,0.960964
805,689,3.31106,-0.010333,0.304359,0.9604
807,687,3.31078,-0.0103269,0.304349,0.960372
809,685,3.31014,-0.0110286,0.304794,0.959803
811,683,3.31065,-0.0109201,0.304345,0.960008
813,681,3.31016,-0.0116936,0.304789,0.959651
815,679,3.31,-0.0116461,0.304786,0.959409
817,677,3.30952,-0.0123342,0.305238,0.958853
819,675,3.30933,-0.0123967,0.305248,0.958842
821,673,3.30927,-0.0127689,0.30524,0.958611
823,671,3.31125,-0.0103706,0.304078,0.957932
825,669,3.3111,-0.0104013,0.304079,0.957932
827,667,3.31064,-0.0110459,0.304526,0.957387
829,665,3.31092,-0.010992,0.304073,0.957578
831,663,3.31079,-0.011604,0.304076,0.957204
833,661,3.3106,-0.0116534,0.30408,0.957187
835,659,3.30996,-0.012271,0.304517,0.95663
837,657,3.31019,-0.0122082,0.304059,0.956811
839,655,3.30955,-0.0129472,0.304507,0.956223
841,653,3.3115,-0.0103291,0.303336,0.955663
843,651,3.31136,-0.0103729,0.303244,0.955646
845,649,3.3108,-0.0110911,0.303778,0.955045
847,647,3.31094,-0.0110184,0.303333,0.95524
849,645,3.31049,-0.0116597,0.303785,0.954706
851,643,3.31008,-0.0123587,0.304237,0.954148
853,641,3.31023,-0.0123976,0.303794,0.954047
855,639,3.30962,-0.013048,0.304238,0.953746
857,637,3.31141,-0.0104317,0.303055,0.953159
859,635,3.31114,-0.0104233,0.303052,0.953149
861,633,3.31124,-0.0110765,0.303053,0.952752
863,631,3.31084,-0.0111175,0.303664,0.952734
865,629,3.31034,-0.0118099,0.303499,0.952148
867,627,3.31004,-0.0117966,0.303485,0.952137
869,625,3.309936,-0.0123492,0.303475,0.951761
871,623,3.30968,-0.0125279,0.303548,0.951689
873,621,3.30913,-0.0131698,0.303948,0.951192
875,619,3.31101,-0.0104968,0.302769,0.950631
877,617,3.31074,-0.0105943,0.302771,0.950607
879,615,3.31073,-0.0112765,0.302776,0.950188
881,613,3.31057,-0.0117301,0.302771,0.94991
883,611,3.30975,-0.0118955,0.303217,0.949647
885,609,3.30956,-0.012571,0.303273,0.949232
887,607,3.30933,-0.012502,0.303212,0.949298
889,605,3.30907,-0.0131286,0.30321,0.948898
891,603,3.31078,-0.00994427,0.302036,0.948653
893,601,3.31019,-0.0106604,0.302487,0.948076
895,599,3.31013,-0.0112701,0.302476,0.947694
897,597,3.31002,-0.0112645,0.302491,0.947731
899,595,3.30948,-0.0118949,0.302953,0.947247
901,593,3.30929,-0.0124468,0.30302,0.94692
903,591,3.30867,-0.013223,0.303403,0.946284
905,589,3.31039,-0.00993393,0.302219,0.946329
907,587,3.31029,-0.0105967,0.302221,0.945683
909,585,3.30979,-0.0113407,0.302679,0.945101
911,583,3.30952,-0.0113028,0.302664,0.945084
913,581,3.30933,-0.0119759,0.302663,0.944689
915,579,3.30887,-0.0126982,0.303121,0.944103
917,577,3.30909,-0.0125954,0.30266,0.944306
919,575,3.3084,-0.0133171,0.303109,0.943708
921,573,3.31004,-0.0100416,0.301916,0.943478
923,571,3.31023,-0.0106778,0.301934,0.943138
925,569,3.31014,-0.0112832,0.301944,0.942824
927,567,3.30957,-0.0120219,0.302404,0.942239
929,565,3.30941,-0.0125839,0.3024,0.941884
931,563,3.30916,-0.0127093,0.302408,0.941849
933,561,3.30906,-0.0132537,0.302393,0.941464
935,559,3.31046,-0.0107416,0.301667,0.940639
937,557,3.31018,-0.0107551,0.301672,0.940649
939,555,3.31002,-0.0114212,0.301668,0.940253
941,553,3.30988,-0.0102751,0.3012,0.939784
943,551,3.30942,-0.0110807,0.302276,0.939151
945,549,3.3095,-0.0109927,0.301202,0.939365
947,547,3.30854,-0.0183087,0.301639,0.939042
949,545,3.30999,-0.0158412,0.300926,0.937975
951,543,3.30995,-0.0164612,0.300935,0.937635
953,541,3.30952,-0.0163831,0.301048,0.937662
955,539,3.30964,-0.0153049,0.300463,0.937151
957,537,3.30894,-0.0160788,0.300933,0.936586
959,535,3.30884,-0.0167177,0.300935,0.936219
961,533,3.3104,-0.0123219,0.29992,0.935383
963,531,3.31013,-0.0124236,0.299757,0.935329
965,529,3.31009,-0.0113506,0.299303,0.934864
967,527,3.30941,-0.0120929,0.29976,0.934262
969,525,3.30956,-0.0110815,0.299301,0.933745
971,523,3.3093,-0.0111003,0.299308,0.933744
973,521,3.31106,-0.00830745,0.298124,0.933229
975,519,3.31029,-0.0158394,0.298585,0.932616
977,517,3.31006,-0.0163973,0.298585,0.932535
979,515,3.30971,-0.0154593,0.298599,0.931594
981,513,3.30948,-0.0161031,0.298591,0.931226
983,511,3.30915,-0.0161208,0.298589,0.931191
985,509,3.31081,-0.0133759,0.297399,0.930621
987,507,3.31085,-0.0123326,0.296953,0.930135
989,505,3.31019,-0.0130778,0.297401,0.929535
991,503,3.31019,-0.0120358,0.296943,0.929021
993,501,3.30977,-0.0120681,0.296936,0.92898
995,499,3.30966,-0.0127072,0.296938,0.928604
997,497,3.30894,-0.01345,0.297396,0.928027
999,495,3.31113,-0.00903955,0.295769,0.927365
1001,493,3.31051,-0.00973201,0.296235,0.927099
1003,491,3.31028,-0.010358,0.296231,0.926463
1005,489,3.30994,-0.0177592,0.296237,0.926082
1007,487,3.30978,-0.0160543,0.295778,0.925953
1009,485,3.31106,-0.0133447,0.295046,0.925211
1011,483,3.31078,-0.0140722,0.295039,0.924777
1013,481,3.31038,-0.0131091,0.295035,0.924054
1015,479,3.31009,-0.013789,0.295026,0.923626
1017,477,3.30983,-0.0138231,0.295032,0.923625
1019,475,3.30981,-0.0127453,0.29457,0.92312
1021,473,3.30916,-0.0135109,0.295022,0.922517
1023,471,3.31121,-0.00907855,0.293389,0.921811
1025,469,3.31032,-0.0165345,0.293841,0.921249
1027,467,3.31012,-0.0172081,0.293837,0.920862
1029,465,3.30988,-0.0171995,0.293844,0.920873
1031,463,3.30989,-0.0161223,0.293394,0.920386
1033,461,3.31119,-0.0134466,0.292664,0.919888
1035,459,3.31098,-0.0141304,0.292668,0.918999
1037,457,3.31026,-0.0148552,0.293113,0.918663
1039,455,3.31023,-0.0138092,0.292655,0.918128
1041,453,3.31023,-0.0127086,0.292204,0.917627
1043,451,3.30943,-0.0135325,0.292644,0.916991
1045,449,3.31133,-0.0108113,0.291467,0.916407
1047,447,3.31096,-0.00978461,0.291473,0.915736
1049,445,3.31041,-0.0172126,0.291462,0.915357
1051,443,3.30997,-0.0172684,0.291461,0.915309
1053,441,3.30986,-0.0179024,0.291479,0.915007
1055,439,3.31203,-0.0134691,0.289996,0.914344
1057,437,3.311346,-0.0141511,0.290319,0.913789
1059,435,3.31065,-0.0149078,0.290771,0.913219
1061,433,3.31041,-0.0155764,0.290684,0.912829
1063,431,3.30961,-0.0163008,0.291212,0.912233
1065,429,3.30957,-0.0152156,0.290754,0.911722
1067,427,3.31078,-0.0125733,0.290025,0.910923
1069,425,3.31083,-0.0115622,0.289629,0.910385
1071,423,3.31084,-0.0104976,0.289132,0.909886
1073,421,3.31017,-0.0111651,0.289566,0.909343
1075,419,3.30932,-0.0119857,0.29002,0.908716
1077,417,3.31089,-0.0159642,0.288841,0.908452
1079,415,3.311,-0.016633,0.288908,0.907841
1081,413,3.31044,-0.0166333,0.288861,0.907859
1083,411,3.3098,-0.0156732,0.288859,0.907137
1085,409,3.30963,-0.0162908,0.28886,0.906779
1087,407,3.3116,-0.011819,0.287245,0.906094
1089,405,3.31082,-0.0125875,0.287691,0.905502
1091,403,3.31015,-0.0133506,0.288131,0.904892
1093,401,3.31009,-0.0122742,0.28768,0.904386
1095,399,3.30981,-0.0128585,0.287685,0.904036
1097,397,3.31105,-0.010219,0.28695,0.903246
1099,395,3.31106,-0.00920887,0.286512,0.902719
1101,393,3.31039,-0.00991112,0.286949,0.902158
1103,391,3.31014,-0.0105844,0.286947,0.901757
1105,389,3.30914,-0.0181548,0.287401,0.899812
1107,387,3.31086,-0.0153891,0.286229,0.900639
1109,385,3.31048,-0.0144215,0.28623,0.899932
1111,383,3.31044,-0.0132615,0.285781,0.899469
1113,381,3.30951,-0.0140522,0.286275,0.898858
1115,379,3.30936,-0.0147477,0.286228,0.898471
1117,377,3.311,-0.0119286,0.285056,0.897925
1119,375,3.31048,-0.0109747,0.285663,0.897196
1121,373,3.3102,-0.0116098,0.285055,0.896838
1123,371,3.30946,-0.0124053,0.285505,0.896246
1125,369,3.30939,-0.0113368,0.28506,0.895738
1127,367,3.31039,-0.0154977,0.284333,0.895001
1129,365,3.31013,-0.0162105,0.284334,0.894593
1131,363,3.30986,-0.016843,0.284335,0.894239
1133,361,3.30928,-0.017581,0.28479,0.893702
1135,359,3.30903,-0.0164969,0.28433,0.893157
1137,357,3.3102,-0.0138175,0.283617,0.892676
1139,355,3.30998,-0.0145,0.283621,0.892036
1141,353,3.30995,-0.0133304,0.283162,0.89154
1143,351,3.30916,-0.0141319,0.283613,0.89096
1145,349,3.30905,-0.0147754,0.283756,0.890583
1147,347,3.31051,-0.0103699,0.28244,0.889659
1149,345,3.31023,-0.011047,0.282447,0.88929
1151,343,3.30947,-0.0118029,0.282895,0.888721
1153,341,3.30947,-0.0106898,0.282438,0.888209
1155,339,3.30877,-0.0121039,0.282879,0.887238
1157,337,3.31008,-0.0156731,0.281716,0.88703
1159,335,3.30958,-0.0169929,0.282153,0.886131
1161,333,3.30954,-0.0159826,0.281723,0.885599
1163,331,3.3093,-0.0165979,0.281837,0.885246
1165,329,3.30868,-0.0155642,0.281722,0.884575
1167,327,3.31058,-0.0128206,0.280559,0.883983
1169,325,3.31029,-0.0134416,0.28055,0.883817
1171,323,3.30969,-0.0125115,0.280549,0.882861
1173,321,3.30956,-0.0131363,0.280545,0.882499
1175,319,3.31161,-0.00855012,0.278938,0.881798
1177,317,3.31056,-0.0162578,0.279375,0.88124
1179,315,3.30973,-0.0170952,0.279832,0.880656
1181,313,3.30954,-0.0176811,0.279817,0.880304
1183,311,3.30948,-0.016587,0.279375,0.879781
1185,309,3.31071,-0.0138293,0.278647,0.87903
1187,307,3.31054,-0.0146263,0.278656,0.878608
1189,305,3.30981,-0.0125115,0.278655,0.877225
1191,303,3.30971,-0.0131335,0.278655,0.87688
1193,301,3.30874,-0.0139243,0.279096,0.876288
1195,299,3.31087,-0.00937285,0.277623,0.875566
1197,297,3.31063,-0.00994752,0.27748,0.875227
1199,295,3.30958,-0.0177723,0.277923,0.874646
1201,293,3.30941,-0.0184547,0.277927,0.874272
1203,291,3.31123,-0.0138237,0.276924,0.873578
1205,289,3.31043,-0.0146205,0.276761,0.872967
1207,287,3.31002,-0.0142508,0.276761,0.87217
1209,285,3.30988,-0.0131373,0.276308,0.87138
1211,283,3.3091,-0.0139147,0.276756,0.870807
1213,281,3.31092,-0.0111352,0.275591,0.870204
1215,279,3.31035,-0.010086,0.275588,0.869506
1217,277,3.3096,-0.0178086,0.275578,0.869115
1219,275,3.30876,-0.0186593,0.276018,0.868497
1221,273,3.31096,-0.0140025,0.274418,0.867814
1223,271,3.3104,-0.0136279,0.274418,0.866746
1225,269,3.30995,-0.0143084,0.274422,0.866371
1227,267,3.30977,-0.0150285,0.274407,0.865952
1229,265,3.31124,-0.0104331,0.273241,0.865064
1231,263,3.31064,-0.00947919,0.27325,0.862966
1233,261,3.31022,-0.01018,0.273241,0.863913
1235,259,3.30986,-0.0108056,0.273236,0.863555
1237,257,3.30913,-0.0122015,0.273676,0.86264
1239,255,3.31028,-0.0166482,0.272953,0.862089
1241,253,3.31017,-0.0172708,0.272957,0.861497
1243,251,3.31,-0.0160907,0.272517,0.861013
1245,249,3.3091,-0.0169214,0.272961,0.860427
1247,247,3.31084,-0.0130334,0.271796,0.859142
1249,245,3.31007,-0.0138005,0.272244,0.858584
1251,243,3.30982,-0.0126419,0.271798,0.858069
1253,241,3.30948,-0.0133284,0.2718,0.857692
1255,239,3.31067,-0.0105384,0.271072,0.856919
1257,237,3.31049,-0.00948409,0.270619,0.856334
1259,235,3.3096,-0.017994,0.271051,0.855436
1261,233,3.3092,-0.0186955,0.271166,0.855049
1263,231,3.30849,-0.0176548,0.271041,0.854312
1265,229,3.30978,-0.0149476,0.270312,0.8535
1267,227,3.30952,-0.0155941,0.270309,0.853138
1269,225,3.30904,-0.0162723,0.270312,0.852695
1271,223,3.30855,-0.015272,0.270317,0.852053
1273,221,3.31032,-0.0113484,0.269156,0.850774
1275,219,3.31009,-0.0102259,0.268731,0.850265
1277,217,3.3095,-0.0126817,0.269163,0.850076
1279,215,3.30823,-0.019569,0.269601,0.848808
1281,213,3.30997,-0.0167087,0.268439,0.848212
1283,211,3.30909,-0.0175521,0.268863,0.847595
1285,209,3.30905,-0.0163623,0.268425,0.847087
1287,207,3.30877,-0.0151717,0.267975,0.846571
1289,205,3.30968,-0.0132407,0.267695,0.845189
1291,203,3.30954,-0.0121175,0.267259,0.844677
1293,201,3.30922,-0.0127809,0.267252,0.844288
1295,199,3.30822,-0.0135537,0.267692,0.843746
1297,197,3.31028,-0.0088616,0.265504,0.842988
1299,195,3.30947,-0.0175148,0.266534,0.842096
1301,193,3.30863,-0.018333,0.26697,0.841526
1303,191,3.30845,-0.0171207,0.266527,0.841039
1305,189,3.3101,-0.0131743,0.2655,0.839774
1307,187,3.30912,-0.0139926,0.265819,0.839167
1309,185,3.30887,-0.014689,0.265808,0.839041
1311,183,3.3085,-0.0153343,0.2658,0.838423
1313,181,3.3099,-0.010713,0.264645,0.837476
1315,179,3.30942,-0.0103301,0.264645,0.836639
1317,177,3.30907,-0.0110438,0.264641,0.836025
1319,175,3.3081,-0.0118368,0.265086,0.835457
1321,173,3.30966,-0.0161698,0.263926,0.834906
1323,171,3.30923,-0.0157601,0.263919,0.833827
1325,169,3.30841,-0.0165996,0.26436,0.833252
1327,167,3.30804,-0.0172659,0.264357,0.832907
1329,165,3.30967,-0.0133393,0.263219,0.831607
1331,163,3.30901,-0.0122437,0.26321,0.830898
1333,161,3.30868,-0.0129764,0.263216,0.830533
1335,159,3.30819,-0.012452,0.263215,0.829521
1337,157,3.30935,-0.00966947,0.262489,0.828712
1339,155,3.30912,-0.0104378,0.262488,0.82687
1341,153,3.30786,-0.0185632,0.262922,0.827747
1343,151,3.30707,-0.0200575,0.263362,0.826821
1345,149,3.30889,-0.0170852,0.262208,0.826278
1347,147,3.30911,-0.0140721,0.261327,0.825554
1349,145,3.3081,-0.0148581,0.261877,0.824994
1351,143,3.30735,-0.0163523,0.262197,0.824067
1353,141,3.30938,-0.0115018,0.2606,0.82335
1355,139,3.30849,-0.0122848,0.261048,0.822828
1357,137,3.30781,-0.0138721,0.261488,0.821852
1359,135,3.30982,-0.00897206,0.25989,0.821148
1361,133,3.30902,-0.00975565,0.260328,0.8206
1363,131,3.30789,-0.0187924,0.260784,0.819657
1365,129,3.30759,-0.0193812,0.260772,0.81932
1367,127,3.30957,-0.014437,0.259161,0.818609
1369,125,3.30849,-0.0142993,0.259611,0.817273
1371,123,3.30807,-0.0149548,0.25961,0.816931
1373,121,3.30793,-0.013782,0.259168,0.816396
1375,119,3.30897,-0.0127702,0.259,0.815783
1377,117,3.3085,-0.0124772,0.258888,0.81467
1379,115,3.30847,-0.0112161,0.258441,0.814162
1381,113,3.30734,-0.0120909,0.258884,0.813584
1383,111,3.30858,-0.0173619,0.258077,0.812454
1385,109,3.30817,-0.0180686,0.258165,0.812094
1387,107,3.308,-0.0168708,0.257729,0.811594
1389,105,3.30977,-0.0128813,0.256584,0.810554
1391,103,3.30926,-0.0134288,0.256585,0.809997
1393,101,3.30819,-0.0131682,0.257012,0.808676
1395,99,3.30767,-0.0139293,0.257007,0.808274
1397,97,3.30988,-0.00905768,0.255418,0.807543
1399,95,3.30894,-0.00982195,0.255852,0.80699
1401,93,3.30813,-0.0113888,0.256289,0.806044
1403,91,3.30754,-0.0196088,0.2564,0.805687
1405,89,3.30878,-0.0167086,0.25556,0.804893
1407,87,3.30832,-0.0174376,0.25556,0.804524
1409,85,3.30794,-0.0170468,0.255562,0.80344
1411,83,3.3076,-0.0158089,0.255125,0.802932
1413,81,3.30875,-0.0118568,0.25441,0.801412
1415,79,3.30828,-0.0144947,0.254844,0.80121
1417,77,3.30809,-0.0132802,0.25442,0.800723
1419,75,3.30951,-0.016712,0.253288,0.799499
1421,73,3.30898,-0.0174653,0.253263,0.799058
1423,71,3.30788,-0.0182506,0.253675,0.798462
1425,69,3.30749,-0.0190335,0.253676,0.798046
1427,67,3.30685,-0.0186601,0.253672,0.796938
1429,65,3.30831,-0.0157713,0.253549,0.796158
1431,63,3.30802,-0.0144976,0.252516,0.795652
1433,61,3.30737,-0.0141754,0.252515,0.794516
1435,59,3.30854,-0.013096,0.252229,0.793942
1437,57,3.30833,-0.0119191,0.251785,0.793379
1439,55,3.30767,-0.011476,0.251777,0.792289
1441,53,3.30731,-0.0122494,0.251781,0.791931
1443,51,3.308672,-0.00936617,0.251073,0.791141
1445,49,3.30768,-0.0184521,0.251517,0.790309
1447,47,3.30728,-0.0192009,0.251511,0.789932
1449,45,3.30665,-0.0181103,0.25161,0.789189
1451,43,3.30825,-0.0138912,0.250363,0.787917
1453,41,3.30784,-0.0146681,0.250349,0.787496
1455,39,3.30752,-0.0153866,0.250346,0.787135
1457,37,3.30678,-0.0150179,0.25035,0.786026
1459,35,3.30816,-0.0120323,0.249623,0.785241
1461,33,3.30796,-0.0108152,0.249187,0.784703
1463,31,3.30721,-0.0123583,0.249623,0.783803
1465,29,3.30833,-0.0171074,0.248894,0.783014
1467,27,3.30785,-0.017875,0.248901,0.782646
1469,25,3.30723,-0.0174746,0.248896,0.781551
1471,23,3.30679,-0.0181718,0.248899,0.781461
1473,21,3.30843,-0.0132329,0.247839,0.780261
1475,19,3.3077,-0.0148118,0.248192,0.779369
1477,17,3.30741,-0.0155862,0.248194,0.779001
1479,15,3.30661,-0.0144653,0.248195,0.778282
1481,13,3.30866,-0.0120919,0.24705,0.777356
1483,11,3.30812,-0.0109661,0.247054,0.776643
1485,9,3.30761,-0.0115997,0.247037,0.776302
1487,7,3.30633,-0.0210076,0.24747,0.775334
1489,5,3.30837,-0.017934,0.246312,0.774741
1491,3,3.30738,-0.0188227,0.246752,0.774177