File: hust_correlation_analysis/matrices/HUST_9-2_cycle_feature_matrix.csv
cycle_number,rul,voltage,current,capacity,charge_capacity
1,2145,3.30519,0.0153458,0.333627,1.0596
3,2143,3.28941,-0.0129846,0.349841,1.03474
5,2141,3.29206,-0.0117662,0.348023,1.03625
7,2139,3.29265,-0.0128888,0.347329,1.03825
9,2137,3.2943,-0.0122682,0.346209,1.04153
11,2135,3.29478,-0.0132334,0.345544,1.04388
13,2133,3.29651,-0.0121328,0.344223,1.04485
15,2131,3.29784,-0.0104734,0.34291,1.04642
17,2129,3.29775,-0.0125231,0.342722,1.04764
19,2127,3.29798,-0.0119145,0.342281,1.04819
21,2125,3.29878,-0.0114374,0.341437,1.04887
23,2123,3.29958,-0.0114265,0.341001,1.04906
25,2121,3.30055,-0.010341,0.340134,1.05009
27,2119,3.30069,-0.0121909,0.340119,1.05015
29,2117,3.30005,-0.0122336,0.339687,1.05011
31,2115,3.30023,-0.0117474,0.339678,1.05058
33,2113,3.29991,-0.0138534,0.33994,1.05155
35,2111,3.30047,-0.0137296,0.339504,1.05176
37,2109,3.29978,-0.0144729,0.339924,1.05136
39,2107,3.30211,-0.0110994,0.337976,1.05166
41,2105,3.30197,-0.0111243,0.337972,1.05161
43,2103,3.30146,-0.0117888,0.338405,1.05131
45,2101,3.30106,-0.0138561,0.338646,1.052
47,2099,3.30238,-0.0114507,0.337537,1.05154
49,2097,3.30265,-0.0115967,0.33713,1.05166
51,2095,3.30174,-0.0122609,0.337956,1.04938
53,2093,3.30193,-0.0122621,0.337631,1.05104
55,2091,3.30267,-0.0121645,0.337119,1.05126
57,2089,3.30267,-0.0120817,0.337115,1.0513
59,2087,3.30236,-0.0126807,0.337113,1.0509
61,2085,3.30174,-0.0128116,0.337537,1.05065
63,2083,3.30209,-0.0127641,0.33711,1.05085
65,2081,3.30195,-0.0134057,0.337531,1.05027
67,2079,3.30197,-0.0136641,0.337551,1.05013
69,2077,3.30401,-0.0110618,0.336037,1.05004
71,2075,3.30322,-0.0116576,0.336452,1.04972
73,2073,3.30304,-0.0117219,0.336454,1.04944
75,2071,3.30374,-0.0116021,0.336024,1.04965
77,2069,3.30332,-0.0121893,0.33653,1.04911
79,2067,3.30309,-0.0122503,0.336442,1.04906
81,2065,3.30313,-0.0121672,0.336436,1.0491
83,2063,3.3024,-0.012805,0.336859,1.04852
85,2061,3.30302,-0.0129272,0.336376,1.04887
87,2059,3.30332,-0.0128069,0.336444,1.0487
89,2057,3.30312,-0.0132344,0.336459,1.04846
91,2055,3.30243,-0.0138215,0.336885,1.04793
93,2053,3.30233,-0.0138498,0.336876,1.04788
95,2051,3.30287,-0.0137762,0.336453,1.0481
97,2049,3.30446,-0.0110673,0.335356,1.04787
99,2047,3.30377,-0.0116672,0.335765,1.04707
101,2045,3.30384,-0.0116755,0.335774,1.04729
103,2043,3.30379,-0.0121956,0.335866,1.04693
105,2041,3.30329,-0.012299,0.33619,1.04671
107,2039,3.30397,-0.0123031,0.335774,1.04687
109,2037,3.30398,-0.0127456,0.335779,1.0466
111,2035,3.30313,-0.0127608,0.336644,1.04644
113,2033,3.30264,-0.0134252,0.336618,1.04584
115,2031,3.30357,-0.0132832,0.336199,1.0461
117,2029,3.30323,-0.0132834,0.336194,1.04609
119,2027,3.302887,-0.0133243,0.336182,1.04602
121,2025,3.30274,-0.0139148,0.336608,1.04546
123,2023,3.30234,-0.0139041,0.33669,1.04548
125,2021,3.30241,-0.0139892,0.336602,1.04542
127,2019,3.30415,-0.0112266,0.335503,1.04522
129,2017,3.30424,-0.0117207,0.335523,1.04495
131,2015,3.30379,-0.0117708,0.335526,1.04491
133,2013,3.30358,-0.0123429,0.335957,1.04442
135,2011,3.30424,-0.0121469,0.335526,1.04469
137,2009,3.30394,-0.012777,0.335949,1.04411
139,2007,3.30396,-0.0127008,0.335521,1.0443
141,2005,3.30332,-0.0128192,0.335946,1.04407
143,2003,3.30371,-0.0127208,0.335974,1.0443
145,2001,3.30362,-0.0132813,0.335936,1.04375
147,1999,3.30355,-0.0133055,0.335943,1.04374
149,1997,3.30334,-0.013267,0.33594,1.04378
151,1995,3.30246,-0.0140174,0.336791,1.04295
153,1993,3.30298,-0.013854,0.336821,1.04325
155,1991,3.30339,-0.0138732,0.336379,1.04324
157,1989,3.30419,-0.0118646,0.335703,1.04241
159,1987,3.30471,-0.0115668,0.335272,1.04274
161,1985,3.30365,-0.0117497,0.335703,1.04248
163,1983,3.3041,-0.0122899,0.335709,1.04212
165,1981,3.30428,-0.0122999,0.335705,1.04212
167,1979,3.30423,-0.0121687,0.335278,1.04235
169,1977,3.3035,-0.0123292,0.335697,1.04207
171,1975,3.30374,-0.0127814,0.335772,1.04176
173,1973,3.30371,-0.0128126,0.335798,1.04175
175,1971,3.30326,-0.012859,0.336116,1.04158
177,1969,3.30325,-0.0133388,0.336114,1.04124
179,1967,3.30279,-0.0128571,0.336096,1.04149
181,1965,3.30274,-0.0134226,0.336114,1.04116
183,1963,3.30296,-0.013441,0.336114,1.04118
185,1961,3.30319,-0.0134049,0.336117,1.0412
187,1959,3.30298,-0.0139316,0.336122,1.04086
189,1957,3.30215,-0.0140286,0.33653,1.0406
191,1955,3.30272,-0.0140595,0.336119,1.04076
193,1953,3.30285,-0.0139595,0.336116,1.04083
195,1951,3.30394,-0.011843,0.33554,1.04004
197,1949,3.30438,-0.0116805,0.335013,1.0403
199,1947,3.30375,-0.0118405,0.335452,1.04008
201,1945,3.30369,-0.0123216,0.335446,1.03974
203,1943,3.30413,-0.012241,0.335888,1.03977
205,1941,3.3039,-0.0122471,0.335432,1.03976
207,1939,3.3031,-0.012389,0.335444,1.03951
209,1937,3.30295,-0.0123458,0.336287,1.03949
211,1935,3.30348,-0.0122987,0.335408,1.03965
213,1933,3.30305,-0.0124388,0.335827,1.03936
215,1931,3.30324,-0.0122686,0.335394,1.03963
217,1929,3.30215,-0.012778,0.336247,1.03897
219,1927,3.30214,-0.0128461,0.336212,1.03884
221,1925,3.30235,-0.0125429,0.335808,1.03924
223,1923,3.30185,-0.0129981,0.336219,1.03875
225,1921,3.30241,-0.0130231,0.335813,1.03894
227,1919,3.3018,-0.0131536,0.336237,1.03897
229,1917,3.30184,-0.0136683,0.336231,1.03834
231,1915,3.30205,-0.0136157,0.336224,1.03836
233,1913,3.3019,-0.0136177,0.336219,1.03837
235,1911,3.30163,-0.0135986,0.33622,1.03835
237,1909,3.30095,-0.0143122,0.336647,1.03772
239,1907,3.30164,-0.014265,0.336238,1.03796
241,1905,3.30356,-0.0119199,0.335145,1.0375
243,1903,3.303,-0.0119214,0.33515,1.03754
245,1901,3.30325,-0.01192,0.335085,1.03754
247,1899,3.30317,-0.012407,0.335146,1.03719
249,1897,3.30279,-0.0125499,0.33556,1.03692
251,1895,3.30344,-0.0125133,0.335145,1.03712
253,1893,3.30312,-0.0124154,0.335236,1.03719
255,1891,3.30218,-0.0125841,0.335567,1.0369
257,1889,3.30261,-0.0131106,0.335558,1.03654
259,1887,3.30271,-0.0130931,0.335572,1.03658
261,1885,3.30266,-0.0136399,0.335583,1.03625
263,1883,3.30249,-0.0136116,0.335685,1.03629
265,1881,3.30241,-0.0135811,0.335596,1.03634
267,1879,3.30264,-0.0140981,0.335579,1.03596
269,1877,3.30254,-0.0140881,0.335578,1.03596
271,1875,3.30251,-0.0141036,0.335573,1.03595
273,1873,3.30172,-0.0142832,0.336003,1.03565
275,1871,3.302,-0.0141738,0.335671,1.03587
277,1869,3.30231,-0.0141108,0.335561,1.03591
279,1867,3.30377,-0.0114089,0.334469,1.03565
281,1865,3.30337,-0.0120227,0.334906,1.03513
283,1863,3.3032,-0.0119476,0.334908,1.03519
285,1861,3.30333,-0.0125503,0.334909,1.03479
287,1859,3.30368,-0.0124963,0.334918,1.03487
289,1857,3.30366,-0.0123657,0.334408,1.03509
291,1855,3.30306,-0.0125165,0.334911,1.03509
293,1853,3.30326,-0.0129809,0.334905,1.03451
295,1851,3.3032,-0.0130079,0.334911,1.0345
297,1849,3.30287,-0.0131907,0.33533,1.03421
299,1847,3.30309,-0.0129665,0.334895,1.03449
301,1845,3.30215,-0.0131265,0.335324,1.03423
303,1843,3.30243,-0.0137094,0.335331,1.03384
305,1841,3.30287,-0.0136561,0.335343,1.03394
307,1839,3.30279,-0.0141182,0.335335,1.03365
309,1837,3.3025,-0.0141546,0.335354,1.03364
311,1835,3.30254,-0.0141354,0.335357,1.03362
313,1833,3.30286,-0.0140572,0.334921,1.03385
315,1831,3.30237,-0.0141493,0.335338,1.03359
317,1829,3.3041,-0.0113716,0.33424,1.03344
319,1827,3.30349,-0.0119776,0.33466,1.03284
321,1825,3.30314,-0.0120202,0.334658,1.0328
323,1823,3.30416,-0.011991,0.33423,1.03297
325,1821,3.30394,-0.0118838,0.33424,1.03332
327,1819,3.30341,-0.0125855,0.334673,1.03247
329,1817,3.30336,-0.0125176,0.334681,1.03252
331,1815,3.30333,-0.0124822,0.334683,1.03256
333,1813,3.30361,-0.0125247,0.334684,1.03253
335,1811,3.30361,-0.0130056,0.334685,1.03223
337,1809,3.30277,-0.013102,0.335104,1.03198
339,1807,3.30314,-0.0130661,0.334686,1.03241
341,1805,3.30312,-0.0136105,0.335115,1.03169
343,1803,3.30283,-0.0136214,0.335108,1.03164
345,1801,3.30325,-0.0135661,0.334672,1.03184
347,1799,3.30238,-0.0137005,0.335115,1.03161
349,1797,3.30309,-0.0136235,0.334687,1.03183
351,1795,3.30318,-0.0141323,0.335105,1.03133
353,1793,3.3028,-0.014187,0.33512,1.03134
355,1791,3.3026,-0.0141484,0.335065,1.03134
357,1789,3.30415,-0.0113788,0.334122,1.03113
359,1787,3.30454,-0.0118216,0.334008,1.03082
361,1785,3.30406,-0.0119657,0.334432,1.03036
363,1783,3.30428,-0.0118334,0.334006,1.0308
365,1781,3.30337,-0.0119459,0.33444,1.03057
367,1779,3.30384,-0.0119831,0.333994,1.03065
369,1777,3.30425,-0.0119344,0.334004,1.03071
371,1775,3.30373,-0.0125299,0.33445,1.03022
373,1773,3.30356,-0.0126024,0.334453,1.03017
375,1771,3.30346,-0.0130874,0.33489,1.02972
377,1769,3.30339,-0.0131002,0.33493,1.02971
379,1767,3.30347,-0.0131551,0.334882,1.02967
381,1765,3.30407,-0.012038,0.334026,1.02944
383,1763,3.30249,-0.0137379,0.335312,1.02913
385,1761,3.30326,-0.012096,0.334464,1.02924
387,1759,3.30334,-0.013609,0.334878,1.02938
389,1757,3.30302,-0.0136907,0.334872,1.0293
391,1755,3.30279,-0.0136844,0.334813,1.02928
393,1753,3.30282,-0.014249,0.334883,1.02895
395,1751,3.30329,-0.0127536,0.334453,1.02879
397,1749,3.305,-0.00985371,0.333366,1.02869
399,1747,3.30494,-0.0103308,0.33336,1.02836
401,1745,3.30425,-0.0105241,0.333782,1.02807
403,1743,3.30394,-0.0119744,0.334195,1.02821
405,1741,3.30414,-0.0119967,0.334205,1.02821
407,1739,3.30422,-0.0119246,0.333768,1.0284
409,1737,3.30346,-0.0120028,0.334277,1.02817
411,1735,3.30327,-0.0120996,0.334197,1.02811
413,1733,3.30416,-0.0119252,0.333746,1.02839
415,1731,3.30372,-0.0126357,0.334197,1.02778
417,1729,3.30354,-0.0126372,0.334303,1.02779
419,1727,3.30331,-0.0125653,0.334189,1.02781
421,1725,3.30345,-0.0131129,0.3342,1.02745
423,1723,3.30312,-0.0132443,0.334629,1.02722
425,1721,3.30352,-0.0130194,0.334198,1.02753
427,1719,3.30253,-0.0132251,0.33457,1.0272
429,1717,3.30299,-0.0132736,0.334187,1.02732
431,1715,3.30336,-0.013101,0.334191,1.02745
433,1713,3.30259,-0.0137831,0.3346,1.02679
435,1711,3.30309,-0.0137103,0.334634,1.02702
437,1709,3.30239,-0.0137649,0.334617,1.02712
439,1707,3.30295,-0.0137683,0.334196,1.02704
441,1705,3.30307,-0.0143234,0.334635,1.02655
443,1703,3.30303,-0.0141639,0.334205,1.02682
445,1701,3.30236,-0.0143496,0.334635,1.02651
447,1699,3.30228,-0.0143085,0.334628,1.02653
449,1697,3.30435,-0.0120266,0.333523,1.02596
451,1695,3.30419,-0.0120284,0.333525,1.02599
453,1693,3.30352,-0.0122029,0.333959,1.02569
455,1691,3.30371,-0.0120827,0.333522,1.02593
457,1689,3.3041,-0.0120837,0.333522,1.02594
459,1687,3.30408,-0.0124865,0.333522,1.0257
461,1685,3.30396,-0.012576,0.333532,1.02566
463,1683,3.30359,-0.0131619,0.333965,1.02511
465,1681,3.30372,-0.011685,0.333529,1.02493
467,1679,3.3038,-0.0131686,0.333966,1.02512
469,1677,3.30386,-0.0130746,0.333625,1.02531
471,1675,3.3029,-0.0131659,0.333951,1.02506
473,1673,3.30309,-0.0133588,0.333951,1.02494
475,1671,3.30369,-0.0130769,0.333513,1.02527
477,1669,3.30256,-0.0139029,0.334372,1.02439
479,1667,3.30325,-0.0137606,0.33394,1.02464
481,1665,3.30275,-0.0138505,0.333954,1.02461
483,1663,3.30283,-0.0144402,0.334842,1.02411
485,1661,3.30348,-0.0142126,0.333965,1.02443
487,1659,3.30447,-0.0120054,0.333292,1.02369
489,1657,3.30429,-0.0120959,0.333291,1.0236
491,1655,3.30445,-0.0120603,0.333289,1.02362
493,1653,3.30435,-0.0121413,0.333291,1.02356
495,1651,3.30417,-0.0120376,0.333362,1.02362
497,1649,3.30388,-0.0120722,0.333282,1.02358
499,1647,3.3037,-0.0121156,0.333269,1.02354
501,1645,3.30409,-0.0120916,0.333281,1.02357
503,1643,3.30454,-0.0126068,0.333293,1.02326
505,1641,3.30392,-0.011238,0.3333,1.0229
507,1639,3.30361,-0.0127318,0.333729,1.02304
509,1637,3.3041,-0.011724,0.333308,1.02257
511,1635,3.3041,-0.0117176,0.333308,1.02259
513,1633,3.30391,-0.0122711,0.333294,1.02223
515,1631,3.30328,-0.0123959,0.333731,1.02197
517,1629,3.30376,-0.0123405,0.333304,1.02217
519,1627,3.30328,-0.0123947,0.333728,1.02198
521,1625,3.30363,-0.0122816,0.333751,1.02221
523,1623,3.30322,-0.0128781,0.333739,1.02168
525,1621,3.3025,-0.0130936,0.334167,1.02137
527,1619,3.30351,-0.0128903,0.333737,1.02169
529,1617,3.30493,-0.0105466,0.332646,1.02119
531,1615,3.30441,-0.0107878,0.333076,1.02086
533,1613,3.30462,-0.0105633,0.332637,1.02114
535,1611,3.30463,-0.0105153,0.332637,1.02117
537,1609,3.30486,-0.0106277,0.332646,1.02113
539,1607,3.30425,-0.0111794,0.333155,1.02061
541,1605,3.30389,-0.0112779,0.333073,1.02053
543,1603,3.30473,-0.0111505,0.332645,1.02078
545,1601,3.30403,-0.0111787,0.333077,1.02062
547,1599,3.30405,-0.0117339,0.333021,1.02024
549,1597,3.30393,-0.0117272,0.333079,1.02025
551,1595,3.30384,-0.0118156,0.33307,1.02019
553,1593,3.30407,-0.0117544,0.333071,1.02024
555,1591,3.30389,-0.0123434,0.333081,1.01987
557,1589,3.30316,-0.0125132,0.333503,1.01956
559,1587,3.3034,-0.012334,0.333077,1.01986
561,1585,3.30379,-0.0123352,0.333134,1.01985
563,1583,3.30367,-0.0122884,0.333063,1.01988
565,1581,3.3029,-0.0124173,0.333498,1.01963
567,1579,3.30303,-0.0125079,0.333071,1.01973
569,1577,3.30362,-0.0128349,0.333063,1.0195
571,1575,3.30324,-0.0128851,0.333073,1.01949
573,1573,3.30277,-0.0129845,0.33349,1.01925
575,1571,3.3047,-0.0106726,0.332851,1.01872
577,1569,3.30425,-0.010769,0.332401,1.01864
579,1567,3.30501,-0.0106056,0.33197,1.01892
581,1565,3.30398,-0.0106637,0.332387,1.01868
583,1563,3.3038,-0.0113799,0.33292,1.01807
585,1561,3.30447,-0.0112395,0.332389,1.01833
587,1559,3.30385,-0.0127289,0.332825,1.01849
589,1557,3.30424,-0.0112104,0.332387,1.01835
591,1555,3.30361,-0.0127218,0.332818,1.01849
593,1553,3.3039,-0.0114019,0.33284,1.01821
595,1551,3.3039,-0.0118493,0.332826,1.01779
597,1549,3.30397,-0.0117619,0.332398,1.018
599,1547,3.30344,-0.0119573,0.332833,1.01772
601,1545,3.30377,-0.0124904,0.332838,1.0174
603,1543,3.3038,-0.0124479,0.332833,1.0174
605,1541,3.30397,-0.0122827,0.332401,1.01769
607,1539,3.30315,-0.0125054,0.332831,1.01736
609,1537,3.30366,-0.0129508,0.333283,1.01708
611,1535,3.30346,-0.0129347,0.332832,1.01709
613,1533,3.30327,-0.0130061,0.332834,1.01706
615,1531,3.30305,-0.0129333,0.332832,1.01707
617,1529,3.30467,-0.0107433,0.332251,1.01634
619,1527,3.30484,-0.0107061,0.332177,1.01638
621,1525,3.30483,-0.0105988,0.33174,1.0166
623,1523,3.3042,-0.0108331,0.332219,1.01627
625,1521,3.30468,-0.011224,0.332171,1.01603
627,1519,3.30439,-0.0112256,0.332168,1.01602
629,1517,3.30479,-0.0111792,0.33134,1.01621
631,1515,3.30431,-0.0118252,0.332173,1.01563
633,1513,3.30381,-0.0119505,0.332607,1.0154
635,1511,3.30456,-0.0118056,0.332169,1.01563
637,1509,3.30397,-0.0117912,0.332172,1.01591
639,1507,3.30334,-0.0133978,0.332576,1.01566
641,1505,3.30421,-0.011908,0.332144,1.01552
643,1503,3.30319,-0.0134612,0.333013,1.01547
645,1501,3.30368,-0.0138435,0.332582,1.01538
647,1499,3.30308,-0.0125691,0.332595,1.01495
649,1497,3.30342,-0.0125103,0.332679,1.01502
651,1495,3.30358,-0.013046,0.332601,1.01468
653,1493,3.30309,-0.0130591,0.332587,1.01463
655,1491,3.30275,-0.0130958,0.332594,1.01461
657,1489,3.30297,-0.0131363,0.332595,1.0146
659,1487,3.30498,-0.0106888,0.33149,1.01411
661,1485,3.30422,-0.0121827,0.331908,1.01425
663,1483,3.30403,-0.0123595,0.332372,1.01402
665,1481,3.30455,-0.0106822,0.331484,1.01409
667,1479,3.3044,-0.011311,0.331931,1.01357
669,1477,3.30421,-0.0113923,0.331936,1.01353
671,1475,3.30393,-0.0113564,0.332384,1.01356
673,1473,3.30483,-0.0113059,0.331496,1.01374
675,1471,3.30451,-0.0118961,0.331939,1.01322
677,1469,3.30346,-0.0120132,0.332366,1.01296
679,1467,3.30394,-0.0118429,0.331915,1.01321
681,1465,3.30398,-0.0118639,0.331927,1.01322
683,1463,3.30426,-0.0124622,0.331915,1.0128
685,1461,3.30317,-0.0140151,0.332789,1.01277
687,1459,3.30297,-0.0126454,0.332355,1.01253
689,1457,3.30384,-0.0124298,0.33192,1.01309
691,1455,3.30322,-0.0130245,0.332284,1.01228
693,1453,3.30301,-0.0131232,0.332358,1.01222
695,1451,3.30355,-0.0130969,0.331927,1.01241
697,1449,3.30298,-0.0145918,0.332789,1.01241
699,1447,3.30492,-0.0116084,0.331235,1.01239
701,1445,3.30376,-0.0124365,0.332115,1.01155
703,1443,3.30437,-0.0123196,0.331674,1.01176
705,1441,3.30437,-0.0123081,0.33167,1.01177
707,1439,3.3043,-0.0123165,0.33168,1.0118
709,1437,3.30413,-0.0114221,0.331682,1.01111
711,1435,3.30465,-0.0113233,0.331264,1.01136
713,1433,3.30481,-0.011288,0.331253,1.01137
715,1431,3.30406,-0.0119411,0.332154,1.0108
717,1429,3.30403,-0.0119653,0.331691,1.01075
719,1427,3.30392,-0.0119337,0.331685,1.01078
721,1425,3.30398,-0.0120556,0.331687,1.0107
723,1423,3.30335,-0.0126248,0.332121,1.01016
725,1421,3.30289,-0.0142373,0.332557,1.01024
727,1419,3.30384,-0.014046,0.332123,1.01054
729,1417,3.30314,-0.0145669,0.332549,1.01004
731,1415,3.30338,-0.0132196,0.332131,1.00979
733,1413,3.30378,-0.0130619,0.331691,1.01007
735,1411,3.30525,-0.0102904,0.331033,1.00965
737,1409,3.30511,-0.0107579,0.331037,1.00936
739,1407,3.30421,-0.0108952,0.331469,1.0091
741,1405,3.30514,-0.0107761,0.331032,1.00934
743,1403,3.30506,-0.0107784,0.331035,1.00934
745,1401,3.30439,-0.0113959,0.331549,1.00878
747,1399,3.30473,-0.011426,0.331031,1.00891
749,1397,3.30505,-0.0113645,0.331021,1.00892
751,1395,3.30472,-0.0113244,0.331017,1.00895
753,1393,3.30417,-0.0114933,0.331472,1.00871
755,1391,3.30442,-0.0120194,0.331478,1.0084
757,1389,3.30436,-0.0119842,0.331469,1.00839
759,1387,3.30439,-0.0124924,0.331469,1.00805
761,1385,3.30361,-0.0126159,0.331911,1.00784
763,1383,3.30453,-0.0125218,0.331468,1.00805
765,1381,3.30417,-0.01247,0.331472,1.0081
767,1379,3.30315,-0.0133014,0.332357,1.00726
769,1377,3.30367,-0.0132047,0.331913,1.00746
771,1375,3.30341,-0.0131923,0.331904,1.00745
773,1373,3.30374,-0.0130765,0.331464,1.00768
775,1371,3.30435,-0.010784,0.331231,1.00677
777,1369,3.30515,-0.0108795,0.330791,1.00686
779,1367,3.305,-0.0108003,0.330798,1.00693
781,1365,3.30419,-0.01096,0.331235,1.00665
783,1363,3.30475,-0.0109132,0.330795,1.00684
785,1361,3.30444,-0.0114835,0.331236,1.00632
787,1359,3.30473,-0.0113455,0.330803,1.00659
789,1357,3.30363,-0.0115696,0.331235,1.00625
791,1355,3.30415,-0.0120094,0.331229,1.00597
793,1353,3.30389,-0.012058,0.331225,1.00592
795,1351,3.30365,-0.0135451,0.332118,1.00611
797,1349,3.30341,-0.0135621,0.331651,1.00607
799,1347,3.30363,-0.0137422,0.33166,1.00596
801,1345,3.30342,-0.013997,0.331665,1.00582
803,1343,3.30299,-0.0127576,0.331746,1.00533
805,1341,3.30351,-0.014103,0.331664,1.00575
807,1339,3.30342,-0.0133031,0.331676,1.00498
809,1337,3.30297,-0.0132373,0.331684,1.00503
811,1335,3.30269,-0.0133668,0.331669,1.00492
813,1333,3.30515,-0.0117329,0.330563,1.0052
815,1331,3.30435,-0.0123493,0.330992,1.00465
817,1329,3.30412,-0.0125048,0.331456,1.00454
819,1327,3.30461,-0.012412,0.331001,1.00462
821,1325,3.30442,-0.0125339,0.330995,1.00451
823,1323,3.30412,-0.0115734,0.331019,1.00389
825,1321,3.30432,-0.0121655,0.331131,1.00355
827,1319,3.30434,-0.0120086,0.331026,1.00364
829,1317,3.30391,-0.0120194,0.331007,1.00357
831,1315,3.30397,-0.0120953,0.33102,1.00356
833,1313,3.30405,-0.0120214,0.331022,1.00362
835,1311,3.30396,-0.0125884,0.331018,1.00325
837,1309,3.3029,-0.0127811,0.331453,1.00292
839,1307,3.30369,-0.012655,0.331005,1.00318
841,1305,3.30309,-0.0132956,0.331443,1.00261
843,1303,3.30303,-0.013304,0.331022,1.00256
845,1301,3.30274,-0.0149238,0.331885,1.00269
847,1299,3.30498,-0.0104387,0.330356,1.00242
849,1297,3.30485,-0.0108693,0.330362,1.00216
851,1295,3.30402,-0.0110679,0.3308,1.00186
853,1293,3.3049,-0.0109066,0.330358,1.00212
855,1291,3.30408,-0.0115355,0.330797,1.00154
857,1289,3.30408,-0.0115965,0.330787,1.00147
859,1287,3.3041,-0.011576,0.330791,1.00151
861,1285,3.30409,-0.0115653,0.330785,1.0015
863,1283,3.30339,-0.0121813,0.331225,1.00092
865,1281,3.30384,-0.0121961,0.330857,1.00107
867,1279,3.30357,-0.0136089,0.331214,1.00128
869,1277,3.30304,-0.013672,0.331655,1.00108
871,1275,3.30332,-0.0127632,0.33122,1.00055
873,1273,3.30308,-0.014301,0.331661,1.00069
875,1271,3.30288,-0.014848,0.331665,1.00035
877,1269,3.30257,-0.0134215,0.331781,1.00001
879,1267,3.30312,-0.0132706,0.331227,1.00024
881,1265,3.30484,-0.0104157,0.330129,0.999812
883,1263,3.30414,-0.0109888,0.33057,0.999745
885,1261,3.30468,-0.0110097,0.330123,0.999615
887,1259,3.3045,-0.0115014,0.330571,0.999158
889,1257,3.30359,-0.0116915,0.331011,0.998868
891,1255,3.30434,-0.0115356,0.330571,0.999147
893,1253,3.30357,-0.0116751,0.331473,0.998906
895,1251,3.30388,-0.0121314,0.331027,0.998636
897,1249,3.30344,-0.0122288,0.331027,0.998574
899,1247,3.30413,-0.012102,0.330583,0.998809
901,1245,3.30303,-0.0128207,0.331479,0.998051
903,1243,3.30352,-0.0127545,0.331024,0.99822
905,1241,3.30327,-0.0127605,0.331012,0.998184
907,1239,3.30323,-0.0133426,0.331018,0.997821
909,1237,3.30251,-0.0134745,0.331919,0.997579
911,1235,3.30261,-0.0133992,0.331455,0.997615
913,1233,3.30428,-0.0110314,0.330352,0.997052
915,1231,3.30427,-0.010987,0.330364,0.997126
917,1229,3.30432,-0.0110675,0.330365,0.997062
919,1227,3.30453,-0.0114376,0.330368,0.996889
921,1225,3.30345,-0.0116512,0.33081,0.996541
923,1223,3.30456,-0.0114946,0.330366,0.996804
925,1221,3.30363,-0.0120741,0.330804,0.996257
927,1219,3.30352,-0.0116663,0.330727,0.996506
929,1217,3.30337,-0.0122625,0.330797,0.99611
931,1215,3.30388,-0.0121778,0.33035,0.996331
933,1213,3.30252,-0.0129379,0.331244,0.995524
935,1211,3.30322,-0.0128196,0.330787,0.995743
937,1209,3.30288,-0.0128318,0.330785,0.995718
939,1207,3.30233,-0.0129921,0.331238,0.99548
941,1205,3.30258,-0.0135062,0.331699,0.995164
943,1203,3.30457,-0.010399,0.329683,0.995206
945,1201,3.30354,-0.0111681,0.33058,0.994373
947,1199,3.30415,-0.0110097,0.330127,0.994661
949,1197,3.30394,-0.0110793,0.330117,0.994588
951,1195,3.30352,-0.0126193,0.330565,0.994726
953,1193,3.30335,-0.0132694,0.331474,0.994169
955,1191,3.3036,-0.0131335,0.330566,0.994398
957,1189,3.30223,-0.0134103,0.331464,0.9939
959,1187,3.30336,-0.0132009,0.330562,0.994343
961,1185,3.30281,-0.0139166,0.331014,0.993739
963,1183,3.30277,-0.0129415,0.331017,0.993111
965,1181,3.30267,-0.0129716,0.331036,0.993111
967,1179,3.30314,-0.012796,0.330578,0.993382
969,1177,3.30187,-0.0135404,0.331477,0.992587
971,1175,3.30265,-0.0134735,0.331478,0.992777
973,1173,3.3021,-0.0149935,0.331463,0.992918
975,1171,3.30344,-0.0127267,0.330806,0.992098
977,1169,3.3034,-0.0126975,0.330809,0.992141
979,1167,3.30332,-0.0127159,0.330805,0.992122
981,1165,3.30267,-0.0134171,0.33126,0.991516
983,1163,3.30306,-0.0133509,0.331265,0.991574
985,1161,3.30326,-0.0132825,0.330825,0.9918
987,1159,3.30282,-0.0123992,0.330818,0.991052
989,1157,3.30288,-0.0123937,0.330824,0.991075
991,1155,3.30279,-0.0128671,0.330824,0.990774
993,1153,3.30229,-0.0131242,0.33127,0.990447
995,1151,3.30276,-0.0129001,0.330813,0.990733
997,1149,3.30207,-0.0135482,0.331365,0.990162
999,1147,3.30195,-0.0136415,0.331267,0.990129
1001,1145,3.30388,-0.0107048,0.330156,0.989873
1003,1143,3.30278,-0.0127719,0.331059,0.989542
1005,1141,3.30346,-0.0113034,0.330153,0.989492
1007,1139,3.30341,-0.011127,0.330153,0.989374
1009,1137,3.3029,-0.0118927,0.330611,0.988967
1011,1135,3.30283,-0.011855,0.330603,0.98898
1013,1133,3.30325,-0.0117331,0.330158,0.989236
1015,1131,3.30203,-0.0124347,0.331504,0.98844
1017,1129,3.30282,-0.0123775,0.330603,0.988655
1019,1127,3.30181,-0.0146443,0.33152,0.988218
1021,1125,3.30179,-0.0130744,0.331055,0.988308
1023,1123,3.30205,-0.013076,0.331061,0.988063
1025,1121,3.30187,-0.0135294,0.331064,0.987783
1027,1119,3.30129,-0.0137964,0.331526,0.987467
1029,1117,3.30345,-0.0105578,0.329951,0.987565
1031,1115,3.30298,-0.011301,0.330874,0.986957
1033,1113,3.30327,-0.0111872,0.329964,0.987201
1035,1111,3.30312,-0.0118457,0.330416,0.986624
1037,1109,3.30215,-0.0119242,0.330875,0.986426
1039,1107,3.303,-0.0118185,0.330358,0.986664
1041,1105,3.30215,-0.0123839,0.330874,0.986408
1043,1103,3.30206,-0.0124824,0.330877,0.986082
1045,1101,3.30195,-0.0125407,0.330821,0.986027
1047,1099,3.30202,-0.0129979,0.330872,0.985994
1049,1097,3.30134,-0.0132115,0.331326,0.985452
1051,1095,3.30187,-0.0135965,0.330871,0.985366
1053,1093,3.30112,-0.0137444,0.331319,0.985095
1055,1091,3.30348,-0.0105647,0.32976,0.985185
1057,1089,3.3031,-0.0112692,0.330225,0.98462
1059,1087,3.30252,-0.0119181,0.330683,0.98404
1061,1085,3.30267,-0.0118693,0.330677,0.98408
1063,1083,3.30187,-0.0125275,0.331206,0.983488
1065,1081,3.30235,-0.0124549,0.330682,0.983698
1067,1079,3.30213,-0.0125451,0.330675,0.983631
1069,1077,3.30121,-0.0132457,0.331597,0.982896
1071,1075,3.30194,-0.0131686,0.331133,0.983103
1073,1073,3.30186,-0.0130282,0.330673,0.983336
1075,1071,3.30149,-0.0132231,0.331129,0.983052
1077,1069,3.30091,-0.0137875,0.331588,0.982532
1079,1067,3.30302,-0.0106246,0.330019,0.982587
1081,1065,3.30266,-0.0113756,0.330483,0.981965
1083,1063,3.30255,-0.0113181,0.330477,0.982006
1085,1061,3.30171,-0.0121089,0.330936,0.981353
1087,1059,3.30245,-0.0118827,0.330402,0.981653
1089,1057,3.30187,-0.0125941,0.33094,0.981052
1091,1055,3.3019,-0.0125452,0.330939,0.981076
1093,1053,3.30212,-0.0124714,0.330482,0.981289
1095,1051,3.30085,-0.013315,0.331399,0.980434
1097,1049,3.30147,-0.0131546,0.330941,0.9807
1099,1047,3.30084,-0.0138711,0.331402,0.9801
1101,1045,3.30078,-0.0138967,0.331502,0.980096
1103,1043,3.30312,-0.0107346,0.329822,0.980114
1105,1041,3.30175,-0.0114548,0.330736,0.979312
1107,1039,3.30231,-0.0113528,0.330349,0.979555
1109,1037,3.30171,-0.0120388,0.330738,0.978959
1111,1035,3.30175,-0.0120632,0.330751,0.978955
1113,1033,3.30161,-0.0120791,0.33074,0.978935
1115,1031,3.30071,-0.0127413,0.3312,0.978612
1117,1029,3.3014,-0.0126823,0.330686,0.978532
1119,1027,3.30059,-0.0132539,0.331657,0.978019
1121,1025,3.30067,-0.0133581,0.33119,0.977952
1123,1023,3.30027,-0.0134173,0.331191,0.977896
1125,1021,3.29983,-0.0140847,0.331659,0.977349
1127,1019,3.3022,-0.010946,0.33008,0.977351
1129,1017,3.30179,-0.0113901,0.330546,0.976942
1131,1015,3.30185,-0.011468,0.330552,0.976905
1133,1013,3.30177,-0.0119974,0.330555,0.976578
1135,1011,3.30109,-0.0121714,0.33101,0.976302
1137,1009,3.30129,-0.0127303,0.331011,0.975962
1139,1007,3.30064,-0.012751,0.331007,0.975917
1141,1005,3.30076,-0.0127305,0.331466,0.975938
1143,1003,3.30052,-0.013277,0.330995,0.975561
1145,1001,3.30023,-0.0149427,0.331454,0.975637
1147,999,3.30007,-0.0149902,0.331455,0.975609
1149,997,3.29929,-0.015699,0.331919,0.975011
1151,995,3.30144,-0.01263,0.330801,0.974578
1153,993,3.30068,-0.013181,0.331275,0.97432
1155,991,3.30152,-0.0115068,0.330344,0.974409
1157,989,3.30149,-0.0121365,0.33034,0.974012
1159,987,3.30119,-0.0121294,0.330343,0.97402
1161,985,3.30122,-0.0121602,0.330347,0.97401
1163,983,3.29982,-0.0129101,0.331272,0.973205
1165,981,3.30032,-0.0143527,0.331268,0.973586
1167,979,3.29953,-0.0150891,0.331736,0.972948
1169,977,3.30002,-0.0149564,0.331254,0.973179
1171,975,3.29942,-0.0156657,0.331725,0.972582
1173,973,3.2992,-0.0157167,0.33173,0.972561
1175,971,3.30105,-0.0125453,0.330158,0.972413
1177,969,3.30031,-0.0133762,0.331153,0.971738
1179,967,3.30095,-0.0131196,0.330609,0.972062
1181,965,3.30039,-0.0138679,0.331091,0.971465
1183,963,3.30068,-0.012266,0.330627,0.971351
1185,961,3.30003,-0.0128662,0.331098,0.97083
1187,959,3.29982,-0.0145175,0.331561,0.970925
1189,957,3.29976,-0.013434,0.331079,0.970446
1191,955,3.29964,-0.0135527,0.331157,0.970384
1193,953,3.29961,-0.014139,0.331083,0.969816
1195,951,3.29864,-0.0158524,0.332099,0.969912
1197,949,3.30073,-0.0132105,0.330898,0.969423
1199,947,3.2998,-0.0134412,0.331383,0.969148
1201,945,3.30087,-0.0121941,0.330442,0.968954
1203,943,3.30018,-0.0123208,0.330918,0.968731
1205,941,3.29974,-0.0129946,0.331392,0.968174
1207,939,3.29981,-0.0134215,0.331404,0.967953
1209,937,3.29968,-0.0136778,0.331867,0.96777
1211,935,3.29941,-0.014031,0.331392,0.967523
1213,933,3.29941,-0.0142088,0.331395,0.96743
1215,931,3.29914,-0.0142271,0.331391,0.967415
1217,929,3.30051,-0.0117094,0.330751,0.966699
1219,927,3.30105,-0.0116132,0.330272,0.966928
1221,925,3.2998,-0.0124402,0.331223,0.966084
1223,923,3.30028,-0.012199,0.330741,0.966388
1225,921,3.29963,-0.012486,0.331224,0.966069
1227,919,3.2997,-0.0129644,0.331223,0.965765
1229,917,3.29951,-0.0135309,0.331221,0.965435
1231,915,3.2992,-0.0136514,0.331721,0.965256
1233,913,3.2985,-0.0142225,0.332195,0.964751
1235,911,3.29897,-0.0141803,0.331705,0.96491
1237,909,3.3002,-0.0117419,0.331066,0.964123
1239,907,3.30019,-0.0117387,0.331055,0.964115
1241,905,3.30022,-0.0116546,0.330592,0.964319
1243,903,3.30004,-0.0123224,0.331064,0.963764
1245,901,3.29965,-0.0123346,0.331047,0.96372
1247,899,3.29975,-0.0129416,0.331062,0.963366
1249,897,3.2991,-0.0130254,0.331447,0.963151
1251,895,3.29915,-0.0137034,0.331545,0.962766
1253,893,3.29896,-0.0141383,0.331554,0.962536
1255,891,3.29926,-0.0141469,0.331564,0.962565
1257,889,3.30039,-0.011772,0.330916,0.961691
1259,887,3.30072,-0.0115865,0.330432,0.961974
1261,885,3.30013,-0.0122791,0.330904,0.961369
1263,883,3.29965,-0.0124459,0.331391,0.961137
1265,881,3.29938,-0.0129605,0.331382,0.96081
1267,879,3.29977,-0.0129293,0.330895,0.961225
1269,877,3.29874,-0.0137974,0.331873,0.960144
1271,875,3.29914,-0.0136057,0.331377,0.960384
1273,873,3.29841,-0.0137257,0.331857,0.960167
1275,871,3.29861,-0.01436,0.331867,0.959806
1277,869,3.29967,-0.0117728,0.331235,0.959102
1279,867,3.30037,-0.0118303,0.330766,0.959278
1281,865,3.29922,-0.0123303,0.331229,0.958768
1283,863,3.29926,-0.012327,0.331205,0.958711
1285,861,3.29885,-0.0124763,0.331277,0.958626
1287,859,3.29887,-0.0131311,0.331195,0.958193
1289,857,3.29818,-0.0133564,0.331672,0.957893
1291,855,3.29815,-0.0137617,0.331675,0.957644
1293,853,3.29793,-0.0138747,0.331676,0.957576
1295,851,3.29795,-0.0144083,0.331677,0.957266
1297,849,3.29709,-0.0145648,0.33216,0.957005
1299,847,3.29902,-0.0118274,0.331023,0.95651
1301,845,3.29905,-0.0119447,0.33104,0.956474
1303,843,3.29843,-0.0126788,0.331528,0.955889
1305,841,3.29883,-0.0125378,0.331046,0.956142
1307,839,3.29817,-0.0131144,0.331529,0.955617
1309,837,3.29803,-0.0133298,0.33152,0.955468
1311,835,3.29728,-0.0139595,0.331995,0.954898
1313,833,3.29766,-0.0138561,0.331512,0.955142
1315,831,3.29704,-0.0145574,0.331999,0.954552
1317,829,3.29915,-0.0114278,0.330867,0.954293
1319,827,3.2984,-0.0121745,0.331357,0.953687
1321,825,3.29807,-0.0142843,0.331838,0.953524
1323,823,3.29816,-0.0127242,0.331361,0.953358
1325,821,3.29811,-0.0126938,0.331351,0.953379
1327,819,3.29758,-0.0134451,0.331853,0.952794
1329,817,3.2978,-0.0138062,0.331857,0.952614
1331,815,3.29763,-0.0139409,0.331863,0.952551
1333,813,3.2971,-0.014611,0.332361,0.951996
1335,811,3.29853,-0.0113919,0.331232,0.95178
1337,809,3.29831,-0.011887,0.331211,0.951434
1339,807,3.29857,-0.0119834,0.331207,0.951363
1341,805,3.29771,-0.0129215,0.331705,0.950657
1343,803,3.29746,-0.0133546,0.331698,0.950386
1345,801,3.29725,-0.0133385,0.331699,0.950396
1347,799,3.29739,-0.0133142,0.331699,0.950424
1349,797,3.29666,-0.0142103,0.332195,0.94975
1351,795,3.29651,-0.0146937,0.332186,0.949432
1353,793,3.29824,-0.0114265,0.331064,0.94927
1355,791,3.29812,-0.0120224,0.331067,0.948909
1357,789,3.29794,-0.0120652,0.331534,0.948866
1359,787,3.29731,-0.0127942,0.331549,0.948271
1361,785,3.29739,-0.0133518,0.331548,0.947924
1363,783,3.29645,-0.0134561,0.332038,0.9477
1365,781,3.29703,-0.013347,0.331549,0.947924
1367,779,3.29629,-0.014144,0.332045,0.947283
1369,777,3.29632,-0.0142301,0.33204,0.947239
1371,775,3.29546,-0.0149812,0.332539,0.946635
1373,773,3.29759,-0.0121608,0.331406,0.946178
1375,771,3.29728,-0.0122185,0.331399,0.946122
1377,769,3.2968,-0.0139167,0.331877,0.946204
1379,767,3.29614,-0.0147614,0.332375,0.945527
1381,765,3.29609,-0.0152235,0.33237,0.945233
1383,763,3.296,-0.0152466,0.33237,0.945225
1385,761,3.29578,-0.0158536,0.332382,0.944891
1387,759,3.29585,-0.0158568,0.332394,0.944899
1389,757,3.29515,-0.0148947,0.332392,0.944218
1391,755,3.29718,-0.0116929,0.331268,0.943993
1393,753,3.29641,-0.0123891,0.331853,0.943394
1395,751,3.29657,-0.0129226,0.331758,0.943095
1397,749,3.29632,-0.0129672,0.331768,0.943088
1399,747,3.29638,-0.0135167,0.331758,0.942748
1401,745,3.29608,-0.0136423,0.331753,0.942643
1403,743,3.29546,-0.0142849,0.332266,0.942141
1405,741,3.29561,-0.0149588,0.332265,0.941748
1407,739,3.29692,-0.0122594,0.331631,0.94103
1409,737,3.29668,-0.0122708,0.331624,0.941033
1411,735,3.2959,-0.0129652,0.332128,0.940465
1413,733,3.29634,-0.0129192,0.331627,0.94064
1415,731,3.29561,-0.013675,0.332134,0.940039
1417,729,3.29557,-0.0137354,0.332128,0.93999
1419,727,3.29493,-0.0145418,0.332634,0.939359
1421,725,3.29491,-0.0150546,0.332633,0.939068
1423,723,3.29451,-0.0150569,0.33263,0.939058
1425,721,3.29647,-0.0123115,0.331495,0.938527
1427,719,3.29631,-0.0123781,0.331497,0.938734
1429,717,3.2961,-0.0128827,0.331496,0.938186
1431,715,3.29565,-0.013692,0.332004,0.937577
1433,713,3.29484,-0.0138055,0.332506,0.93735
1435,711,3.29496,-0.0144431,0.332499,0.936962
1437,709,3.29413,-0.0151906,0.333022,0.936396
1439,707,3.29655,-0.0116847,0.331369,0.936423
1441,705,3.29579,-0.012528,0.331878,0.935789
1443,703,3.29583,-0.0129976,0.331874,0.935513
1445,701,3.29549,-0.0130221,0.33187,0.935479
1447,699,3.29545,-0.013664,0.331875,0.935117
1449,697,3.29537,-0.013793,0.331878,0.935031
1451,695,3.29449,-0.0144265,0.332383,0.934499
1453,693,3.29408,-0.0152052,0.332891,0.933904
1455,691,3.2957,-0.0117629,0.331755,0.933745
1457,689,3.29568,-0.0124145,0.331748,0.933363
1459,687,3.29499,-0.0131725,0.332263,0.932767
1461,685,3.29525,-0.0129808,0.331719,0.932964
1463,683,3.29417,-0.0149763,0.332747,0.932742
1465,681,3.29447,-0.0138908,0.332732,0.932315
1467,679,3.29428,-0.014054,0.33225,0.932213
1469,677,3.29344,-0.0145974,0.332754,0.931721
1471,675,3.29359,-0.015263,0.332753,0.931329
1473,673,3.29518,-0.0119145,0.331623,0.931119
1475,671,3.29471,-0.012646,0.332127,0.93053
1477,669,3.29393,-0.0133885,0.332635,0.929926
1479,667,3.29402,-0.0149448,0.332626,0.930275
1481,665,3.29331,-0.0156119,0.333121,0.929659
1483,663,3.29353,-0.0157417,0.332616,0.929766
1485,661,3.29298,-0.0165523,0.33314,0.929167
1487,659,3.29251,-0.0154404,0.333139,0.928565
1489,657,3.29477,-0.0126807,0.332,0.928006
1491,655,3.29452,-0.0127633,0.332014,0.927976
1493,653,3.29397,-0.0133444,0.33253,0.927495
1495,651,3.29383,-0.0140695,0.332527,0.927037
1497,649,3.29364,-0.0140169,0.33246,0.927083
1499,647,3.29336,-0.0147098,0.332512,0.926652
1501,645,3.29271,-0.0153861,0.333027,0.926109
1503,643,3.29236,-0.0171789,0.333554,0.926185
1505,641,3.29353,-0.0145389,0.333413,0.925359
1507,639,3.29407,-0.0144579,0.332365,0.925567
1509,637,3.29364,-0.0135557,0.332416,0.923587
1511,635,3.29355,-0.0141407,0.33241,0.924509
1513,633,3.29283,-0.0143603,0.332941,0.924248
1515,631,3.29271,-0.0148304,0.332946,0.924192
1517,629,3.29227,-0.0155031,0.33346,0.923434
1519,627,3.29405,-0.0127015,0.332321,0.922869
1521,625,3.29395,-0.0127876,0.332322,0.92282
1523,623,3.29328,-0.0135469,0.332836,0.92221
1525,621,3.29345,-0.0123716,0.332313,0.922033
1527,619,3.29293,-0.014172,0.332842,0.92187
1529,617,3.29278,-0.0130726,0.332319,0.921407
1531,615,3.29277,-0.0131128,0.332309,0.921359
1533,613,3.29367,-0.0173459,0.331699,0.92059
1535,611,3.2938,-0.0162969,0.331167,0.920066
1537,609,3.29304,-0.0187126,0.332215,0.919655
1539,607,3.29367,-0.0168381,0.331181,0.919803
1541,605,3.29318,-0.0175727,0.331702,0.919217
1543,603,3.29293,-0.0164665,0.331189,0.91877
1545,601,3.29254,-0.0172447,0.331704,0.918171
1547,599,3.29392,-0.0156552,0.331083,0.917987
1549,597,3.29447,-0.0127225,0.330037,0.917477
1551,595,3.2937,-0.0162772,0.331075,0.917629
1553,593,3.29328,-0.0134885,0.330553,0.916863
1555,591,3.29321,-0.0141567,0.330555,0.916463
1557,589,3.29269,-0.016003,0.331061,0.916477
1559,587,3.29288,-0.0148484,0.330542,0.916048
1561,585,3.29208,-0.0157037,0.331058,0.915392
1563,583,3.29362,-0.0111172,0.329925,0.914586
1565,581,3.29378,-0.0179579,0.32987,0.914823
1567,579,3.29314,-0.0188415,0.329931,0.914171
1569,577,3.29329,-0.0175935,0.329404,0.913791
1571,575,3.29271,-0.0194562,0.329929,0.913837
1573,573,3.29213,-0.0184072,0.32993,0.913428
1575,571,3.29452,-0.0139392,0.328276,0.912447
1577,569,3.29362,-0.0164058,0.329312,0.911982
1579,567,3.29384,-0.0134549,0.328754,0.911459
1581,565,3.29361,-0.0134588,0.328265,0.911454
1583,563,3.29271,-0.0142797,0.328784,0.910814
1585,561,3.29259,-0.0201588,0.328265,0.910346
1587,559,3.29259,-0.0132476,0.328269,0.910321
1589,557,3.29187,-0.0138565,0.32877,0.909782
1591,555,3.29378,-0.0181393,0.327645,0.909172
1593,553,3.2932,-0.012977,0.32821,0.909209
1595,551,3.29255,-0.0189311,0.328151,0.908549
1597,549,3.29273,-0.0177823,0.327633,0.908099
1599,547,3.29203,-0.0134499,0.328673,0.907522
1601,545,3.29211,-0.0184089,0.32762,0.907705
1603,543,3.29417,-0.0139741,0.32597,0.906945
1605,541,3.29349,-0.0146914,0.326484,0.906388
1607,539,3.29397,-0.0127547,0.325451,0.906554
1609,537,3.29338,-0.0135739,0.325972,0.905932
1611,535,3.29262,-0.0143402,0.326478,0.905314
1613,533,3.29287,-0.0131286,0.325956,0.904893
1615,531,3.29247,-0.0150073,0.32648,0.904944
1617,529,3.29183,-0.0140213,0.326488,0.904259
1619,527,3.29407,-0.0111976,0.325348,0.903683
1621,525,3.29366,-0.011296,0.325353,0.903644
1623,523,3.29309,-0.0189414,0.325351,0.903278
1625,521,3.29321,-0.0177391,0.324829,0.902836
1627,519,3.29261,-0.0185565,0.325345,0.902232
1629,517,3.29188,-0.0192655,0.32586,0.901658
1631,515,3.29386,-0.0140371,0.324208,0.901353
1633,513,3.2935,-0.0165158,0.324638,0.901053
1635,511,3.29261,-0.017395,0.325242,0.900393
1637,509,3.29302,-0.0143617,0.324206,0.89991
1639,507,3.29331,-0.014282,0.323686,0.90009
1641,505,3.29191,-0.0169812,0.325723,0.899373
1643,503,3.2921,-0.0140023,0.324203,0.898839
1645,501,3.29414,-0.0112799,0.32308,0.89823
1647,499,3.29347,-0.0131099,0.323597,0.898307
1649,497,3.29319,-0.018912,0.323085,0.896421
1651,495,3.29367,-0.0159543,0.322053,0.897351
1653,493,3.29275,-0.0203071,0.323594,0.896961
1655,491,3.29211,-0.0193247,0.3236,0.896256
1657,489,3.29437,-0.0158127,0.321948,0.896221
1659,487,3.29372,-0.0165394,0.322456,0.895661
1661,485,3.29317,-0.0155176,0.322453,0.894714
1663,483,3.29349,-0.0153407,0.321937,0.895457
1665,481,3.29307,-0.014389,0.321934,0.894478
1667,479,3.29251,-0.0169155,0.322446,0.89415
1669,477,3.29204,-0.0140804,0.321933,0.893386
1671,475,3.29381,-0.0181808,0.3208,0.892879
1673,473,3.29392,-0.0112366,0.320796,0.892799
1675,471,3.29317,-0.0119648,0.321318,0.892251
1677,469,3.29292,-0.012684,0.321319,0.891855
1679,467,3.2928,-0.0186183,0.320811,0.891394
1681,465,3.29214,-0.0193925,0.321327,0.890822
1683,463,3.29425,-0.0146566,0.319681,0.890181
1685,461,3.29377,-0.0154704,0.320197,0.889583
1687,459,3.29369,-0.0173157,0.320194,0.889813
1689,457,3.29311,-0.0162388,0.320194,0.889151
1691,455,3.29334,-0.0132383,0.319166,0.888611
1693,453,3.29284,-0.0140087,0.319678,0.888024
1695,451,3.29405,-0.014243,0.319572,0.887951
1697,449,3.29414,-0.0112623,0.318546,0.887389
1699,447,3.29392,-0.0188576,0.31855,0.88687
1701,445,3.2935,-0.0179433,0.318558,0.886381
1703,443,3.29322,-0.0204542,0.319073,0.886109
1705,441,3.2927,-0.0176229,0.318571,0.885342
1707,439,3.29508,-0.0139081,0.316932,0.885419
1709,437,3.29462,-0.0146783,0.317435,0.884813
1711,435,3.29409,-0.0173092,0.317943,0.884688
1713,433,3.29391,-0.0154992,0.317427,0.884325
1715,431,3.29408,-0.0142766,0.316914,0.88388
1717,429,3.29344,-0.0150442,0.317422,0.8833
1719,427,3.29256,-0.0176787,0.318442,0.882789
1721,425,3.29439,-0.0142113,0.317317,0.882561
1723,423,3.29435,-0.0129508,0.316803,0.882141
1725,421,3.29379,-0.0120439,0.316797,0.881375
1727,419,3.29339,-0.0127935,0.316798,0.880962
1729,417,3.29301,-0.0205071,0.316799,0.880635
1731,415,3.29251,-0.0194225,0.316798,0.879957
1733,413,3.29499,-0.0129335,0.314661,0.879179
1735,411,3.29395,-0.0155799,0.315674,0.878681
1737,409,3.29444,-0.0136709,0.314656,0.878971
1739,407,3.29352,-0.0163098,0.315668,0.878266
1741,405,3.29321,-0.0169696,0.315718,0.87791
1743,403,3.29278,-0.0158896,0.315672,0.877246
1745,401,3.29508,-0.0112229,0.314041,0.876566
1747,399,3.2946,-0.0129868,0.314545,0.876689
1749,397,3.29382,-0.0139113,0.315055,0.876024
1751,395,3.29341,-0.0145453,0.315055,0.87567
1753,393,3.29273,-0.0205707,0.315057,0.875029
1755,391,3.29253,-0.019431,0.314996,0.874529
1757,389,3.29443,-0.0159045,0.313419,0.874333
1759,387,3.29443,-0.0165996,0.313422,0.873958
1761,385,3.29361,-0.012171,0.314441,0.873417
1763,383,3.29315,-0.0199516,0.314442,0.87308
1765,381,3.29346,-0.0151662,0.312918,0.872134
1767,379,3.29313,-0.0140176,0.312917,0.871732
1769,377,3.29492,-0.0130454,0.312303,0.87124
1771,375,3.29448,-0.0130924,0.312298,0.871206
1773,373,3.29402,-0.0121043,0.312774,0.870476
1775,371,3.29354,-0.014534,0.312803,0.870239
1777,369,3.29304,-0.0135355,0.312802,0.869513
1779,367,3.29249,-0.0212942,0.312798,0.869193
1781,365,3.29421,-0.0167302,0.31168,0.86829
1783,363,3.29449,-0.0167074,0.311177,0.868728
1785,361,3.29429,-0.0155428,0.311182,0.867865
1787,359,3.29365,-0.018093,0.311705,0.867604
1789,357,3.29321,-0.0171478,0.311696,0.866846
1791,355,3.29313,-0.0177043,0.31169,0.86654
1793,353,3.29467,-0.0130859,0.310575,0.865641
1795,351,3.29418,-0.0156231,0.311069,0.865338
1797,349,3.29407,-0.0137858,0.310559,0.865225
1799,347,3.29404,-0.0126686,0.310052,0.864711
1801,345,3.29309,-0.0206834,0.310555,0.864116
1803,343,3.29295,-0.021302,0.310548,0.863756
1805,341,3.29489,-0.0106142,0.309427,0.863503
1807,339,3.29436,-0.0184981,0.309427,0.863394
1809,337,3.29369,-0.0193263,0.309935,0.862538
1811,335,3.29295,-0.0202256,0.310447,0.86192
1813,333,3.29302,-0.0190209,0.310398,0.861495
1815,331,3.29252,-0.0178623,0.309948,0.860852
1817,329,3.29459,-0.0150085,0.308844,0.860275
1819,327,3.29461,-0.0138087,0.308337,0.859803
1821,325,3.2941,-0.0127174,0.308321,0.859093
1823,323,3.29357,-0.0152547,0.308831,0.858849
1825,321,3.29351,-0.0134475,0.308329,0.858744
1827,319,3.2952,-0.0176768,0.307209,0.858198
1829,317,3.2944,-0.0185474,0.307703,0.857554
1831,315,3.29443,-0.0174194,0.307196,0.857033
1833,313,3.2936,-0.0182253,0.307699,0.856446
1835,311,3.29329,-0.0182977,0.307734,0.856408
1837,309,3.29331,-0.0171146,0.307193,0.855921
1839,307,3.2945,-0.016246,0.3071,0.853891
1841,305,3.29477,-0.0131365,0.306096,0.854715
1843,303,3.29447,-0.0127957,0.306094,0.853612
1845,301,3.29373,-0.0146908,0.306596,0.853727
1847,299,3.29351,-0.020686,0.306098,0.853287
1849,297,3.29501,-0.0106977,0.305479,0.852457
1851,295,3.29447,-0.0186377,0.305478,0.852093
1853,293,3.29394,-0.017516,0.30557,0.851418
1855,291,3.29346,-0.0201876,0.30598,0.851103
1857,289,3.29365,-0.0170713,0.305443,0.850529
1859,287,3.29287,-0.0178944,0.305475,0.84994
1861,285,3.29509,-0.0142602,0.303857,0.849892
1863,283,3.29448,-0.0131435,0.303858,0.849217
1865,281,3.29358,-0.0158126,0.30485,0.848741
1867,279,3.29362,-0.014582,0.304344,0.84825
1869,277,3.2932,-0.0135888,0.304342,0.847516
1871,275,3.29313,-0.0153861,0.304348,0.847838
1873,273,3.29416,-0.0186563,0.303825,0.846425
1875,271,3.29463,-0.0114231,0.303244,0.846576
1877,269,3.29435,-0.0174176,0.302745,0.846153
1879,267,3.29336,-0.0199842,0.303733,0.845716
1881,265,3.2926,-0.019111,0.303732,0.844905
1883,263,3.29268,-0.0178553,0.303231,0.844444
1885,261,3.2939,-0.0169772,0.303124,0.843766
1887,259,3.29398,-0.0157765,0.302618,0.843273
1889,257,3.29295,-0.0184364,0.303623,0.84282
1891,255,3.29288,-0.0173365,0.303116,0.842277
1893,253,3.29234,-0.0192184,0.303618,0.842395
1895,251,3.294,-0.0145931,0.30254,0.84145
1897,249,3.29399,-0.0133448,0.301998,0.840993
1899,247,3.29378,-0.014098,0.302002,0.840596
1901,245,3.29297,-0.0202854,0.302004,0.83995
1903,243,3.29295,-0.019071,0.301501,0.839454
1905,241,3.29208,-0.0199217,0.302001,0.838853
1907,239,3.29449,-0.0151422,0.300391,0.838119
1909,237,3.29337,-0.0178599,0.301395,0.837658
1911,235,3.2932,-0.0184603,0.301391,0.837346
1913,233,3.29271,-0.0185947,0.301392,0.837279
1915,231,3.2928,-0.0173717,0.300886,0.836791
1917,229,3.2942,-0.0145202,0.30028,0.836026
1919,227,3.29423,-0.0115071,0.299308,0.835374
1921,225,3.29324,-0.0195737,0.299774,0.834834
1923,223,3.29326,-0.0129674,0.299777,0.834437
1925,221,3.29254,-0.0137492,0.300274,0.833857
1927,219,3.29424,-0.0127572,0.299673,0.833397
1929,217,3.29388,-0.0188629,0.299175,0.83296
1931,215,3.29318,-0.0196948,0.299677,0.832405
1933,213,3.29356,-0.0146943,0.298181,0.831645
1935,211,3.29262,-0.0174542,0.299186,0.831185
1937,209,3.29257,-0.0162372,0.298671,0.830658
1939,207,3.29362,-0.0153826,0.298565,0.829968
1941,205,3.29354,-0.0141509,0.298061,0.829482
1943,203,3.29353,-0.0129838,0.297562,0.828962
1945,201,3.29244,-0.0210769,0.298059,0.828442
1947,199,3.29248,-0.0144872,0.298059,0.828012
1949,197,3.29416,-0.010922,0.296951,0.827756
1951,195,3.29354,-0.0189468,0.29695,0.827438
1953,193,3.2937,-0.015858,0.29595,0.826784
1955,191,3.29293,-0.0167099,0.296443,0.826176
1957,189,3.29198,-0.0194565,0.297442,0.82574
1959,187,3.29403,-0.0146534,0.295843,0.825009
1961,185,3.29412,-0.0133695,0.295348,0.824563
1963,183,3.29351,-0.0122964,0.295345,0.823835
1965,181,3.29299,-0.0148932,0.295845,0.823601
1967,179,3.29298,-0.0137609,0.295348,0.82308
1969,177,3.29183,-0.0219668,0.295842,0.822779
1971,175,3.29395,-0.0170626,0.294244,0.821816
1973,173,3.29295,-0.0198007,0.295237,0.821374
1975,171,3.29289,-0.0185899,0.294735,0.820877
1977,169,3.29241,-0.0175222,0.294763,0.820154
1979,167,3.29204,-0.018221,0.294734,0.819779
1981,165,3.29348,-0.0154349,0.294132,0.818971
1983,163,3.29354,-0.0153422,0.293636,0.819184
1985,161,3.29323,-0.0203704,0.29314,0.81801
1987,159,3.292,-0.0176902,0.294632,0.817666
1989,157,3.29232,-0.0212176,0.293142,0.817591
1991,155,3.29376,-0.0189935,0.292534,0.816468
1993,153,3.29316,-0.0197571,0.292647,0.815949
1995,151,3.2933,-0.0197991,0.293002,0.816077
1997,149,3.29295,-0.0167683,0.29204,0.815224
1999,147,3.29199,-0.0202003,0.29303,0.814432
2001,145,3.29452,-0.0145208,0.290938,0.814267
2003,143,3.29356,-0.0153334,0.291433,0.813697
2005,141,3.29313,-0.0142498,0.291426,0.812962
2007,139,3.29272,-0.0151154,0.291426,0.812786
2009,137,3.29265,-0.0137814,0.290935,0.81207
2011,135,3.29451,-0.010909,0.289786,0.811459
2013,133,3.29369,-0.0171647,0.289843,0.810822
2015,131,3.29266,-0.0206082,0.290831,0.810036
2017,129,3.29323,-0.016734,0.289361,0.809932
2019,127,3.29171,-0.0203065,0.290925,0.808935
2021,125,3.29419,-0.0145729,0.288752,0.808779
2023,123,3.29379,-0.0141177,0.288746,0.807705
2025,121,3.2931,-0.0161568,0.289238,0.807809
2027,119,3.29315,-0.013024,0.288253,0.807138
2029,117,3.29238,-0.0139214,0.288736,0.806511
2031,115,3.29408,-0.0109477,0.288106,0.805937
2033,113,3.29328,-0.0172543,0.28764,0.805244
2035,111,3.29267,-0.0200015,0.288129,0.804991
2037,109,3.2926,-0.0186319,0.287632,0.804523
2039,107,3.29168,-0.0196158,0.288126,0.803895
2041,105,3.29376,-0.0146792,0.286537,0.801778
2043,103,3.29315,-0.0174016,0.287039,0.802941
2045,101,3.29325,-0.0123166,0.286065,0.801987
2047,99,3.29264,-0.0151377,0.286566,0.801736
2049,97,3.29208,-0.0201632,0.286076,0.800561
2051,95,3.29365,-0.0192779,0.285474,0.800062
2053,93,3.29337,-0.016106,0.284986,0.799245
2055,91,3.29251,-0.0169631,0.284974,0.798796
2057,89,3.29238,-0.0157428,0.284484,0.798249
2059,87,3.29412,-0.0126729,0.283395,0.797692
2061,85,3.29353,-0.0116644,0.283395,0.796934
2063,83,3.29319,-0.012442,0.28339,0.79654
2065,81,3.29233,-0.0132565,0.283872,0.795973
2067,79,3.29159,-0.0214154,0.283871,0.79565
2069,77,3.29304,-0.0186575,0.283276,0.794836
2071,75,3.29317,-0.0153903,0.282311,0.794227
2073,73,3.29269,-0.0181171,0.283211,0.794001
2075,71,3.2923,-0.0150494,0.282313,0.793119
2077,69,3.29252,-0.0157321,0.281846,0.792968
2079,67,3.29361,-0.0117035,0.28124,0.791466
2081,65,3.29282,-0.0198516,0.281226,0.791129
2083,63,3.29283,-0.0131421,0.281236,0.790717
2085,61,3.29218,-0.0187826,0.280756,0.790527
2087,59,3.29158,-0.0213454,0.281223,0.790376
2089,57,3.29301,-0.0185098,0.280618,0.789561
2091,55,3.29294,-0.0172508,0.280138,0.789044
2093,53,3.29201,-0.018184,0.280616,0.788435
2095,51,3.29196,-0.016937,0.280131,0.787905
2097,49,3.29122,-0.0195315,0.280608,0.787734
2099,47,3.29242,-0.0155646,0.280016,0.786232
2101,45,3.29251,-0.0135734,0.279545,0.78612
2103,43,3.2921,-0.0144041,0.279545,0.785717
2105,41,3.2915,-0.013964,0.279539,0.784621
2107,39,3.29095,-0.0214356,0.279063,0.784832
2109,37,3.2926,-0.0173779,0.277985,0.783498
2111,35,3.29204,-0.0162529,0.277989,0.784229
2113,33,3.29214,-0.0161631,0.277511,0.782977
2115,31,3.29084,-0.0189067,0.278448,0.782574
2117,29,3.29055,-0.0165434,0.277974,0.781322
2119,27,3.29235,-0.0134648,0.276893,0.780756
2121,25,3.29155,-0.0155725,0.277367,0.780845
2123,23,3.29102,-0.0124692,0.276883,0.779949
2125,21,3.29023,-0.0208937,0.276887,0.779534
2127,19,3.29007,-0.0140782,0.276887,0.779161
2129,17,3.29142,-0.01939,0.276303,0.778116
2131,15,3.29166,-0.0161839,0.275764,0.777435
2133,13,3.29048,-0.0170159,0.275839,0.776906
2135,11,3.29034,-0.0159139,0.275367,0.776308
2137,9,3.28984,-0.0222168,0.274889,0.775782
2139,7,3.29178,-0.0192047,0.273821,0.775244
2141,5,3.29099,-0.0124981,0.274285,0.774629
2143,3,3.29066,-0.0131842,0.274285,0.774285