File: hust_correlation_analysis/matrices/HUST_7-4_cycle_feature_matrix.csv
cycle_number,rul,voltage,current,capacity,charge_capacity
1,1395,3.3072,-0.00540771,0.329013,1.03156
3,1393,3.29823,-0.00819446,0.334497,1.02754
5,1391,3.29944,-0.00639225,0.333835,1.02653
7,1389,3.29952,-0.00691807,0.333963,1.02617
9,1387,3.30014,-0.00688445,0.333407,1.02636
11,1385,3.29987,-0.00748967,0.3334,1.02596
13,1383,3.29978,-0.00817604,0.333402,1.02553
15,1381,3.3001,-0.0080735,0.333109,1.02575
17,1379,3.29954,-0.00870838,0.333399,1.02519
19,1377,3.30127,-0.0063922,0.33231,1.02466
21,1375,3.30157,-0.00632004,0.331886,1.02488
23,1373,3.30153,-0.00693146,0.331886,1.02449
25,1371,3.30101,-0.00699473,0.331881,1.02469
27,1369,3.30076,-0.00705698,0.332238,1.02435
29,1367,3.30049,-0.0073544,0.332147,1.02412
31,1365,3.30033,-0.00738611,0.332231,1.0241
33,1363,3.30019,-0.00793077,0.332723,1.02374
35,1361,3.29955,-0.00805118,0.332661,1.0235
37,1359,3.29997,-0.00799074,0.332228,1.02367
39,1357,3.30204,-0.00574276,0.331139,1.0231
41,1355,3.30221,-0.00580172,0.331139,1.02308
43,1353,3.30281,-0.00576844,0.330717,1.02325
45,1351,3.30249,-0.00633824,0.33114,1.02273
47,1349,3.30293,-0.0062539,0.330709,1.02293
49,1347,3.3024,-0.00695111,0.331131,1.0223
51,1345,3.30204,-0.00696238,0.331131,1.02232
53,1343,3.30141,-0.00695005,0.331141,1.02234
55,1341,3.30138,-0.00751608,0.331134,1.02194
57,1339,3.30131,-0.00750459,0.331139,1.02197
59,1337,3.30136,-0.00750306,0.331136,1.02196
61,1335,3.30115,-0.00810304,0.331561,1.02141
63,1333,3.30116,-0.00811849,0.33156,1.02141
65,1331,3.3014,-0.00811668,0.331142,1.02157
67,1329,3.30312,-0.00573267,0.330055,1.0211
69,1327,3.30302,-0.00591086,0.330067,1.02101
71,1325,3.3031,-0.006047,0.330066,1.02092
73,1323,3.30295,-0.00639105,0.330071,1.02071
75,1321,3.30279,-0.0063195,0.330059,1.02075
77,1319,3.30292,-0.00633945,0.330061,1.02074
79,1317,3.30275,-0.00693514,0.330059,1.02033
81,1315,3.30257,-0.00718995,0.330058,1.02015
83,1313,3.30246,-0.00695184,0.330056,1.02057
85,1311,3.30232,-0.00695874,0.330059,1.02032
87,1309,3.30201,-0.00759312,0.330484,1.01975
89,1307,3.30187,-0.00751746,0.330488,1.01981
91,1305,3.30206,-0.00799527,0.330497,1.01951
93,1303,3.30247,-0.00802457,0.330123,1.0195
95,1301,3.30219,-0.00820924,0.330066,1.01951
97,1299,3.3029,-0.00854614,0.329695,1.01929
99,1297,3.30403,-0.0057552,0.328986,1.0191
101,1295,3.30407,-0.00575536,0.328908,1.01909
103,1293,3.30389,-0.0057106,0.328979,1.0191
105,1291,3.30373,-0.00574528,0.328985,1.0191
107,1289,3.30308,-0.00641099,0.329402,1.01848
109,1287,3.30154,-0.00928906,0.330114,1.01865
111,1285,3.30369,-0.00638808,0.328612,1.01868
113,1283,3.30336,-0.00688977,0.329038,1.01819
115,1281,3.30331,-0.00659277,0.329035,1.01839
117,1279,3.30302,-0.006844,0.329411,1.01824
119,1277,3.30351,-0.00720109,0.329039,1.01801
121,1275,3.30331,-0.00681537,0.328986,1.01838
123,1273,3.30355,-0.00721143,0.328983,1.01811
125,1271,3.30321,-0.0075517,0.329405,1.01774
127,1269,3.30361,-0.00742116,0.328983,1.01798
129,1267,3.30337,-0.00739103,0.329058,1.018
131,1265,3.30309,-0.00798125,0.329403,1.01747
133,1263,3.30289,-0.00781153,0.329038,1.01759
135,1261,3.30283,-0.00804573,0.329049,1.01747
137,1259,3.3026,-0.00832207,0.329047,1.01728
139,1257,3.30251,-0.00829869,0.329045,1.01729
141,1255,3.30277,-0.00820436,0.329044,1.01736
143,1253,3.30293,-0.00882425,0.329041,1.01693
145,1251,3.30294,-0.00881013,0.329035,1.01693
147,1249,3.303,-0.00884292,0.329042,1.01693
149,1247,3.30423,-0.00599225,0.328405,1.01674
151,1245,3.30483,-0.00654345,0.327957,1.01639
153,1243,3.30465,-0.00653127,0.327952,1.01638
155,1241,3.30451,-0.00655511,0.327955,1.01636
157,1239,3.30438,-0.00652382,0.32796,1.01639
159,1237,3.30456,-0.00713043,0.327965,1.01601
161,1235,3.30427,-0.00710154,0.327954,1.01601
163,1233,3.30457,-0.00693647,0.327958,1.01461
165,1231,3.30379,-0.00706852,0.328328,1.01605
167,1229,3.30433,-0.00760071,0.327958,1.01568
169,1227,3.30337,-0.00769049,0.328374,1.01546
171,1225,3.30345,-0.00773856,0.328448,1.01542
173,1223,3.30325,-0.00768341,0.328372,1.01544
175,1221,3.3028,-0.00742964,0.328744,1.01561
177,1219,3.30298,-0.00797706,0.328746,1.01524
179,1217,3.30426,-0.00770332,0.327952,1.0156
181,1215,3.30394,-0.00826727,0.328377,1.01509
183,1213,3.30392,-0.00798499,0.328301,1.01536
185,1211,3.30536,-0.00530786,0.327234,1.01487
187,1209,3.30539,-0.00572819,0.327236,1.01482
189,1207,3.30531,-0.00572623,0.327235,1.01482
191,1205,3.30485,-0.00603878,0.327662,1.01446
193,1203,3.30356,-0.0086343,0.328371,1.01482
195,1201,3.30449,-0.00611201,0.327664,1.01443
197,1199,3.30354,-0.00860861,0.327948,1.01499
199,1197,3.30476,-0.00634154,0.327238,1.01443
201,1195,3.3046,-0.00635393,0.327285,1.01427
203,1193,3.30402,-0.00633247,0.32774,1.01429
205,1191,3.30452,-0.00658634,0.327292,1.01413
207,1189,3.30457,-0.00689124,0.327296,1.01393
209,1187,3.30427,-0.00657876,0.327662,1.01412
211,1185,3.30435,-0.00682076,0.327733,1.01393
213,1183,3.30434,-0.00689253,0.327657,1.01363
215,1181,3.30434,-0.00690437,0.327652,1.01387
217,1179,3.30446,-0.00696348,0.327778,1.01381
219,1177,3.30456,-0.00704364,0.327639,1.01374
221,1175,3.30467,-0.00706807,0.32764,1.01372
223,1173,3.30458,-0.00720411,0.327633,1.01361
225,1171,3.30484,-0.00685175,0.327606,1.01377
227,1169,3.30408,-0.00726405,0.327637,1.01357
229,1167,3.30388,-0.00715673,0.327557,1.01359
231,1165,3.30433,-0.00711,0.327629,1.01367
233,1163,3.30427,-0.00766624,0.327626,1.01329
235,1161,3.30392,-0.00768106,0.327627,1.01327
237,1159,3.30388,-0.00773247,0.32763,1.01326
239,1157,3.30357,-0.00769847,0.327629,1.01327
241,1155,3.30351,-0.00770698,0.32762,1.01326
243,1153,3.30338,-0.00778334,0.327704,1.01322
245,1151,3.30349,-0.00831081,0.327635,1.01289
247,1149,3.30337,-0.00816318,0.327642,1.013
249,1147,3.30538,-0.00590581,0.326565,1.01246
251,1145,3.30532,-0.00589342,0.326563,1.01272
253,1143,3.30519,-0.00593305,0.326566,1.01245
255,1141,3.30511,-0.00595537,0.326565,1.01243
257,1139,3.30531,-0.00586025,0.326138,1.01289
259,1137,3.30427,-0.00873694,0.326852,1.0128
261,1135,3.30549,-0.0065089,0.326564,1.01205
263,1133,3.30593,-0.00645503,0.326214,1.01225
265,1131,3.30576,-0.00653297,0.326146,1.01221
267,1129,3.30614,-0.00644358,0.32573,1.01243
269,1127,3.30567,-0.00696713,0.326155,1.01195
271,1125,3.30535,-0.00704143,0.326346,1.01177
273,1123,3.30497,-0.00693809,0.326156,1.01197
275,1121,3.30547,-0.00695189,0.326262,1.01195
277,1119,3.30534,-0.00695321,0.325728,1.01211
279,1117,3.30541,-0.00699831,0.325721,1.01206
281,1115,3.30527,-0.00759255,0.326149,1.01154
283,1113,3.30508,-0.00756643,0.326276,1.01152
285,1111,3.30481,-0.00753393,0.326143,1.01155
287,1109,3.30461,-0.0075978,0.326148,1.01151
289,1107,3.30375,-0.00769227,0.326575,1.0113
291,1105,3.30476,-0.00759744,0.325784,1.01152
293,1103,3.3049,-0.00781176,0.325782,1.01139
295,1101,3.30464,-0.00803216,0.326635,1.01122
297,1099,3.30474,-0.00807101,0.326154,1.01122
299,1097,3.30516,-0.00802371,0.325862,1.01139
301,1095,3.30691,-0.00548709,0.324647,1.01101
303,1093,3.30643,-0.00581002,0.325555,1.01063
305,1091,3.3051,-0.0086732,0.325775,1.0108
307,1089,3.30628,-0.00583747,0.32507,1.01062
309,1087,3.30664,-0.00580752,0.324647,1.0108
311,1085,3.30661,-0.00582829,0.324646,1.01078
313,1083,3.30538,-0.00895511,0.325491,1.01081
315,1081,3.30731,-0.0066599,0.324299,1.01027
317,1079,3.3072,-0.00651277,0.324291,1.01037
319,1077,3.30709,-0.00651161,0.324284,1.01036
321,1075,3.30688,-0.00657439,0.324296,1.01033
323,1073,3.30654,-0.00658183,0.324649,1.0103
325,1071,3.30625,-0.00660739,0.324646,1.01026
327,1069,3.3061,-0.00693083,0.324647,1.01005
329,1067,3.306,-0.00699409,0.324651,1.01003
331,1065,3.30586,-0.00726287,0.324652,1.00984
333,1063,3.30619,-0.00701615,0.324289,1.01002
335,1061,3.30595,-0.00722262,0.324286,1.00988
337,1059,3.30624,-0.00780006,0.324295,1.00951
339,1057,3.30578,-0.00779908,0.324709,1.00936
341,1055,3.30616,-0.0076778,0.324299,1.00961
343,1053,3.30564,-0.00776713,0.324708,1.00939
345,1051,3.30562,-0.00767561,0.324718,1.00947
347,1049,3.30582,-0.00836864,0.324715,1.00899
349,1047,3.30578,-0.00838747,0.324718,1.00899
351,1045,3.3058,-0.00834603,0.324715,1.009
353,1043,3.30631,-0.00827552,0.324287,1.00918
355,1041,3.30631,-0.00833127,0.324429,1.00915
357,1039,3.30637,-0.00876796,0.324297,1.00889
359,1037,3.30613,-0.00884271,0.324297,1.00883
361,1035,3.30602,-0.00884004,0.3243,1.00886
363,1033,3.30731,-0.00662689,0.323529,1.00811
365,1031,3.3076,-0.00652458,0.323226,1.00832
367,1029,3.30767,-0.00650677,0.323221,1.00832
369,1027,3.30767,-0.0065197,0.323212,1.00827
371,1025,3.30761,-0.00663495,0.323208,1.00822
373,1023,3.30804,-0.00660586,0.322798,1.00839
375,1021,3.30792,-0.00715376,0.323204,1.00785
377,1019,3.30764,-0.0071473,0.323211,1.00787
379,1017,3.3074,-0.00712624,0.323351,1.00791
381,1015,3.30712,-0.00771439,0.323644,1.00737
383,1013,3.30695,-0.0077391,0.323632,1.00735
385,1011,3.30739,-0.00765468,0.323215,1.00754
387,1009,3.30754,-0.00769118,0.323221,1.00756
389,1007,3.30772,-0.00670488,0.322736,1.00708
391,1005,3.30729,-0.00813821,0.32322,1.00724
393,1003,3.307,-0.00822845,0.323223,1.00719
395,1001,3.30621,-0.00834565,0.323636,1.00694
397,999,3.30588,-0.00835935,0.323633,1.00693
399,997,3.30625,-0.00833688,0.32321,1.00708
401,995,3.30655,-0.0088905,0.323217,1.00671
403,993,3.30663,-0.0088168,0.323222,1.00678
405,991,3.30831,-0.00598337,0.322217,1.00662
407,989,3.30783,-0.00652183,0.322559,1.00609
409,987,3.30822,-0.00651217,0.322141,1.00623
411,985,3.30748,-0.0065919,0.322547,1.00625
413,983,3.30722,-0.00661322,0.322547,1.00598
415,981,3.30728,-0.00663847,0.322544,1.00596
417,979,3.30786,-0.00658394,0.322123,1.00613
419,977,3.30761,-0.00698551,0.32254,1.00571
421,975,3.3078,-0.00695065,0.322542,1.00574
423,973,3.30821,-0.00688261,0.32212,1.00593
425,971,3.308,-0.00713547,0.322129,1.00576
427,969,3.30693,-0.00720293,0.32291,1.00556
429,967,3.30687,-0.00754046,0.323396,1.00534
431,965,3.30742,-0.00781741,0.322539,1.00516
433,963,3.30777,-0.00751862,0.32212,1.00549
435,961,3.30804,-0.00807361,0.322119,1.00513
437,959,3.30783,-0.00769211,0.322072,1.00553
439,957,3.3074,-0.00827316,0.322488,1.00499
441,955,3.30753,-0.00802774,0.322064,1.00528
443,953,3.30918,-0.00520718,0.320992,1.00508
445,951,3.30878,-0.00599348,0.321414,1.00443
447,949,3.30745,-0.00863664,0.322115,1.00474
449,947,3.30783,-0.00885358,0.321711,1.00478
451,945,3.3097,-0.00596306,0.320635,1.00463
453,943,3.30936,-0.00660926,0.321054,1.00405
455,941,3.30877,-0.00661238,0.321415,1.00402
457,939,3.30944,-0.00647517,0.320628,1.00426
459,937,3.3094,-0.00682008,0.32063,1.00403
461,935,3.30941,-0.00661156,0.320628,1.00417
463,933,3.30924,-0.0068574,0.320628,1.00401
465,931,3.30833,-0.00722243,0.321415,1.00362
467,929,3.309,-0.00716838,0.320643,1.00383
469,927,3.3089,-0.00776134,0.321062,1.00328
471,925,3.30879,-0.00765657,0.321052,1.00336
473,923,3.30922,-0.00761906,0.320638,1.00353
475,921,3.30893,-0.00828577,0.321062,1.00295
477,919,3.30867,-0.00826695,0.321056,1.00295
479,917,3.30845,-0.00831945,0.321044,1.00288
481,915,3.30841,-0.00834721,0.321045,1.00309
483,913,3.30823,-0.00857289,0.321049,1.00271
485,911,3.30934,-0.00577613,0.32034,1.00249
487,909,3.30859,-0.0086015,0.320627,1.00283
489,907,3.30851,-0.00892586,0.320534,1.00261
491,905,3.3102,-0.00604066,0.319564,1.00248
493,903,3.30971,-0.00655881,0.319981,1.00201
495,901,3.30935,-0.00655563,0.319984,1.002
497,899,3.30904,-0.0065378,0.319983,1.00203
499,897,3.30917,-0.00715207,0.319971,1.00159
501,895,3.30925,-0.00722558,0.31998,1.00155
503,893,3.30918,-0.00726929,0.319889,1.00152
505,891,3.30966,-0.00716156,0.319556,1.00171
507,889,3.30963,-0.00714811,0.319553,1.00173
509,887,3.30856,-0.0077263,0.320328,1.00116
511,885,3.30863,-0.00779467,0.319972,1.00112
513,883,3.30847,-0.00780557,0.31997,1.00115
515,881,3.30863,-0.00829205,0.320055,1.00084
517,879,3.30876,-0.00829469,0.319987,1.00083
519,877,3.30892,-0.00822483,0.319989,1.0009
521,875,3.30849,-0.00877719,0.319988,1.00051
523,873,3.30842,-0.00879276,0.320457,1.00049
525,871,3.30774,-0.00888286,0.320392,1.00028
527,869,3.30958,-0.0060358,0.318903,1.00024
529,867,3.30965,-0.00654747,0.318907,0.999887
531,865,3.30976,-0.00658664,0.318906,0.999862
533,863,3.30979,-0.00651069,0.318977,0.999907
535,861,3.30957,-0.00713692,0.319443,0.99936
537,859,3.30956,-0.00695455,0.318903,0.999603
539,857,3.30916,-0.00713799,0.319318,0.999351
541,855,3.30876,-0.00769182,0.319865,0.998822
543,853,3.30891,-0.00770205,0.319313,0.998944
545,851,3.30881,-0.00770676,0.319316,0.998966
547,849,3.30899,-0.00823287,0.319308,0.998566
549,847,3.30882,-0.00830063,0.319318,0.998545
551,845,3.30875,-0.00825025,0.319308,0.998577
553,843,3.30832,-0.00882925,0.319731,0.998042
555,841,3.30845,-0.0087667,0.319309,0.998205
557,839,3.30853,-0.00881443,0.319316,0.998205
559,837,3.30956,-0.00594281,0.318604,0.998001
561,835,3.30998,-0.00660872,0.318363,0.99754
563,833,3.31006,-0.00628153,0.318236,0.997788
565,831,3.30976,-0.00690875,0.319111,0.99722
567,829,3.30898,-0.00689195,0.319015,0.997211
569,827,3.30963,-0.00716439,0.318649,0.997037
571,825,3.3091,-0.00710548,0.319017,0.997073
573,823,3.30954,-0.00750199,0.318647,0.996781
575,821,3.30894,-0.00749857,0.319013,0.996777
577,819,3.30894,-0.0080439,0.319008,0.996418
579,817,3.30941,-0.00775017,0.318646,0.996621
581,815,3.30865,-0.00802323,0.319007,0.996418
583,813,3.30997,-0.00582376,0.318357,0.995667
585,811,3.31022,-0.00569877,0.318421,0.995881
587,809,3.31033,-0.00600418,0.317944,0.995678
589,807,3.31004,-0.0063576,0.318352,0.995292
591,805,3.31062,-0.00635941,0.317574,0.995453
593,803,3.31025,-0.00693669,0.318468,0.994911
595,801,3.31009,-0.00689832,0.317936,0.995057
597,799,3.31,-0.00696217,0.317934,0.995031
599,797,3.30981,-0.00693206,0.31793,0.995048
601,795,3.31,-0.0074512,0.317928,0.99466
603,793,3.3101,-0.00747043,0.317938,0.994693
605,791,3.30931,-0.00810199,0.318356,0.994113
607,789,3.30976,-0.00835004,0.317991,0.993962
609,787,3.31119,-0.00516126,0.316867,0.994386
611,785,3.3097,-0.00887459,0.317984,0.993593
613,783,3.30979,-0.00855041,0.317577,0.99398
615,781,3.30988,-0.00883557,0.317581,0.993789
617,779,3.31106,-0.00650765,0.316871,0.993238
619,777,3.3108,-0.00662509,0.316922,0.993015
621,775,3.31073,-0.00687085,0.316917,0.992841
623,773,3.31068,-0.00719022,0.316917,0.99263
625,771,3.31072,-0.00717351,0.316925,0.992672
627,769,3.31081,-0.00774222,0.316933,0.992297
629,767,3.31123,-0.00757343,0.316508,0.992537
631,765,3.31059,-0.00824858,0.316923,0.991944
633,763,3.31041,-0.00828833,0.316922,0.992125
635,761,3.30956,-0.00890905,0.317347,0.991353
637,759,3.3093,-0.00890861,0.317339,0.991343
639,757,3.31115,-0.00657876,0.316269,0.990796
641,755,3.31168,-0.00650125,0.315849,0.990977
643,753,3.31183,-0.00652982,0.315845,0.990964
645,751,3.31175,-0.00708831,0.315844,0.990561
647,749,3.31101,-0.00706474,0.316203,0.990552
649,747,3.3105,-0.00746167,0.316612,0.990127
651,745,3.30955,-0.00775585,0.317148,0.989771
653,743,3.3099,-0.00752544,0.316607,0.990085
655,741,3.31011,-0.0082049,0.31659,0.989624
657,739,3.31053,-0.00836818,0.316256,0.989541
659,737,3.31197,-0.00598076,0.31555,0.989018
661,735,3.3123,-0.00601412,0.315189,0.989024
663,733,3.31158,-0.00666323,0.315611,0.988455
665,731,3.31085,-0.00692376,0.315961,0.98821
667,729,3.31051,-0.00699791,0.315958,0.988178
669,727,3.31068,-0.00730931,0.315956,0.987967
671,725,3.31117,-0.00699045,0.315536,0.988298
673,723,3.31101,-0.00756681,0.315961,0.987798
675,721,3.3117,-0.00805304,0.315179,0.987601
677,719,3.31159,-0.00798902,0.315248,0.987645
679,717,3.31067,-0.00880742,0.316014,0.986827
681,715,3.3101,-0.00895806,0.316022,0.986746
683,713,3.31191,-0.00637308,0.314947,0.986347
685,711,3.31186,-0.00664441,0.314953,0.986181
687,709,3.31173,-0.0066542,0.31495,0.986182
689,707,3.31143,-0.00718062,0.315311,0.985795
691,705,3.31154,-0.00715834,0.314892,0.985947
693,703,3.31166,-0.00767731,0.315007,0.985445
695,701,3.31044,-0.00815321,0.315724,0.984987
697,699,3.31108,-0.00811523,0.314947,0.985147
699,697,3.31142,-0.00813333,0.314529,0.985287
701,695,3.31121,-0.00877502,0.31449,0.984966
703,693,3.31118,-0.00925124,0.31494,0.984392
705,691,3.31281,-0.00633535,0.313873,0.98422
707,689,3.3121,-0.00632958,0.314234,0.984203
709,687,3.31101,-0.00708918,0.315064,0.9834
711,685,3.31109,-0.00711632,0.31465,0.983525
713,683,3.31128,-0.00763757,0.314641,0.983162
715,681,3.31121,-0.00776712,0.314654,0.983105
717,679,3.31137,-0.00822663,0.314642,0.98278
719,677,3.31171,-0.00836545,0.314291,0.982986
721,675,3.31112,-0.00900069,0.314718,0.982173
723,673,3.31088,-0.00896878,0.314715,0.9822
725,671,3.31197,-0.00671617,0.314064,0.98144
727,669,3.31214,-0.00667615,0.313774,0.981591
729,667,3.3123,-0.00672123,0.313642,0.981568
731,665,3.31227,-0.00722307,0.313639,0.981218
733,663,3.31198,-0.00736786,0.313642,0.981134
735,661,3.31155,-0.00797258,0.31406,0.980564
737,659,3.31141,-0.00789421,0.314053,0.980614
739,657,3.31123,-0.0084372,0.31406,0.980244
741,655,3.31115,-0.00901701,0.31407,0.979885
743,653,3.31302,-0.00608972,0.312998,0.97973
745,651,3.31295,-0.00659679,0.312999,0.979377
747,649,3.31277,-0.00666308,0.313001,0.979209
749,647,3.31216,-0.00720027,0.313422,0.978863
751,645,3.3117,-0.00781457,0.313831,0.97828
753,643,3.3113,-0.00776168,0.313834,0.978309
755,641,3.31136,-0.00785896,0.313415,0.97839
757,639,3.31153,-0.00843196,0.313475,0.977989
759,637,3.31176,-0.00844693,0.313414,0.977992
761,635,3.31166,-0.00893497,0.313337,0.977656
763,633,3.31277,-0.00662544,0.312761,0.976922
765,631,3.31235,-0.00662712,0.312763,0.976913
767,629,3.31172,-0.00726836,0.313179,0.976344
769,627,3.31142,-0.00731008,0.313303,0.976321
771,625,3.31161,-0.00787284,0.313182,0.975954
773,623,3.31215,-0.00767746,0.313244,0.9762
775,621,3.31143,-0.00837038,0.313183,0.975599
777,619,3.31144,-0.0083889,0.312759,0.975979
779,617,3.31008,-0.009122,0.313593,0.97495
781,615,3.31139,-0.00681099,0.312951,0.974222
783,613,3.31152,-0.00675677,0.312528,0.974364
785,611,3.31175,-0.00726628,0.312515,0.973991
787,609,3.31175,-0.00734937,0.31252,0.97395
789,607,3.31141,-0.00803755,0.313004,0.973358
791,605,3.31101,-0.0085495,0.312936,0.97298
793,603,3.31061,-0.00851016,0.312936,0.973018
795,601,3.30996,-0.00915981,0.313358,0.972436
797,599,3.31142,-0.00615559,0.312281,0.972285
799,597,3.31132,-0.00681936,0.312288,0.971853
801,595,3.3116,-0.00685475,0.31228,0.971809
803,593,3.31069,-0.00744581,0.313063,0.971269
805,591,3.31103,-0.00804557,0.312694,0.970861
807,589,3.31028,-0.00828253,0.313061,0.970674
809,587,3.30948,-0.00825473,0.313485,0.970554
811,585,3.31131,-0.00600279,0.312405,0.969889
813,583,3.31015,-0.00754931,0.312699,0.969893
815,581,3.31225,-0.00508237,0.311753,0.969402
817,579,3.3123,-0.00982652,0.311211,0.969071
819,577,3.31205,-0.0102801,0.311206,0.968769
821,575,3.31203,-0.010341,0.310852,0.968837
823,573,3.31121,-0.0109681,0.311207,0.96829
825,571,3.3112,-0.0113001,0.311204,0.968062
827,569,3.31151,-0.0103747,0.310779,0.967512
829,567,3.31154,-0.00914446,0.310482,0.967191
831,565,3.3125,-0.00677354,0.310074,0.966481
833,563,3.31254,-0.00683296,0.309715,0.966476
835,561,3.31227,-0.00735426,0.309716,0.966112
837,559,3.31161,-0.00931551,0.310571,0.96587
839,557,3.31169,-0.00849329,0.310145,0.965239
841,555,3.31228,-0.00701912,0.309432,0.965191
843,553,3.3119,-0.0076349,0.309725,0.964656
845,551,3.31318,-0.0112108,0.308658,0.964091
847,549,3.31248,-0.0112888,0.309071,0.963909
849,547,3.31259,-0.0118271,0.308646,0.963647
851,545,3.31284,-0.0108982,0.30823,0.963104
853,543,3.31188,-0.00972004,0.308589,0.962601
855,541,3.3133,-0.00833717,0.308414,0.962497
857,539,3.31211,-0.0106955,0.308237,0.96196
859,537,3.31331,-0.00774434,0.307585,0.961643
861,535,3.31326,-0.00829511,0.307588,0.961301
863,533,3.31385,-0.00725361,0.306758,0.960965
865,531,3.31317,-0.00640626,0.30676,0.960244
867,529,3.31269,-0.00801633,0.307176,0.960327
869,527,3.31229,-0.00709796,0.307168,0.95962
871,525,3.31234,-0.00770612,0.30765,0.959237
873,523,3.31436,-0.0105869,0.305693,0.959265
875,521,3.31385,-0.0111941,0.30611,0.958743
877,519,3.3138,-0.0102914,0.305811,0.95816
879,517,3.31289,-0.0104383,0.306101,0.95792
881,515,3.31196,-0.0125827,0.307055,0.957528
883,513,3.31243,-0.0115792,0.306519,0.957029
885,511,3.31249,-0.0106439,0.306096,0.956474
887,509,3.31403,-0.0067176,0.304623,0.955799
889,507,3.3137,-0.00818354,0.305162,0.955987
891,505,3.31325,-0.00738352,0.305041,0.955221
893,503,3.31281,-0.00897559,0.305461,0.955345
895,501,3.31292,-0.00799077,0.305042,0.95483
897,499,3.31308,-0.00698504,0.304621,0.954323
899,497,3.31237,-0.0135773,0.305041,0.953798
901,495,3.31338,-0.0112858,0.304382,0.953008
903,493,3.31365,-0.0111837,0.30398,0.953236
905,491,3.31304,-0.0118307,0.304384,0.952915
907,489,3.31311,-0.0123673,0.304398,0.952337
909,487,3.31299,-0.0114279,0.303979,0.951782
911,485,3.31225,-0.0121628,0.304867,0.951141
913,483,3.31369,-0.00913403,0.303328,0.951003
915,481,3.31389,-0.00820244,0.302916,0.95045
917,479,3.31387,-0.00730631,0.302498,0.949889
919,477,3.314,-0.00789313,0.302498,0.94948
921,475,3.31323,-0.00794582,0.3029,0.949307
923,473,3.31287,-0.00863258,0.302903,0.948842
925,471,3.31459,-0.00466686,0.301444,0.948182
927,469,3.31384,-0.0112193,0.301858,0.947706
929,467,3.31381,-0.0117633,0.301978,0.947347
931,465,3.31336,-0.0123694,0.302265,0.946791
933,463,3.31312,-0.00649018,0.302265,0.946715
935,461,3.31303,-0.0130343,0.302263,0.946353
937,459,3.31316,-0.0121022,0.301856,0.945804
939,457,3.31425,-0.00976114,0.301101,0.945064
941,455,3.31382,-0.00832686,0.30126,0.944833
943,453,3.31376,-0.00888332,0.300783,0.944451
945,451,3.31389,-0.00800911,0.300371,0.943861
947,449,3.31384,-0.00707916,0.299958,0.943299
949,447,3.31316,-0.0077335,0.300367,0.942728
951,445,3.31366,-0.011313,0.300079,0.942079
953,443,3.31372,-0.00597327,0.300135,0.9415
955,441,3.31384,-0.00590067,0.299723,0.941672
957,439,3.31369,-0.0124665,0.299727,0.941108
959,437,3.31321,-0.011642,0.299729,0.940574
961,435,3.31274,-0.0121811,0.300197,0.940193
963,433,3.31436,-0.00985675,0.298666,0.939567
965,431,3.31403,-0.0105246,0.299076,0.939018
967,429,3.31466,-0.00739666,0.297846,0.938858
969,427,3.31339,-0.00803714,0.298609,0.938304
971,425,3.3145,-0.004439,0.297557,0.937212
973,423,3.31377,-0.00785838,0.298436,0.93719
975,421,3.31451,-0.00680422,0.297616,0.936851
977,419,3.31439,-0.00591005,0.297616,0.936167
979,417,3.3139,-0.0124681,0.297613,0.935819
981,415,3.31306,-0.0131334,0.298033,0.935239
983,413,3.31261,-0.0137109,0.298029,0.93485
985,411,3.31448,-0.0113349,0.296972,0.934264
987,409,3.31472,-0.00890722,0.296159,0.933528
989,407,3.31401,-0.00954531,0.296567,0.932975
991,405,3.31343,-0.00855376,0.297028,0.932297
993,403,3.31251,-0.0108078,0.297377,0.931888
995,401,3.31441,-0.00839315,0.296322,0.931307
997,399,3.31451,-0.00748969,0.295916,0.93073
999,397,3.31449,-0.00645952,0.295515,0.930254
1001,395,3.31319,-0.0131268,0.296391,0.929722
1003,393,3.31266,-0.00777476,0.296326,0.929122
1005,391,3.31475,-0.00620602,0.295272,0.929284
1007,389,3.31429,-0.0119782,0.29527,0.928187
1009,387,3.31422,-0.00949922,0.29451,0.92746
1011,385,3.31315,-0.0117078,0.295266,0.92705
1013,383,3.31243,-0.0138826,0.29608,0.926677
1015,381,3.3148,-0.00830907,0.293812,0.925953
1017,379,3.3142,-0.00899451,0.294213,0.925372
1019,377,3.31366,-0.00804468,0.294209,0.924675
1021,375,3.3134,-0.00868773,0.294209,0.924252
1023,373,3.31278,-0.0092061,0.294617,0.923792
1025,371,3.31469,-0.00531304,0.293158,0.923014
1027,369,3.31446,-0.00592493,0.293635,0.922618
1029,367,3.31335,-0.0126737,0.29356,0.922036
1031,365,3.3128,-0.0132415,0.293561,0.92167
1033,363,3.31455,-0.010719,0.292509,0.921153
1035,361,3.31438,-0.00989585,0.292519,0.920428
1037,359,3.31426,-0.00892758,0.292107,0.919841
1039,357,3.3133,-0.00869101,0.292513,0.918563
1041,355,3.31287,-0.0108115,0.292915,0.918351
1043,353,3.31462,-0.00683789,0.291942,0.917558
1045,351,3.31467,-0.00578427,0.291064,0.917138
1047,349,3.31341,-0.0126577,0.291462,0.916518
1049,347,3.31285,-0.0071953,0.291873,0.915971
1051,345,3.31424,-0.0107756,0.290821,0.915456
1053,343,3.31371,-0.0114813,0.291225,0.914882
1055,341,3.31386,-0.0111237,0.29082,0.913917
1057,339,3.31321,-0.0102379,0.290823,0.9132
1059,337,3.31241,-0.0108754,0.291222,0.912667
1061,335,3.31403,-0.00844268,0.290179,0.912073
1063,333,3.31393,-0.00750102,0.289775,0.911518
1065,331,3.31302,-0.00655212,0.290232,0.91082
1067,329,3.31392,-0.00417378,0.289476,0.910011
1069,327,3.31426,-0.00532303,0.289248,0.909319
1071,325,3.31356,-0.0121399,0.289544,0.908805
1073,323,3.31357,-0.0126318,0.289137,0.908606
1075,321,3.31319,-0.0101718,0.288735,0.90771
1077,319,3.31421,-0.00837223,0.288091,0.906579
1079,317,3.3135,-0.00901241,0.288493,0.906048
1081,315,3.31312,-0.00811781,0.288496,0.905306
1083,313,3.31298,-0.00870008,0.288495,0.904938
1085,311,3.31397,-0.0063316,0.287854,0.904173
1087,309,3.3141,-0.00686227,0.287446,0.903948
1089,307,3.31354,-0.0120873,0.287436,0.90326
1091,305,3.31278,-0.0118363,0.287447,0.902139
1093,303,3.31414,-0.0108654,0.286808,0.90179
1095,301,3.31335,-0.00991947,0.286803,0.90106
1097,299,3.31349,-0.00965029,0.286408,0.900091
1099,297,3.31324,-0.00709311,0.285997,0.899222
1101,295,3.31413,-0.00621458,0.285763,0.898687
1103,293,3.31346,-0.00690683,0.286176,0.898126
1105,291,3.31304,-0.00756094,0.286167,0.897696
1107,289,3.31256,-0.00728567,0.286165,0.896558
1109,287,3.31389,-0.0108812,0.285122,0.89609
1111,285,3.31332,-0.0105704,0.285122,0.894965
1113,283,3.31243,-0.0112735,0.285521,0.894386
1115,281,3.31212,-0.0135549,0.285864,0.894116
1117,279,3.31379,-0.00788823,0.284481,0.893092
1119,277,3.3133,-0.008499,0.284474,0.892955
1121,275,3.3119,-0.00947455,0.285227,0.891923
1123,273,3.3116,-0.0104337,0.285282,0.891185
1125,271,3.3118,-0.0092508,0.284879,0.890761
1127,269,3.31293,-0.0119362,0.283777,0.889695
1129,267,3.31217,-0.0128612,0.28418,0.888979
1131,265,3.31252,-0.0107061,0.283948,0.887937
1133,263,3.3125,-0.0108123,0.283546,0.888004
1135,261,3.3119,-0.0121055,0.283944,0.887054
1137,259,3.31177,-0.0110671,0.284011,0.886539
1139,257,3.31162,-0.0104627,0.283196,0.885597
1141,255,3.313,-0.00955642,0.282568,0.885238
1143,253,3.31215,-0.00929204,0.282978,0.883981
1145,251,3.31162,-0.00982581,0.28297,0.883626
1147,249,3.31119,-0.00794307,0.28257,0.882328
1149,247,3.31183,-0.00701889,0.282337,0.881823
1151,245,3.31184,-0.0060366,0.281933,0.88125
1153,243,3.31081,-0.0136872,0.282331,0.880272
1155,241,3.31183,-0.00966026,0.281298,0.879352
1157,239,3.31084,-0.01197,0.282109,0.87897
1159,237,3.31097,-0.0115781,0.281798,0.878005
1161,235,3.3121,-0.00714126,0.280599,0.877451
1163,233,3.31181,-0.00521043,0.280192,0.876141
1165,231,3.31055,-0.0121751,0.280593,0.875395
1167,229,3.3102,-0.00722108,0.281064,0.874797
1169,227,3.31194,-0.00963446,0.279622,0.873674
1171,225,3.31164,-0.0103139,0.279621,0.873247
1173,223,3.31107,-0.00992032,0.279625,0.872184
1175,221,3.3104,-0.00901896,0.27962,0.87143
1177,219,3.312,-0.00551541,0.27859,0.870162
1179,217,3.31181,-0.0124497,0.278181,0.869919
1181,215,3.31099,-0.0137722,0.279054,0.868973
1183,213,3.3123,-0.0096524,0.277549,0.868081
1185,211,3.31136,-0.010306,0.277887,0.867677
1187,209,3.31141,-0.00998694,0.27754,0.866559
1189,207,3.3123,-0.00744728,0.276853,0.865988
1191,205,3.31119,-0.00723192,0.277254,0.864671
1193,203,3.31215,-0.00775526,0.276516,0.864497
1195,201,3.31157,-0.0137265,0.276516,0.863471
1197,199,3.31291,-0.0117753,0.275491,0.862549
1199,197,3.31141,-0.0125489,0.27586,0.861818
1201,195,3.31107,-0.0132028,0.276287,0.861396
1203,193,3.31281,-0.00810175,0.274859,0.859916
1205,191,3.31245,-0.00872167,0.274918,0.85954
1207,189,3.31182,-0.00843164,0.274859,0.858384
1209,187,3.31145,-0.00903044,0.274849,0.858003
1211,185,3.3127,-0.00489869,0.273826,0.857105
1213,183,3.31165,-0.0126366,0.274239,0.856204
1215,181,3.31072,-0.0138622,0.274625,0.855581
1217,179,3.31225,-0.00492629,0.274003,0.854452
1219,177,3.31196,-0.0103533,0.273608,0.85404
1221,175,3.31109,-0.0116241,0.274479,0.853163
1223,173,3.31018,-0.010907,0.274007,0.852275
1225,171,3.31122,-0.00876649,0.273385,0.851305
1227,169,3.31084,-0.00941257,0.273377,0.850909
1229,167,3.31042,-0.00910265,0.273375,0.849781
1231,165,3.31118,-0.00655852,0.27275,0.849061
1233,163,3.31088,-0.00781616,0.272746,0.848293
1235,161,3.31013,-0.00686903,0.272747,0.847549
1237,159,3.31051,-0.0114523,0.272526,0.846357
1239,157,3.30976,-0.0111631,0.272627,0.845211
1241,155,3.30959,-0.011731,0.272547,0.844859
1243,153,3.30941,-0.00977658,0.272124,0.843558
1245,151,3.31106,-0.00713681,0.271108,0.843032
1247,149,3.31022,-0.00520069,0.270913,0.841595
1249,147,3.30954,-0.0141923,0.2715,0.841518
1251,145,3.3112,-0.0104681,0.270072,0.84017
1253,143,3.31094,-0.0109796,0.270066,0.839866
1255,141,3.31025,-0.010648,0.270068,0.83875
1257,139,3.31145,-0.00875077,0.269451,0.837643
1259,137,3.31135,-0.00774837,0.269041,0.837045
1261,135,3.31023,-0.00750945,0.269443,0.835751
1263,133,3.31168,-0.00488912,0.268419,0.83518
1265,131,3.31154,-0.00614874,0.268439,0.834415
1267,129,3.31101,-0.0132872,0.268415,0.834089
1269,127,3.31003,-0.0114458,0.268213,0.832629
1271,125,3.31147,-0.00790415,0.267207,0.831349
1273,123,3.31147,-0.00709448,0.266786,0.830582
1275,121,3.31052,-0.00609888,0.266793,0.829875
1277,119,3.31131,-0.00392038,0.266166,0.828906
1279,117,3.31086,-0.0065094,0.266656,0.828546
1281,115,3.30988,-0.00750248,0.267173,0.827784
1283,113,3.31125,-0.0120666,0.266156,0.826903
1285,111,3.31005,-0.0128444,0.266557,0.82629
1287,109,3.30974,-0.00524963,0.266341,0.82559
1289,107,3.31004,-0.0116408,0.266338,0.824639
1291,105,3.30954,-0.00964196,0.266132,0.823248
1293,103,3.30933,-0.00896972,0.265725,0.822444
1295,101,3.31112,-0.00361598,0.264398,0.820987
1297,99,3.31017,-0.00990985,0.264313,0.81993
1299,97,3.30916,-0.00879366,0.264294,0.819215
1301,95,3.30839,-0.0131455,0.265292,0.818927
1303,93,3.31041,-0.0089356,0.263874,0.818084
1305,91,3.31034,-0.00852821,0.263476,0.81714
1307,89,3.30965,-0.00761977,0.263477,0.816346
1309,87,3.31133,-0.00555038,0.262464,0.815435
1311,85,3.31061,-0.0128514,0.262546,0.815075
1313,83,3.30908,-0.0126507,0.263253,0.813609
1315,81,3.31118,-0.00502127,0.262239,0.813356
1317,79,3.31052,-0.011338,0.262237,0.812267
1319,77,3.30959,-0.0120988,0.262641,0.811725
1321,75,3.31072,-0.00835305,0.261618,0.810438
1323,73,3.31071,-0.00725757,0.261225,0.809911
1325,71,3.31003,-0.00683854,0.261224,0.809091
1327,69,3.30836,-0.00931558,0.262019,0.808437
1329,67,3.30932,-0.0091775,0.262279,0.807486
1331,65,3.30955,-0.00803622,0.261008,0.807071
1333,63,3.30817,-0.0144777,0.261404,0.805798
1335,61,3.30947,-0.00512423,0.260791,0.805052
1337,59,3.30866,-0.0115351,0.260787,0.80393
1339,57,3.30796,-0.01048,0.260869,0.803222
1341,55,3.30692,-0.0118881,0.261181,0.802268
1343,53,3.30931,-0.00746996,0.259774,0.801523
1345,51,3.30919,-0.0138264,0.259368,0.800568
1347,49,3.31065,-0.00836949,0.257962,0.799081
1349,47,3.31023,-0.0106238,0.258825,0.798993
1351,45,3.30924,-0.0104245,0.258369,0.797811
1353,43,3.30817,-0.0100868,0.25877,0.796566
1355,41,3.30988,-0.0107295,0.258153,0.796582
1357,39,3.30964,-0.00869672,0.257748,0.795226
1359,37,3.30927,-0.00762298,0.25735,0.794643
1361,35,3.31029,-0.00565126,0.256848,0.793528
1363,33,3.30916,-0.0114613,0.256737,0.792787
1365,31,3.30888,-0.0126876,0.256731,0.792079
1367,29,3.30916,-0.0119712,0.256922,0.791332
1369,27,3.30927,-0.0108062,0.256123,0.790914
1371,25,3.30845,-0.0104283,0.256124,0.789777
1373,23,3.30954,-0.00672553,0.255115,0.788487
1375,21,3.30843,-0.00925656,0.255912,0.788125
1377,19,3.30777,-0.00717143,0.255511,0.786786
1379,17,3.30716,-0.00770252,0.255507,0.786465
1381,15,3.30827,-0.0125801,0.2549,0.785369
1383,13,3.30805,-0.00986269,0.254955,0.78437
1385,11,3.3077,-0.00945106,0.254488,0.783253
1387,9,3.30878,-0.00680443,0.25388,0.782514
1389,7,3.30875,-0.00609743,0.253487,0.781719
1391,5,3.30819,-0.00886356,0.253883,0.781365
1393,3,3.30735,-0.0151326,0.25388,0.780382