File: hust_correlation_analysis/matrices/HUST_7-7_cycle_feature_matrix.csv
cycle_number,rul,voltage,current,capacity,charge_capacity
1,1687,3.32037,-0.00534408,0.278605,1.03717
3,1685,3.30111,-0.00942129,0.310787,1.01989
5,1683,3.30273,-0.00684669,0.309591,1.01919
7,1681,3.30327,-0.00740098,0.309169,1.01904
9,1679,3.30357,-0.00805367,0.309246,1.01866
11,1677,3.30397,-0.00861077,0.308744,1.01853
13,1675,3.30332,-0.00917548,0.308738,1.01818
15,1673,3.30312,-0.00922318,0.308741,1.01818
17,1671,3.30326,-0.009769,0.308853,1.01783
19,1669,3.30524,-0.00743993,0.307548,1.01726
21,1667,3.30569,-0.00741607,0.307141,1.01746
23,1665,3.30477,-0.00802989,0.307541,1.01691
25,1663,3.30473,-0.00804973,0.307549,1.01691
27,1661,3.30507,-0.00853023,0.307572,1.01675
29,1659,3.30506,-0.00862113,0.307106,1.01669
31,1657,3.30505,-0.00866622,0.307112,1.01647
33,1655,3.30457,-0.00922604,0.307109,1.01633
35,1653,3.30413,-0.00934263,0.307524,1.01634
37,1651,3.305,-0.00986108,0.307108,1.01594
39,1649,3.30483,-0.00984216,0.307106,1.01596
41,1647,3.30413,-0.00990743,0.307099,1.0159
43,1645,3.30627,-0.00736883,0.305906,1.01541
45,1643,3.30622,-0.00750026,0.305908,1.01534
47,1641,3.3064,-0.00747811,0.305909,1.01536
49,1639,3.30587,-0.00811041,0.305909,1.01498
51,1637,3.30534,-0.00829546,0.306318,1.01467
53,1635,3.30617,-0.00812629,0.305907,1.01499
55,1633,3.30602,-0.00866723,0.305919,1.01467
57,1631,3.30562,-0.00871075,0.305907,1.01464
59,1629,3.3061,-0.00923505,0.305907,1.01431
61,1627,3.30606,-0.00931275,0.305903,1.01426
63,1625,3.30583,-0.00926873,0.305904,1.01429
65,1623,3.30552,-0.00988058,0.305906,1.01393
67,1621,3.30501,-0.00989293,0.306319,1.01373
69,1619,3.30553,-0.00995734,0.305906,1.01387
71,1617,3.3079,-0.0074892,0.30471,1.01335
73,1615,3.3069,-0.0075506,0.304725,1.01336
75,1613,3.30661,-0.00810365,0.305147,1.01287
77,1611,3.30734,-0.00812092,0.304725,1.01302
79,1609,3.30722,-0.00810559,0.304725,1.01302
81,1607,3.30651,-0.00812088,0.304726,1.01302
83,1605,3.30648,-0.00869233,0.305138,1.0125
85,1603,3.30657,-0.00879088,0.305144,1.01246
87,1601,3.30674,-0.00862807,0.304713,1.0127
89,1599,3.30582,-0.00879391,0.305137,1.01244
91,1597,3.30636,-0.00924406,0.30513,1.01214
93,1595,3.30632,-0.0093983,0.305139,1.0121
95,1593,3.30621,-0.00940905,0.30514,1.01209
97,1591,3.30595,-0.0099419,0.305147,1.0118
99,1589,3.30598,-0.00990025,0.305149,1.01182
101,1587,3.30842,-0.00685325,0.303542,1.01182
103,1585,3.30785,-0.00750483,0.303956,1.01124
105,1583,3.30742,-0.0075841,0.303952,1.01119
107,1581,3.30755,-0.00747843,0.303956,1.01126
109,1579,3.30774,-0.0075987,0.303952,1.01118
111,1577,3.30777,-0.00809279,0.303955,1.01089
113,1575,3.30677,-0.0082046,0.304365,1.01063
115,1573,3.30705,-0.00818545,0.304365,1.01064
117,1571,3.30776,-0.00814637,0.303951,1.01087
119,1569,3.30746,-0.00868356,0.303958,1.01054
121,1567,3.30713,-0.0086933,0.303957,1.01053
123,1565,3.30736,-0.00868989,0.303961,1.01053
125,1563,3.30757,-0.00874935,0.303951,1.0105
127,1561,3.3074,-0.00920017,0.303959,1.01024
129,1559,3.30726,-0.00929599,0.303954,1.01016
131,1557,3.30732,-0.00923527,0.303952,1.0087
133,1555,3.30718,-0.00933902,0.303959,1.01015
135,1553,3.30721,-0.00929981,0.30395,1.01016
137,1551,3.30648,-0.00995543,0.304358,1.00957
139,1549,3.30709,-0.00990115,0.303948,1.00978
141,1547,3.30689,-0.00993003,0.303954,1.00978
143,1545,3.30814,-0.00755968,0.303184,1.00904
145,1543,3.30797,-0.00754012,0.303182,1.00905
147,1541,3.30875,-0.0074134,0.302762,1.0093
149,1539,3.30834,-0.00752004,0.303179,1.00907
151,1537,3.3084,-0.0081696,0.303177,1.00867
153,1535,3.30807,-0.008159,0.303185,1.00869
155,1533,3.30802,-0.00811188,0.303181,1.0087
157,1531,3.30819,-0.00817003,0.303176,1.00866
159,1529,3.30786,-0.0081183,0.303177,1.0087
161,1527,3.30784,-0.00871714,0.303178,1.00834
163,1525,3.30798,-0.00865402,0.303175,1.00837
165,1523,3.30796,-0.00873688,0.303181,1.00833
167,1521,3.30777,-0.0087726,0.30319,1.00833
169,1519,3.30751,-0.00931108,0.303596,1.00782
171,1517,3.3078,-0.00923408,0.303182,1.00805
173,1515,3.30727,-0.00939835,0.303599,1.00804
175,1513,3.3077,-0.00929537,0.303178,1.008
177,1511,3.30744,-0.00928603,0.303177,1.00799
179,1509,3.30763,-0.00936993,0.303177,1.00794
181,1507,3.30785,-0.00989669,0.303177,1.00762
183,1505,3.30729,-0.00988429,0.303175,1.00762
185,1503,3.30675,-0.00999434,0.303584,1.00738
187,1501,3.30725,-0.00987118,0.303178,1.00764
189,1499,3.30939,-0.00690996,0.301984,1.00739
191,1497,3.30873,-0.00754617,0.3024,1.00686
193,1495,3.30833,-0.00754696,0.302398,1.00681
195,1493,3.3086,-0.0075588,0.302132,1.00681
197,1491,3.30887,-0.00762848,0.302397,1.00678
199,1489,3.30836,-0.00765226,0.302405,1.00678
201,1487,3.30825,-0.00754591,0.302396,1.00683
203,1485,3.30871,-0.00816891,0.302861,1.00646
205,1483,3.30881,-0.0081679,0.302391,1.00645
207,1481,3.30843,-0.00820227,0.302402,1.00646
209,1479,3.30803,-0.00817675,0.302386,1.00643
211,1477,3.30828,-0.00817547,0.302401,1.00646
213,1475,3.30869,-0.0088097,0.3024,1.00609
215,1473,3.30815,-0.00884276,0.302407,1.00606
217,1471,3.30809,-0.00878632,0.302398,1.00611
219,1469,3.30847,-0.00870846,0.302476,1.00612
221,1467,3.3086,-0.00880411,0.302397,1.00609
223,1465,3.30826,-0.00932574,0.302396,1.00576
225,1463,3.30799,-0.00934129,0.302662,1.00556
227,1461,3.30836,-0.00925625,0.302383,1.00578
229,1459,3.30835,-0.00934104,0.302387,1.00571
231,1457,3.30765,-0.0094593,0.302797,1.00547
233,1455,3.30731,-0.00946156,0.302796,1.00572
235,1453,3.30741,-0.00932313,0.303248,1.00549
237,1451,3.30806,-0.0094109,0.302792,1.00547
239,1449,3.30785,-0.00947651,0.302773,1.00538
241,1447,3.3077,-0.00942499,0.302772,1.00541
243,1445,3.30751,-0.00953044,0.302781,1.00403
245,1443,3.3075,-0.0100415,0.3029,1.00508
247,1441,3.30736,-0.0100439,0.30279,1.0051
249,1439,3.30703,-0.0100412,0.302785,1.0036
251,1437,3.30696,-0.00995759,0.302782,1.00511
253,1435,3.30907,-0.00708531,0.301599,1.00484
255,1433,3.30913,-0.0076278,0.301592,1.0045
257,1431,3.30871,-0.00770345,0.301594,1.00445
259,1429,3.30867,-0.00762098,0.302063,1.00453
261,1427,3.30928,-0.00763682,0.301193,1.00472
263,1425,3.30877,-0.00824634,0.301602,1.00418
265,1423,3.30829,-0.00827644,0.301615,1.00418
267,1421,3.30855,-0.00817391,0.301606,1.00424
269,1419,3.30922,-0.00821614,0.301192,1.00439
271,1417,3.30898,-0.00879409,0.301608,1.00388
273,1415,3.30838,-0.00883069,0.301605,1.00383
275,1413,3.30855,-0.00877626,0.301612,1.00387
277,1411,3.30878,-0.00888774,0.301608,1.00381
279,1409,3.30864,-0.00887877,0.301606,1.00381
281,1407,3.30785,-0.00884993,0.301315,1.00383
283,1405,3.30783,-0.0095509,0.302032,1.00325
285,1403,3.30831,-0.00944137,0.301618,1.00351
287,1401,3.30827,-0.00941898,0.301609,1.00352
289,1399,3.30832,-0.00936806,0.301201,1.00398
291,1397,3.30795,-0.00940642,0.301612,1.00353
293,1395,3.30887,-0.00937459,0.3012,1.00372
295,1393,3.30824,-0.0100235,0.301608,1.00314
297,1391,3.30779,-0.010065,0.301613,1.00313
299,1389,3.30784,-0.00995555,0.301608,1.00317
301,1387,3.30792,-0.0101101,0.30161,1.00308
303,1385,3.30782,-0.0100455,0.301609,1.00313
305,1383,3.30931,-0.00709418,0.30042,1.00288
307,1381,3.30938,-0.00768687,0.300426,1.00252
309,1379,3.30976,-0.0075957,0.300424,1.0026
311,1377,3.30962,-0.00765707,0.300432,1.00257
313,1375,3.30971,-0.00751635,0.300013,1.00282
315,1373,3.30919,-0.00763277,0.300417,1.00255
317,1371,3.30951,-0.00816012,0.300426,1.00225
319,1369,3.3097,-0.00820132,0.300423,1.00222
321,1367,3.30935,-0.00821057,0.300424,1.00222
323,1365,3.30906,-0.00827145,0.300428,1.00219
325,1363,3.3093,-0.00822021,0.300421,1.0022
327,1361,3.30963,-0.00829834,0.300424,1.00242
329,1359,3.30931,-0.00879431,0.300415,1.00034
331,1357,3.309,-0.00875957,0.300429,1.00205
333,1355,3.30919,-0.00874711,0.300438,1.00193
335,1353,3.30914,-0.00950763,0.300849,1.00131
337,1351,3.30877,-0.00947546,0.300844,1.00131
339,1349,3.30836,-0.00950763,0.300843,1.00129
341,1347,3.30879,-0.00944203,0.300842,1.00134
343,1345,3.30929,-0.00943693,0.300428,1.0015
345,1343,3.30898,-0.0094211,0.300427,1.00151
347,1341,3.30856,-0.00942245,0.300422,1.00149
349,1339,3.30819,-0.00941162,0.300837,1.00132
351,1337,3.309,-0.0100543,0.300418,1.0011
353,1335,3.30841,-0.0101476,0.300843,1.0009
355,1333,3.30844,-0.010045,0.300436,1.00116
357,1331,3.31028,-0.00698854,0.299659,1.0008
359,1329,3.31045,-0.00770427,0.299666,1.00039
361,1327,3.31071,-0.00749544,0.299253,1.00067
363,1325,3.31016,-0.00760755,0.299248,1.0006
365,1323,3.3098,-0.00761752,0.299666,1.00042
367,1321,3.3101,-0.00764083,0.29966,1.00041
369,1319,3.31018,-0.00800839,0.299924,1.0002
371,1317,3.30966,-0.00820842,0.299658,1.00006
373,1315,3.30966,-0.00819143,0.299656,1.00006
375,1313,3.31039,-0.00814648,0.299248,1.00027
377,1311,3.3103,-0.00884221,0.299656,0.999675
379,1309,3.30977,-0.00878703,0.299661,0.99973
381,1307,3.30946,-0.00876166,0.299666,0.999732
383,1305,3.30978,-0.00882406,0.299669,0.999711
385,1303,3.31009,-0.00938307,0.299669,0.99937
387,1301,3.30975,-0.00937307,0.299661,0.999371
389,1299,3.30946,-0.0093689,0.299658,0.999357
391,1297,3.30966,-0.00929214,0.299654,0.999313
393,1295,3.30965,-0.00942328,0.29966,0.999323
395,1293,3.30925,-0.00935557,0.299654,0.999354
397,1291,3.30907,-0.00941181,0.29965,0.999305
399,1289,3.30899,-0.0100392,0.300064,0.998754
401,1287,3.30939,-0.010042,0.299658,0.998962
403,1285,3.30919,-0.00997236,0.299662,0.99901
405,1283,3.31054,-0.0076529,0.298888,0.998199
407,1281,3.31066,-0.00750583,0.298886,0.998274
409,1279,3.31066,-0.00762616,0.29889,0.997998
411,1277,3.31067,-0.00759916,0.298897,0.998258
413,1275,3.31041,-0.00823748,0.298893,0.997845
415,1273,3.31056,-0.00809439,0.298882,0.997913
417,1271,3.31055,-0.00826503,0.298891,0.997828
419,1269,3.31054,-0.00821701,0.298889,0.997869
421,1267,3.30998,-0.00829338,0.298885,0.997814
423,1265,3.31011,-0.00822069,0.298883,0.997836
425,1263,3.31034,-0.00886192,0.298893,0.99747
427,1261,3.31042,-0.00877495,0.298886,0.997516
429,1259,3.30981,-0.00880817,0.298887,0.997495
431,1257,3.30959,-0.00940979,0.299311,0.996994
433,1255,3.30982,-0.00944693,0.299303,0.998246
435,1253,3.31017,-0.00940904,0.298883,0.997108
437,1251,3.30967,-0.00943587,0.298878,0.997087
439,1249,3.30901,-0.00956096,0.2993,0.996868
441,1247,3.30973,-0.00941451,0.298872,0.997082
443,1245,3.30957,-0.0101898,0.299281,0.996449
445,1243,3.30922,-0.0101047,0.299284,0.996504
447,1241,3.30892,-0.0101049,0.299279,0.996489
449,1239,3.30923,-0.0100864,0.299293,0.996537
451,1237,3.31094,-0.00704815,0.298096,0.996324
453,1235,3.31077,-0.00768068,0.298099,0.995923
455,1233,3.31062,-0.00771707,0.298092,0.995885
457,1231,3.31081,-0.00761712,0.298092,0.995957
459,1229,3.31085,-0.00773689,0.298094,0.995883
461,1227,3.31057,-0.0076778,0.298091,0.995919
463,1225,3.31046,-0.00828009,0.298345,0.994029
465,1223,3.30996,-0.00827683,0.298507,0.995377
467,1221,3.31074,-0.00835948,0.298086,0.995495
469,1219,3.31071,-0.00823478,0.298087,0.995557
471,1217,3.31029,-0.00839094,0.298095,0.995498
473,1215,3.30987,-0.00886089,0.298502,0.995027
475,1213,3.31051,-0.00893848,0.298097,0.995169
477,1211,3.31052,-0.00889186,0.298107,0.995224
479,1209,3.31008,-0.00941219,0.298097,0.9949
481,1207,3.30963,-0.0095387,0.298776,0.994652
483,1205,3.31044,-0.00946144,0.298086,0.994828
485,1203,3.31023,-0.00944761,0.298093,0.99485
487,1201,3.30966,-0.00946181,0.298086,0.994819
489,1199,3.3094,-0.0100976,0.298508,0.994288
491,1197,3.31005,-0.0100591,0.298203,0.994477
493,1195,3.30998,-0.0101041,0.298095,0.994455
495,1193,3.30957,-0.0100983,0.298098,0.994478
497,1191,3.31118,-0.00768465,0.297335,0.993743
499,1189,3.31132,-0.00762082,0.297324,0.993783
501,1187,3.3113,-0.00762106,0.297331,0.993793
503,1185,3.31143,-0.00754152,0.296911,0.993987
505,1183,3.311,-0.00831405,0.297328,0.993354
507,1181,3.31102,-0.0081881,0.297319,0.993408
509,1179,3.31116,-0.00833722,0.297321,0.993327
511,1177,3.3108,-0.00825737,0.297314,0.993354
513,1175,3.31019,-0.0083635,0.297321,0.993299
515,1173,3.31047,-0.00825562,0.297318,0.993348
517,1171,3.31105,-0.00894506,0.297311,0.992922
519,1169,3.31083,-0.0088886,0.297261,0.992966
521,1167,3.31021,-0.00887575,0.297314,0.992982
523,1165,3.31015,-0.00939985,0.297739,0.992514
525,1163,3.31076,-0.00951489,0.297327,0.992633
527,1161,3.3102,-0.00959533,0.297737,0.992417
529,1159,3.31018,-0.00951358,0.297322,0.992632
531,1157,3.31001,-0.00950254,0.297727,0.992451
533,1155,3.3106,-0.0100937,0.297312,0.992255
535,1153,3.30981,-0.0100699,0.297725,0.992102
537,1151,3.30929,-0.0101832,0.297735,0.992043
539,1149,3.30926,-0.0101037,0.297722,0.992066
541,1147,3.31189,-0.00704935,0.296121,0.99203
543,1145,3.31162,-0.00773969,0.297,0.991459
545,1143,3.31134,-0.00766871,0.296552,0.991545
547,1141,3.31092,-0.00833606,0.296963,0.990951
549,1139,3.31146,-0.00828076,0.296561,0.991433
551,1137,3.31157,-0.00829745,0.29656,0.991155
553,1135,3.31109,-0.00824215,0.296557,0.991185
555,1133,3.31063,-0.00891896,0.296964,0.990601
557,1131,3.31087,-0.00884772,0.296963,0.990652
559,1129,3.3112,-0.0088845,0.296662,0.990773
561,1127,3.3108,-0.00886636,0.296547,0.990798
563,1125,3.31024,-0.0095946,0.296958,0.990185
565,1123,3.3105,-0.00947112,0.296952,0.990245
567,1121,3.31058,-0.00962298,0.296967,0.990181
569,1119,3.31027,-0.00955225,0.296954,0.990202
571,1117,3.30996,-0.010111,0.29696,0.989859
573,1115,3.31031,-0.010035,0.296957,0.989899
575,1113,3.31024,-0.0101467,0.296956,0.98984
577,1111,3.31006,-0.0101481,0.29703,0.988398
579,1109,3.31159,-0.00771619,0.295764,0.989253
581,1107,3.31133,-0.00774685,0.296182,0.989055
583,1105,3.31172,-0.0077132,0.295772,0.987863
585,1103,3.31165,-0.00770514,0.295773,0.989268
587,1101,3.31123,-0.00771675,0.295764,0.989237
589,1099,3.31098,-0.00830088,0.296184,0.988739
591,1097,3.31161,-0.00834911,0.295755,0.988846
593,1095,3.31176,-0.00826017,0.29577,0.988929
595,1093,3.31118,-0.00834716,0.29576,0.98887
597,1091,3.31087,-0.00897039,0.296181,0.988328
599,1089,3.31142,-0.00889144,0.295763,0.988521
601,1087,3.31131,-0.00892729,0.295764,0.988763
603,1085,3.3109,-0.00891803,0.295761,0.988522
605,1083,3.31066,-0.00954729,0.29617,0.987947
607,1081,3.31096,-0.00958292,0.296175,0.987697
609,1079,3.31123,-0.00953676,0.295761,0.988122
611,1077,3.31029,-0.00952165,0.296171,0.98798
613,1075,3.31051,-0.00957285,0.295759,0.988101
615,1073,3.31037,-0.0101453,0.296167,0.987573
617,1071,3.31057,-0.010231,0.296169,0.987549
619,1069,3.31024,-0.0101911,0.29617,0.987569
621,1067,3.31216,-0.00770667,0.294985,0.987001
623,1065,3.3119,-0.00767617,0.294979,0.987008
625,1063,3.312,-0.00770914,0.294978,0.986799
627,1061,3.31183,-0.00767982,0.294977,0.987007
629,1059,3.3115,-0.00777412,0.294978,0.986966
631,1057,3.31128,-0.00831255,0.295398,0.98648
633,1055,3.31184,-0.00836887,0.294982,0.986605
635,1053,3.31195,-0.00835826,0.295434,0.986595
637,1051,3.31112,-0.00835487,0.294975,0.986597
639,1049,3.31113,-0.00897792,0.295392,0.986057
641,1047,3.31173,-0.00898921,0.294977,0.986225
643,1045,3.31114,-0.00905044,0.295396,0.986043
645,1043,3.31104,-0.0095957,0.295403,0.98573
647,1041,3.31101,-0.00956638,0.295399,0.985723
649,1039,3.31154,-0.00960021,0.294986,0.985882
651,1037,3.31096,-0.00959607,0.295863,0.985718
653,1035,3.31047,-0.0102016,0.295399,0.985353
655,1033,3.3104,-0.0101976,0.295396,0.985349
657,1031,3.31109,-0.010137,0.294983,0.985555
659,1029,3.31274,-0.00770945,0.294663,0.984793
661,1027,3.31224,-0.00775091,0.294201,0.984747
663,1025,3.31161,-0.00777319,0.29461,0.984559
665,1023,3.31235,-0.00777091,0.294209,0.984751
667,1021,3.31204,-0.00841826,0.294739,0.984209
669,1019,3.31226,-0.00829513,0.29421,0.984452
671,1017,3.31144,-0.0083014,0.29462,0.984273
673,1015,3.31211,-0.00827257,0.294269,0.984438
675,1013,3.31182,-0.00904881,0.294622,0.983832
677,1011,3.3118,-0.0089478,0.29421,0.984063
679,1009,3.31142,-0.00895178,0.29445,0.984054
681,1007,3.31148,-0.00954273,0.294622,0.98352
683,1005,3.31144,-0.00964447,0.294621,0.983462
685,1003,3.31118,-0.00959125,0.294621,0.983502
687,1001,3.31072,-0.00965466,0.294616,0.983443
689,999,3.31091,-0.00952756,0.294608,0.983491
691,997,3.31108,-0.0103192,0.294715,0.98299
693,995,3.31066,-0.0102499,0.294606,0.983038
695,993,3.31059,-0.0102993,0.294601,0.98301
697,991,3.31067,-0.0102734,0.29461,0.983034
699,989,3.31263,-0.00776592,0.293421,0.98249
701,987,3.31252,-0.00770015,0.293425,0.982551
703,985,3.31214,-0.00777347,0.293418,0.982477
705,983,3.31186,-0.00834076,0.293837,0.981967
707,981,3.31183,-0.00847613,0.293837,0.981905
709,979,3.3123,-0.00837347,0.293415,0.982118
711,977,3.31186,-0.00845308,0.293524,0.98206
713,975,3.31168,-0.00887454,0.29381,0.981376
715,973,3.31195,-0.00910811,0.29382,0.981484
717,971,3.31187,-0.00960633,0.293838,0.981221
719,969,3.31124,-0.00959087,0.293832,0.981211
721,967,3.3109,-0.00966934,0.294245,0.981005
723,965,3.31169,-0.00974338,0.29384,0.981152
725,963,3.31106,-0.0103053,0.294255,0.980647
727,961,3.31103,-0.0102867,0.293836,0.980826
729,959,3.31253,-0.00769957,0.293135,0.980131
731,957,3.31315,-0.00775612,0.292644,0.980271
733,955,3.31264,-0.00782497,0.293062,0.980054
735,953,3.31261,-0.00772303,0.292645,0.980293
737,951,3.31236,-0.00845912,0.292971,0.979692
739,949,3.31239,-0.00814029,0.293051,0.980117
741,947,3.3124,-0.00848153,0.293057,0.979663
743,945,3.31204,-0.00904944,0.293055,0.979297
745,943,3.31187,-0.00906793,0.29305,0.979298
747,941,3.31205,-0.00903919,0.293062,0.979335
749,939,3.31222,-0.00966112,0.293124,0.978925
751,937,3.31161,-0.00971211,0.293062,0.978923
753,935,3.31091,-0.00961364,0.293459,0.978782
755,933,3.31181,-0.00971949,0.293053,0.978901
757,931,3.31136,-0.0103793,0.293472,0.978343
759,929,3.31124,-0.0102908,0.293511,0.978545
761,927,3.31249,-0.0072982,0.292278,0.978116
763,925,3.31289,-0.00780078,0.292277,0.977829
765,923,3.31258,-0.00854321,0.292704,0.977237
767,921,3.31216,-0.00852475,0.292706,0.977262
769,919,3.31202,-0.00847194,0.292709,0.977307
771,917,3.31246,-0.0090408,0.292707,0.976759
773,915,3.31222,-0.0090852,0.292704,0.976919
775,913,3.31176,-0.00909464,0.292702,0.976906
777,911,3.31165,-0.0091052,0.292703,0.976912
779,909,3.31199,-0.00973377,0.2927,0.976518
781,907,3.31176,-0.00973154,0.292693,0.976501
783,905,3.31166,-0.0103333,0.292695,0.976407
785,903,3.31132,-0.0103672,0.2927,0.976119
787,901,3.31347,-0.007126,0.291509,0.976002
789,899,3.31316,-0.0079878,0.292184,0.97534
791,897,3.31276,-0.0079335,0.291935,0.975382
793,895,3.3126,-0.00849439,0.291934,0.97503
795,893,3.31279,-0.00840361,0.291927,0.975081
797,891,3.31299,-0.00847522,0.291934,0.975054
799,889,3.31255,-0.00908709,0.291935,0.974686
801,887,3.3122,-0.00905087,0.291939,0.974712
803,885,3.31251,-0.00907242,0.29193,0.974697
805,883,3.31191,-0.0098139,0.292346,0.974071
807,881,3.31147,-0.00975431,0.292346,0.974115
809,879,3.31109,-0.0104822,0.292844,0.973528
811,877,3.31176,-0.0103104,0.29235,0.97356
813,875,3.3135,-0.00721189,0.291158,0.973549
815,873,3.31283,-0.00792535,0.291577,0.972976
817,871,3.3126,-0.00784331,0.291573,0.973007
819,869,3.3129,-0.00852998,0.291576,0.972599
821,867,3.31274,-0.00850153,0.291572,0.9726
823,865,3.31303,-0.00843232,0.291156,0.972824
825,863,3.31195,-0.00919626,0.291993,0.972027
827,861,3.31247,-0.00905973,0.291567,0.972252
829,859,3.31225,-0.00982091,0.292064,0.971647
831,857,3.31213,-0.00973942,0.291577,0.971881
833,855,3.31134,-0.00980939,0.291991,0.971646
835,853,3.3116,-0.0104061,0.291984,0.971283
837,851,3.31152,-0.0104325,0.291978,0.97125
839,849,3.3128,-0.0072969,0.290787,0.971051
841,847,3.31233,-0.00786118,0.291199,0.970524
843,845,3.3131,-0.00796792,0.290787,0.97064
845,843,3.31271,-0.00862368,0.291197,0.970069
847,841,3.31219,-0.00855818,0.291208,0.970127
849,839,3.3118,-0.00921281,0.291623,0.969556
851,837,3.31223,-0.00926153,0.291197,0.96969
853,835,3.31218,-0.00926099,0.291201,0.969959
855,833,3.31159,-0.00976402,0.291193,0.969379
857,831,3.3118,-0.00975314,0.291191,0.969365
859,829,3.31187,-0.00990474,0.291193,0.969291
861,827,3.31136,-0.0104193,0.29172,0.96879
863,825,3.31072,-0.0105657,0.291609,0.968716
865,823,3.31309,-0.00798508,0.290417,0.968163
867,821,3.31346,-0.00790379,0.29,0.968394
869,819,3.31296,-0.00853245,0.290412,0.967832
871,817,3.31215,-0.00864297,0.290847,0.967634
873,815,3.31231,-0.00919428,0.29084,0.967288
875,813,3.31213,-0.00926989,0.290837,0.967248
877,811,3.31195,-0.00927576,0.290837,0.967244
879,809,3.31179,-0.0098777,0.290839,0.966894
881,807,3.31189,-0.00984487,0.290839,0.966914
883,805,3.31197,-0.0105205,0.290837,0.966486
885,803,3.3115,-0.01047,0.290833,0.966515
887,801,3.31223,-0.00797676,0.29049,0.965603
889,799,3.31297,-0.00798909,0.290066,0.965775
891,797,3.31331,-0.00860176,0.290074,0.965412
893,795,3.31253,-0.00858291,0.290071,0.965418
895,793,3.31202,-0.00915042,0.290493,0.964909
897,791,3.3123,-0.00924336,0.290486,0.964861
899,789,3.31233,-0.00990014,0.290482,0.964461
901,787,3.31155,-0.00993416,0.290489,0.96423
903,785,3.31125,-0.0105332,0.290917,0.963912
905,783,3.31177,-0.0105566,0.290484,0.964056
907,781,3.313,-0.0080499,0.289697,0.963245
909,779,3.3124,-0.00808127,0.289701,0.963236
911,777,3.31279,-0.00802487,0.289697,0.963265
913,775,3.31292,-0.0087234,0.2897,0.962855
915,773,3.31262,-0.00863699,0.289782,0.962942
917,771,3.31197,-0.00931751,0.290138,0.962379
919,769,3.31256,-0.00919293,0.289707,0.962607
921,767,3.312,-0.00997508,0.290133,0.961984
923,765,3.3114,-0.00995049,0.290135,0.962006
925,763,3.31101,-0.0106166,0.290557,0.961426
927,761,3.31141,-0.0105945,0.290131,0.961596
929,759,3.31305,-0.00809844,0.289356,0.960817
931,757,3.31256,-0.00812462,0.289351,0.960805
933,755,3.3122,-0.00871657,0.28978,0.960286
935,753,3.31255,-0.00873975,0.289348,0.960417
937,751,3.31245,-0.00866007,0.289345,0.960455
939,749,3.31137,-0.00939237,0.28977,0.959852
941,747,3.31163,-0.0093748,0.289776,0.959887
943,745,3.31178,-0.0100308,0.289768,0.959497
945,743,3.3111,-0.0100562,0.289769,0.959479
947,741,3.3105,-0.0106804,0.290199,0.958947
949,739,3.31343,-0.00809157,0.288579,0.95855
951,737,3.31278,-0.00806125,0.288904,0.958402
953,735,3.3122,-0.00867575,0.288995,0.958021
955,733,3.31174,-0.00873949,0.289421,0.957816
957,731,3.3125,-0.00941104,0.288998,0.957575
959,729,3.31168,-0.00938757,0.28942,0.95743
961,727,3.31145,-0.0100733,0.289424,0.957025
963,725,3.31164,-0.0100144,0.289421,0.95706
965,723,3.31105,-0.0107304,0.289858,0.956491
967,721,3.31315,-0.00734533,0.288222,0.956524
969,719,3.31211,-0.00813406,0.289074,0.955724
971,717,3.31267,-0.00813637,0.28865,0.955905
973,715,3.31271,-0.00866454,0.288644,0.95556
975,713,3.31205,-0.0087464,0.288646,0.955513
977,711,3.31172,-0.00949443,0.289069,0.954925
979,709,3.31217,-0.00943332,0.288639,0.955103
981,707,3.31147,-0.0100856,0.289065,0.954571
983,705,3.31097,-0.0100948,0.289062,0.954537
985,703,3.31128,-0.0107205,0.289067,0.954164
987,701,3.31271,-0.00818227,0.288291,0.953406
989,699,3.31204,-0.00819349,0.288301,0.953429
991,697,3.31249,-0.00870938,0.288769,0.953103
993,695,3.31274,-0.00882524,0.288299,0.953047
995,693,3.31191,-0.00946741,0.288722,0.952499
997,691,3.31145,-0.00956507,0.288731,0.952454
999,689,3.31162,-0.0100584,0.288726,0.952146
1001,687,3.31149,-0.0101283,0.288724,0.952094
1003,685,3.31033,-0.0108446,0.28914,0.95149
1005,683,3.31219,-0.00754588,0.287936,0.951301
1007,681,3.31238,-0.00827917,0.287942,0.950883
1009,679,3.31197,-0.00826247,0.287934,0.950869
1011,677,3.31167,-0.00886044,0.28793,0.950504
1013,675,3.31209,-0.00878427,0.28793,0.950567
1015,673,3.31206,-0.0095149,0.287934,0.950137
1017,671,3.3112,-0.0102358,0.288361,0.949559
1019,669,3.31096,-0.0101387,0.288365,0.949606
1021,667,3.31112,-0.0108835,0.288155,0.949163
1023,665,3.31277,-0.00749831,0.287152,0.949008
1025,663,3.31173,-0.0083114,0.287582,0.948369
1027,661,3.31188,-0.00826931,0.287579,0.9484
1029,659,3.31197,-0.00891892,0.287583,0.94802
1031,657,3.31135,-0.00892035,0.28758,0.948012
1033,655,3.31087,-0.0095285,0.288006,0.947476
1035,653,3.31114,-0.0102961,0.288076,0.947037
1037,651,3.3107,-0.0102491,0.287995,0.94706
1039,649,3.30993,-0.01103,0.288917,0.946465
1041,647,3.31251,-0.00759622,0.286807,0.946514
1043,645,3.31222,-0.00830105,0.287249,0.945945
1045,643,3.31167,-0.00893679,0.287247,0.94558
1047,641,3.31112,-0.00899555,0.287579,0.945365
1049,639,3.31164,-0.00957609,0.287234,0.94518
1051,637,3.31132,-0.00957158,0.287237,0.945189
1053,635,3.3099,-0.0103698,0.288099,0.944389
1055,633,3.31084,-0.0109121,0.287672,0.944242
1057,631,3.31267,-0.00759055,0.286461,0.944027
1059,629,3.3115,-0.00838045,0.286956,0.943398
1061,627,3.3114,-0.00898197,0.287328,0.942886
1063,625,3.31187,-0.00894229,0.286884,0.943057
1065,623,3.3109,-0.00966167,0.287325,0.942503
1067,621,3.31023,-0.00964797,0.287762,0.942351
1069,619,3.31078,-0.0103743,0.287396,0.942094
1071,617,3.31014,-0.0109672,0.287765,0.941574
1073,615,3.3117,-0.00763621,0.28655,0.941381
1075,613,3.312,-0.00835555,0.286549,0.940952
1077,611,3.31194,-0.0089655,0.286549,0.940592
1079,609,3.31108,-0.00903926,0.286551,0.940548
1081,607,3.31107,-0.00964636,0.286981,0.940028
1083,605,3.31137,-0.00967522,0.286544,0.940165
1085,603,3.31035,-0.0104175,0.286979,0.939575
1087,601,3.30961,-0.0110538,0.287413,0.939031
1089,599,3.31229,-0.0077455,0.285766,0.938978
1091,597,3.31163,-0.00841503,0.286204,0.938428
1093,595,3.31061,-0.00910875,0.286641,0.937853
1095,593,3.31151,-0.00898805,0.286203,0.938086
1097,591,3.31091,-0.00972711,0.28664,0.937499
1099,589,3.30969,-0.0106129,0.287077,0.936819
1101,587,3.30984,-0.0104217,0.287072,0.936918
1103,585,3.30965,-0.0111762,0.287068,0.936482
1105,583,3.31135,-0.00843086,0.285855,0.935921
1107,581,3.31074,-0.00839749,0.286294,0.935769
1109,579,3.31094,-0.0092092,0.286355,0.935302
1111,577,3.31067,-0.00974909,0.286292,0.934976
1113,575,3.31027,-0.0097461,0.286292,0.934978
1115,573,3.31038,-0.0104828,0.286295,0.934553
1117,571,3.3098,-0.0112048,0.286731,0.933972
1119,569,3.31082,-0.00854244,0.286184,0.933207
1121,567,3.3113,-0.01347,0.285082,0.933343
1123,565,3.31108,-0.00745681,0.285512,0.932721
1125,563,3.30965,-0.00993097,0.286404,0.932251
1127,561,3.3102,-0.014789,0.285511,0.932397
1129,559,3.30991,-0.0139301,0.285516,0.931653
1131,557,3.30904,-0.0162659,0.285952,0.931411
1133,555,3.31063,-0.012929,0.285178,0.93101
1135,553,3.31135,-0.0119108,0.284414,0.930661
1137,551,3.3109,-0.0124516,0.284295,0.93034
1139,549,3.31013,-0.0125951,0.284737,0.930107
1141,547,3.31064,-0.0115472,0.284296,0.929611
1143,545,3.30982,-0.0121748,0.284735,0.929083
1145,543,3.30948,-0.0129453,0.284739,0.928646
1147,541,3.3118,-0.00775645,0.283085,0.928395
1149,539,3.31177,-0.00841054,0.283089,0.928021
1151,537,3.3106,-0.00921977,0.283535,0.927412
1153,535,3.31095,-0.00807307,0.28309,0.926955
1155,533,3.31056,-0.00885305,0.283521,0.92634
1157,531,3.31018,-0.00877996,0.283082,0.92655
1159,529,3.30907,-0.0163333,0.283966,0.925815
1161,527,3.31119,-0.0136415,0.282745,0.925207
1163,525,3.31107,-0.0135542,0.282314,0.925419
1165,523,3.31035,-0.014199,0.282859,0.924875
1167,521,3.31101,-0.0115313,0.281874,0.924201
1169,519,3.31021,-0.0122264,0.282312,0.923653
1171,517,3.30945,-0.013993,0.282962,0.923742
1173,515,3.31203,-0.00781724,0.280656,0.922926
1175,513,3.31158,-0.00844498,0.280659,0.922556
1177,511,3.31071,-0.00919036,0.281093,0.921982
1179,509,3.31113,-0.00743304,0.2802,0.921868
1181,507,3.31126,-0.00812252,0.280659,0.921493
1183,505,3.31023,-0.00887969,0.281091,0.9209
1185,503,3.30939,-0.0163598,0.281589,0.920362
1187,501,3.31138,-0.0137931,0.280314,0.919687
1189,499,3.3114,-0.0136584,0.280095,0.919921
1191,497,3.31039,-0.014349,0.28031,0.919346
1193,495,3.31118,-0.0115606,0.279434,0.91872
1195,493,3.31036,-0.0122722,0.279875,0.918169
1197,491,3.30927,-0.0157068,0.280739,0.918406
1199,489,3.30986,-0.0129172,0.279872,0.917775
1201,487,3.31163,-0.00858079,0.278659,0.916847
1203,485,3.31078,-0.0109288,0.279089,0.916863
1205,483,3.31057,-0.009239,0.279091,0.916316
1207,481,3.31087,-0.00985198,0.278652,0.916114
1209,479,3.31034,-0.0105087,0.278649,0.915728
1211,477,3.30947,-0.00956979,0.279082,0.914828
1213,475,3.31201,-0.00615461,0.277435,0.914798
1215,473,3.31116,-0.0137064,0.277865,0.914257
1217,471,3.31099,-0.00755659,0.277872,0.913837
1219,469,3.3111,-0.0132962,0.277436,0.913386
1221,467,3.31058,-0.0140723,0.277869,0.912788
1223,465,3.30901,-0.0165876,0.278743,0.91081
1225,463,3.31191,-0.0101825,0.276665,0.911611
1227,461,3.31196,-0.010915,0.276668,0.911194
1229,459,3.31089,-0.012637,0.277108,0.911336
1231,457,3.31087,-0.00982799,0.276679,0.910567
1233,455,3.31081,-0.0105982,0.276665,0.91011
1235,453,3.30965,-0.0112636,0.277099,0.90957
1237,451,3.31095,-0.00867268,0.276315,0.908713
1239,449,3.31158,-0.00690526,0.275452,0.908773
1241,447,3.31111,-0.0143689,0.27545,0.908454
1243,445,3.3102,-0.00820329,0.276344,0.90785
1245,443,3.30957,-0.015894,0.276307,0.907267
1247,441,3.3094,-0.0166063,0.276317,0.906868
1249,439,3.31132,-0.0130858,0.27464,0.906862
1251,437,3.31144,-0.0102362,0.274234,0.9061
1253,435,3.31123,-0.0127635,0.274672,0.905792
1255,433,3.3101,-0.0134199,0.275097,0.905271
1257,431,3.30972,-0.0123202,0.275104,0.904621
1259,429,3.31216,-0.00794891,0.273464,0.903848
1261,427,3.312,-0.00680677,0.273035,0.903388
1263,425,3.31076,-0.00928712,0.273891,0.902917
1265,423,3.31114,-0.0151857,0.273461,0.902416
1267,421,3.31015,-0.015951,0.273888,0.901818
1269,419,3.30968,-0.00967297,0.273881,0.901407
1271,417,3.31182,-0.0113523,0.272247,0.901145
1273,415,3.31124,-0.0121302,0.272676,0.900543
1275,413,3.31039,-0.0145711,0.273101,0.900257
1277,411,3.31036,-0.0117437,0.272668,0.898008
1279,409,3.31026,-0.0125473,0.272675,0.899042
1281,407,3.30973,-0.0130977,0.272674,0.89872
1283,405,3.31113,-0.0103319,0.271906,0.898
1285,403,3.31137,-0.0093717,0.271477,0.897434
1287,401,3.31121,-0.00990682,0.271475,0.897132
1289,399,3.30943,-0.0125134,0.272762,0.896455
1291,397,3.31021,-0.0165427,0.271472,0.896296
1293,395,3.31165,-0.0138952,0.270695,0.895234
1295,393,3.31085,-0.00868796,0.271121,0.89535
1297,391,3.31087,-0.0145454,0.270691,0.894875
1299,389,3.31034,-0.0152958,0.271117,0.894296
1301,387,3.30949,-0.0159234,0.271116,0.893942
1303,385,3.31138,-0.0114533,0.269915,0.893022
1305,383,3.31152,-0.0122345,0.269921,0.892618
1307,381,3.31044,-0.0128268,0.270341,0.892116
1309,379,3.30975,-0.0136207,0.27077,0.89151
1311,377,3.30994,-0.0126237,0.270349,0.890976
1313,375,3.3117,-0.00958485,0.269136,0.890506
1315,373,3.31076,-0.0104387,0.269567,0.889865
1317,371,3.31138,-0.00759929,0.268701,0.889215
1319,369,3.31068,-0.00840639,0.26914,0.888635
1321,367,3.3097,-0.0107636,0.269563,0.888413
1323,365,3.30924,-0.0167542,0.270035,0.887755
1325,363,3.31139,-0.00694692,0.268351,0.887116
1327,361,3.31029,-0.00769758,0.268783,0.886532
1329,359,3.30975,-0.0136413,0.268785,0.885901
1331,357,3.30967,-0.0144307,0.268708,0.885451
1333,355,3.3088,-0.0168357,0.269214,0.88526
1335,353,3.31057,-0.0122001,0.268006,0.884397
1337,351,3.31089,-0.0112136,0.267574,0.883828
1339,349,3.30966,-0.0137526,0.268442,0.883416
1341,347,3.30903,-0.0126302,0.268439,0.882748
1343,345,3.30981,-0.01156,0.267573,0.882364
1345,343,3.31099,-0.00876503,0.266797,0.881606
1347,341,3.31007,-0.00955317,0.267227,0.881017
1349,339,3.31039,-0.00846096,0.266983,0.880508
1351,337,3.30981,-0.0161416,0.266795,0.880182
1353,335,3.30866,-0.0116235,0.267646,0.879684
1355,333,3.31111,-0.012277,0.265582,0.878891
1357,331,3.31046,-0.0130561,0.266012,0.878307
1359,329,3.30912,-0.0156024,0.26687,0.87786
1361,327,3.30961,-0.0126227,0.266009,0.877262
1363,325,3.31153,-0.00984009,0.264802,0.876913
1365,323,3.31044,-0.0106082,0.265245,0.876132
1367,321,3.31058,-0.0093369,0.264803,0.875671
1369,319,3.30992,-0.0103634,0.265232,0.874952
1371,317,3.30952,-0.00909548,0.2648,0.874544
1373,315,3.31081,-0.00625409,0.264023,0.873777
1375,313,3.31087,-0.00698956,0.264024,0.873379
1377,311,3.31026,-0.00765107,0.264026,0.873235
1379,309,3.30891,-0.00846661,0.264876,0.872235
1381,307,3.30915,-0.0145825,0.264441,0.871698
1383,305,3.31041,-0.0135201,0.263667,0.871257
1385,303,3.30947,-0.0142386,0.264093,0.870692
1387,301,3.31012,-0.0113533,0.263244,0.870061
1389,299,3.30928,-0.0127783,0.263673,0.869135
1391,297,3.30787,-0.0153955,0.264542,0.868687
1393,295,3.30953,-0.0106285,0.263614,0.867964
1395,293,3.31034,-0.00767458,0.262028,0.867361
1397,291,3.30908,-0.0103451,0.262851,0.866838
1399,289,3.30914,-0.016375,0.262443,0.866374
1401,287,3.30854,-0.0153346,0.262444,0.865659
1403,285,3.31008,-0.00706117,0.261658,0.865195
1405,283,3.30951,-0.0132224,0.26166,0.864497
1407,281,3.30963,-0.0120749,0.261226,0.863992
1409,279,3.30863,-0.0145692,0.261654,0.864017
1411,277,3.30824,-0.0134512,0.261651,0.863072
1413,275,3.31,-0.010745,0.26087,0.862246
1415,273,3.30936,-0.0113718,0.260871,0.861918
1417,271,3.30886,-0.0103057,0.260879,0.861206
1419,269,3.30829,-0.0118473,0.261298,0.860225
1421,267,3.30963,-0.00892076,0.2601,0.859658
1423,265,3.30929,-0.00783878,0.260097,0.858956
1425,263,3.30903,-0.0158282,0.260094,0.858589
1427,261,3.30793,-0.00934136,0.260521,0.858001
1429,259,3.30686,-0.017334,0.260944,0.857446
1431,257,3.30927,-0.0145519,0.259734,0.856809
1433,255,3.30857,-0.0151556,0.25974,0.85649
1435,253,3.30783,-0.0159143,0.260169,0.855923
1437,251,3.30806,-0.0148775,0.260198,0.855361
1439,249,3.30926,-0.0101065,0.258521,0.854488
1441,247,3.30824,-0.0127228,0.259385,0.854049
1443,245,3.30909,-0.0115196,0.258513,0.853716
1445,243,3.30745,-0.0130676,0.259387,0.852609
1447,241,3.30689,-0.0119306,0.259387,0.851932
1449,239,3.30923,-0.00907256,0.258183,0.851334
1451,237,3.30898,-0.00792171,0.257748,0.850837
1453,235,3.3081,-0.00857685,0.258179,0.850318
1455,233,3.30784,-0.00939899,0.258176,0.849873
1457,231,3.3089,-0.0144627,0.25739,0.848793
1459,229,3.3083,-0.013515,0.257496,0.848003
1461,227,3.30824,-0.0142139,0.257383,0.847641
1463,225,3.30745,-0.0148025,0.25738,0.847317
1465,223,3.30893,-0.0101327,0.256179,0.846368
1467,221,3.30889,-0.00975382,0.256173,0.845313
1469,219,3.30734,-0.0124695,0.257036,0.844847
1471,217,3.307,-0.0112717,0.256602,0.844336
1473,215,3.30923,-0.0065047,0.255125,0.843616
1475,213,3.30797,-0.00720946,0.255389,0.843074
1477,211,3.3072,-0.0153745,0.255818,0.842532
1479,209,3.30758,-0.0161052,0.255382,0.842299
1481,207,3.30582,-0.0176198,0.256243,0.841199
1483,205,3.30766,-0.0127912,0.255031,0.840291
1485,203,3.30771,-0.0136157,0.255023,0.839858
1487,201,3.30704,-0.0142924,0.255017,0.839478
1489,199,3.30664,-0.0130938,0.255016,0.838828
1491,197,3.30879,-0.0101944,0.253803,0.838193
1493,195,3.30824,-0.0109308,0.253803,0.837818
1495,193,3.30735,-0.00988884,0.254707,0.836929
1497,191,3.30718,-0.0113528,0.254232,0.836161
1499,189,3.30557,-0.0141164,0.255098,0.835697
1501,187,3.30831,-0.00720941,0.253017,0.834892
1503,185,3.30763,-0.00812991,0.253448,0.834273
1505,183,3.30643,-0.0106928,0.253878,0.834032
1507,181,3.306,-0.0170604,0.253871,0.833364
1509,179,3.30806,-0.014815,0.252771,0.832403
1511,177,3.307,-0.00804577,0.25309,0.831813
1513,175,3.3069,-0.0126605,0.252662,0.829458
1515,173,3.30629,-0.0133378,0.252822,0.830628
1517,171,3.30716,-0.0123096,0.252318,0.829972
1519,169,3.30786,-0.0100062,0.251454,0.82894
1521,167,3.30681,-0.0107496,0.251878,0.828397
1523,165,3.30544,-0.0134701,0.252751,0.827961
1525,163,3.30812,-0.00853669,0.251108,0.827259
1527,161,3.30726,-0.00739898,0.251099,0.826537
1529,159,3.30674,-0.0081421,0.251102,0.826156
1531,157,3.30594,-0.0172785,0.251524,0.825222
1533,155,3.30532,-0.0179648,0.251527,0.824869
1535,153,3.3063,-0.0150294,0.251657,0.823937
1537,151,3.30693,-0.0138639,0.250322,0.823574
1539,149,3.30539,-0.0172935,0.251191,0.822786
1541,147,3.30538,-0.0141922,0.25075,0.821983
1543,145,3.30745,-0.0111789,0.249535,0.82137
1545,143,3.30569,-0.0140496,0.250435,0.820889
1547,141,3.30621,-0.010802,0.249529,0.82029
1549,139,3.30536,-0.012324,0.249959,0.819351
1551,137,3.30638,-0.00938337,0.249179,0.818553
1553,135,3.30679,-0.00819313,0.248744,0.818037
1555,133,3.30582,-0.0108468,0.249173,0.817792
1557,131,3.30516,-0.00972577,0.249175,0.817098
1559,129,3.30665,-0.0152205,0.248396,0.81593
1561,127,3.30586,-0.0158781,0.248503,0.815397
1563,125,3.30555,-0.0147488,0.248385,0.814885
1565,123,3.30524,-0.0155817,0.248397,0.814485
1567,121,3.30614,-0.00680617,0.248045,0.813827
1569,119,3.3067,-0.0120409,0.247177,0.812876
1571,117,3.30599,-0.0109366,0.247177,0.81215
1573,115,3.30437,-0.0137375,0.248043,0.811688
1575,113,3.30713,-0.0094624,0.246865,0.810599
1577,111,3.30644,-0.0101783,0.246396,0.810238
1579,109,3.30606,-0.00899629,0.246387,0.809547
1581,107,3.30559,-0.00979329,0.246382,0.809131
1583,105,3.30645,-0.00873162,0.246043,0.808489
1585,103,3.30639,-0.0141039,0.245602,0.807316
1587,101,3.3057,-0.0148146,0.245603,0.806967
1589,99,3.3045,-0.0175886,0.246472,0.80652
1591,97,3.307,-0.0126159,0.244821,0.805763
1593,95,3.30624,-0.0133279,0.244813,0.805405
1595,93,3.30623,-0.0109148,0.244385,0.80424
1597,91,3.30553,-0.0118441,0.24481,0.803596
1599,89,3.30393,-0.0145506,0.24567,0.803175
1601,87,3.30684,-0.00755255,0.243581,0.802279
1603,85,3.30612,-0.00829685,0.243717,0.800465
1605,83,3.30545,-0.0176276,0.24402,0.801035
1607,81,3.30696,-0.0147451,0.243238,0.800172
1609,79,3.306175,-0.00957859,0.243674,0.799947
1611,77,3.30628,-0.0162788,0.243239,0.799431
1613,75,3.30548,-0.015766,0.243236,0.798402
1615,73,3.30454,-0.0166642,0.243671,0.797797
1617,71,3.30678,-0.013556,0.242449,0.79719
1619,69,3.30521,-0.0163765,0.243317,0.796773
1621,67,3.3057,-0.0132302,0.242445,0.796098
1623,65,3.30493,-0.0139124,0.242437,0.795726
1625,63,3.30638,-0.00963211,0.241654,0.794266
1627,61,3.30682,-0.010384,0.241225,0.794091
1629,59,3.30519,-0.0132295,0.242098,0.793654
1631,57,3.30596,-0.00999124,0.241228,0.793032
1633,55,3.30689,-0.0155756,0.240384,0.791895
1635,53,3.30599,-0.0163845,0.240885,0.791354
1637,51,3.30584,-0.017217,0.240878,0.790943
1639,49,3.30453,-0.0187851,0.241306,0.790007
1641,47,3.3072,-0.0136783,0.239672,0.78927
1643,45,3.30599,-0.0145335,0.240092,0.7887
1645,43,3.30601,-0.0131872,0.239661,0.78823
1647,41,3.30514,-0.0148983,0.240092,0.78724
1649,39,3.30602,-0.0138066,0.239745,0.786601
1651,37,3.30685,-0.0106051,0.238988,0.785931
1653,35,3.30584,-0.0112179,0.23887,0.785388
1655,33,3.30625,-0.00995909,0.238441,0.785155
1657,31,3.3077,-0.00758779,0.237656,0.784006
1659,29,3.30664,-0.00846472,0.238088,0.783406
1661,27,3.30631,-0.0173232,0.238128,0.783038
1663,25,3.3054,-0.010942,0.238526,0.782069
1665,23,3.30749,-0.015754,0.237314,0.781523
1667,21,3.30637,-0.0165731,0.237735,0.78096
1669,19,3.30568,-0.015461,0.237737,0.780214
1671,17,3.30557,-0.017004,0.237737,0.779482
1673,15,3.3066,-0.0138802,0.236954,0.778692
1675,13,3.30714,-0.0127047,0.236513,0.778151
1677,11,3.30585,-0.0155134,0.236953,0.777922
1679,9,3.30592,-0.0130645,0.236513,0.776715
1681,7,3.30778,-0.00979418,0.235296,0.776145
1683,5,3.30681,-0.0104977,0.235725,0.775638
1685,3,3.307,-0.0101666,0.235292,0.774706