File: hust_correlation_analysis/matrices/HUST_3-6_cycle_feature_matrix.csv
cycle_number,rul,voltage,current,capacity,charge_capacity
1,2493,3.31611,0.0215783,0.292031,1.02404
4,2490,3.30227,-0.0155939,0.307632,0.997804
7,2487,3.30304,-0.0180963,0.307084,1.00221
10,2484,3.30554,-0.0171934,0.305168,1.00621
13,2481,3.30634,-0.0170978,0.30423,1.00935
16,2478,3.30944,-0.0149226,0.30194,1.01161
19,2475,3.30903,-0.0161217,0.301954,1.01364
22,2472,3.31015,-0.0154816,0.301056,1.01445
25,2469,3.31137,-0.0147795,0.300166,1.0153
28,2466,3.31224,-0.0138934,0.298833,1.01646
31,2463,3.31263,-0.0139689,0.29837,1.01659
34,2460,3.31345,-0.0135244,0.297918,1.01702
37,2457,3.31354,-0.0135026,0.297474,1.01725
40,2454,3.31407,-0.0134753,0.297035,1.01749
43,2451,3.31485,-0.0134045,0.296592,1.01775
46,2448,3.31437,-0.0135231,0.296586,1.01769
49,2445,3.31516,-0.0133887,0.296145,1.01796
52,2442,3.3155,-0.0133912,0.295811,1.01819
55,2439,3.31553,-0.0139975,0.295704,1.01787
58,2436,3.31509,-0.0140722,0.295713,1.01785
61,2433,3.31521,-0.0147269,0.295711,1.01754
64,2430,3.31485,-0.0147362,0.295709,1.01753
67,2427,3.31477,-0.0153005,0.295702,1.01723
70,2424,3.31467,-0.0153917,0.295698,1.01717
73,2421,3.3147,-0.0153842,0.296179,1.01718
76,2418,3.31417,-0.016055,0.295695,1.01683
79,2415,3.31601,-0.0146624,0.294783,1.01669
82,2412,3.31614,-0.0140094,0.294364,1.01605
85,2409,3.31588,-0.0140738,0.293841,1.016
88,2406,3.31555,-0.0147457,0.294791,1.01543
91,2403,3.31538,-0.0148185,0.294785,1.01538
94,2400,3.31527,-0.0154111,0.295263,1.01507
97,2397,3.31509,-0.0153507,0.294779,1.01509
100,2394,3.31501,-0.0177156,0.295212,1.01494
103,2391,3.31685,-0.0128473,0.293439,1.0145
106,2388,3.31619,-0.0135019,0.293879,1.01397
109,2385,3.31646,-0.014111,0.293878,1.01367
112,2382,3.31601,-0.0141086,0.293876,1.01366
115,2379,3.31568,-0.0148571,0.294305,1.01304
118,2376,3.31623,-0.0147748,0.294035,1.0133
121,2373,3.31583,-0.0147329,0.293865,1.01331
124,2370,3.31537,-0.0153882,0.294298,1.01275
127,2367,3.31545,-0.015452,0.294302,1.01274
130,2364,3.31467,-0.0161159,0.29474,1.0122
133,2361,3.31666,-0.0134682,0.293996,1.01164
136,2358,3.31647,-0.0134344,0.293391,1.01166
139,2355,3.31588,-0.0141402,0.293822,1.01106
142,2352,3.31589,-0.0141431,0.293819,1.01105
145,2349,3.31574,-0.0142728,0.293817,1.01098
148,2346,3.31542,-0.014897,0.294249,1.01043
151,2343,3.31508,-0.0148801,0.29425,1.01043
154,2340,3.31509,-0.015407,0.294257,1.0102
157,2337,3.31463,-0.0155364,0.294704,1.00994
160,2334,3.31437,-0.016119,0.294705,1.00965
163,2331,3.31622,-0.0128754,0.293349,1.00938
166,2328,3.31594,-0.013574,0.293782,1.00878
169,2325,3.3155,-0.0136356,0.293781,1.00875
172,2322,3.31575,-0.014233,0.294389,1.00846
175,2319,3.31521,-0.0142827,0.294224,1.00821
178,2316,3.31461,-0.0150123,0.294665,1.00763
181,2313,3.31522,-0.0151887,0.294232,1.0078
184,2310,3.31448,-0.0148655,0.294671,1.00773
187,2307,3.31434,-0.0155385,0.294675,1.00738
190,2304,3.31446,-0.0155418,0.294672,1.00739
193,2301,3.31394,-0.0162301,0.29511,1.00681
196,2298,3.31359,-0.0162215,0.295109,1.00682
199,2295,3.31566,-0.0129762,0.293752,1.00654
202,2292,3.31513,-0.0136325,0.294185,1.00595
205,2289,3.31495,-0.0137327,0.294189,1.00592
208,2286,3.31525,-0.0143089,0.294196,1.00565
211,2283,3.31454,-0.0142785,0.294605,1.00535
214,2280,3.31481,-0.0143107,0.294185,1.00586
217,2277,3.31449,-0.0150947,0.294625,1.00498
220,2274,3.31415,-0.0150682,0.294626,1.005
223,2271,3.31412,-0.0150168,0.294624,1.00502
226,2268,3.31384,-0.0157147,0.295068,1.00445
229,2265,3.31346,-0.0157285,0.295068,1.00469
232,2262,3.31365,-0.0163216,0.29507,1.00417
235,2259,3.31347,-0.016349,0.295074,1.00416
238,2256,3.31302,-0.0163429,0.295072,1.00416
241,2253,3.315,-0.0137147,0.294147,1.00331
244,2250,3.31484,-0.0138113,0.294142,1.00324
247,2247,3.31457,-0.0137995,0.294128,1.00321
250,2244,3.31472,-0.0137604,0.294113,1.00318
253,2241,3.31403,-0.01561,0.294998,1.00304
256,2238,3.31422,-0.0159117,0.294977,1.00283
259,2235,3.31452,-0.0161048,0.294969,1.00273
262,2232,3.31326,-0.0159484,0.295435,1.00258
265,2229,3.31317,-0.0165868,0.295436,1.00229
268,2226,3.31354,-0.0170274,0.295435,1.00208
271,2223,3.31302,-0.0170232,0.29533,1.00208
274,2220,3.31286,-0.016996,0.29543,1.00208
277,2217,3.31327,-0.0175736,0.295595,1.0018
280,2214,3.31245,-0.0177342,0.295873,1.00148
283,2211,3.31256,-0.0176545,0.295439,1.00178
286,2208,3.31271,-0.0182508,0.295445,1.00152
289,2205,3.31424,-0.0139603,0.294079,1.00048
292,2202,3.31411,-0.0139651,0.294078,1.00048
295,2199,3.31406,-0.0155827,0.294521,1.0007
298,2196,3.31396,-0.0161837,0.294518,1.0004
301,2193,3.31332,-0.0164086,0.294964,1.00005
304,2190,3.31355,-0.0162431,0.294511,1.00035
307,2187,3.31317,-0.0170138,0.294964,0.99975
310,2184,3.31301,-0.0170636,0.294973,0.999757
313,2181,3.31319,-0.0159356,0.295146,0.99931
316,2178,3.31297,-0.0158586,0.294535,0.999353
319,2175,3.31246,-0.0160152,0.294977,0.999025
322,2172,3.31251,-0.0165991,0.29497,0.998727
325,2169,3.31234,-0.0183432,0.296037,0.998912
328,2166,3.312,-0.0183437,0.295412,0.998873
331,2163,3.314,-0.0150488,0.29404,0.998577
334,2160,3.31373,-0.0157981,0.294498,0.996579
337,2157,3.31353,-0.0141105,0.294051,0.997819
340,2154,3.31353,-0.0146751,0.294057,0.997558
343,2151,3.31357,-0.0146379,0.294492,0.997572
346,2148,3.31332,-0.0146841,0.294053,0.997539
349,2145,3.31291,-0.0153942,0.294502,0.996968
352,2142,3.31279,-0.015275,0.294496,0.997012
355,2139,3.31254,-0.0170867,0.294945,0.997154
358,2136,3.31238,-0.0161706,0.294946,0.996335
361,2133,3.3124,-0.0176497,0.294951,0.997134
364,2130,3.31226,-0.0166883,0.294963,0.996137
367,2127,3.31187,-0.0166618,0.295063,0.996163
370,2124,3.31182,-0.0166791,0.294963,0.995931
373,2121,3.31357,-0.0140862,0.294037,0.995265
376,2118,3.31319,-0.0140955,0.294032,0.995235
379,2115,3.31313,-0.0140661,0.294033,0.995259
382,2112,3.31332,-0.014117,0.29403,0.995226
385,2109,3.31307,-0.0148417,0.294028,0.994866
388,2106,3.31294,-0.0147677,0.294039,0.99494
391,2103,3.31271,-0.0153246,0.2945,0.99446
394,2100,3.3124,-0.0154016,0.294499,0.99443
397,2097,3.31234,-0.0154678,0.2945,0.994392
400,2094,3.31231,-0.015998,0.2945,0.994138
403,2091,3.31214,-0.0159438,0.294497,0.994158
406,2088,3.31163,-0.0160677,0.294946,0.993849
409,2085,3.31214,-0.016024,0.29449,0.994106
412,2082,3.31176,-0.0168252,0.294954,0.9935
415,2079,3.31087,-0.0173469,0.295412,0.993036
418,2076,3.31299,-0.0141181,0.294037,0.992711
421,2073,3.31308,-0.01406,0.294039,0.992738
424,2070,3.31272,-0.0140845,0.294037,0.992727
427,2067,3.3129,-0.0147167,0.294037,0.99242
430,2064,3.31241,-0.0147928,0.294481,0.990588
433,2061,3.31213,-0.0148153,0.294482,0.992099
436,2058,3.31212,-0.0148593,0.294476,0.992062
439,2055,3.31211,-0.0156106,0.294485,0.991726
442,2052,3.31205,-0.0154627,0.294497,0.992096
445,2049,3.31139,-0.0155224,0.294961,0.9916
448,2046,3.3114,-0.0161431,0.294963,0.991313
451,2043,3.31146,-0.0161544,0.294967,0.991314
454,2040,3.31091,-0.0168683,0.295589,0.990738
457,2037,3.31082,-0.0168411,0.295418,0.990736
460,2034,3.31071,-0.0168659,0.295415,0.990716
463,2031,3.31046,-0.0168748,0.295407,0.990677
466,2028,3.31253,-0.0135918,0.293863,0.990357
469,2025,3.31235,-0.0141237,0.294035,0.990131
472,2022,3.31258,-0.0140706,0.294042,0.990186
475,2019,3.31198,-0.0147762,0.295126,0.989641
478,2016,3.3118,-0.0147606,0.294486,0.989574
481,2013,3.31196,-0.014898,0.294478,0.989484
484,2010,3.3116,-0.0149398,0.295093,0.989447
487,2007,3.31152,-0.014937,0.29447,0.989434
490,2004,3.3117,-0.0155847,0.294468,0.989116
493,2001,3.31159,-0.015592,0.294465,0.98909
496,1998,3.31151,-0.0156223,0.294472,0.989113
499,1995,3.31087,-0.0163563,0.295418,0.988525
502,1992,3.31102,-0.0163378,0.294928,0.988534
505,1989,3.3107,-0.0162821,0.29492,0.988539
508,1986,3.31046,-0.0163485,0.29492,0.988496
511,1983,3.31098,-0.017041,0.294919,0.988169
514,1980,3.31062,-0.0169403,0.294919,0.988208
517,1977,3.31043,-0.0170481,0.294916,0.988152
520,1974,3.3124,-0.0135986,0.29353,0.987722
523,1971,3.31198,-0.0142973,0.293999,0.987358
526,1968,3.31203,-0.0142527,0.294009,0.987416
529,1965,3.31136,-0.0150482,0.294469,0.986798
532,1962,3.31183,-0.0149877,0.294004,0.987043
535,1959,3.31173,-0.0149492,0.294,0.987046
538,1956,3.31151,-0.0149593,0.293997,0.987036
541,1953,3.31125,-0.015706,0.295073,0.986428
544,1950,3.31105,-0.0156967,0.294454,0.986447
547,1947,3.31117,-0.0157473,0.294464,0.986451
550,1944,3.31028,-0.0164415,0.294934,0.985922
553,1941,3.31074,-0.0162489,0.294476,0.986253
556,1938,3.31051,-0.0169615,0.294935,0.985679
559,1935,3.31025,-0.0170046,0.294931,0.985641
562,1932,3.3102,-0.0171565,0.294925,0.98554
565,1929,3.3099,-0.0170989,0.294915,0.985546
568,1926,3.30998,-0.0171626,0.294915,0.985507
571,1923,3.31195,-0.0143562,0.293518,0.984921
574,1920,3.31179,-0.0143088,0.293521,0.984897
577,1917,3.31199,-0.0143298,0.29354,0.984995
580,1914,3.31133,-0.0149797,0.294012,0.984484
583,1911,3.3112,-0.0150357,0.294013,0.984461
586,1908,3.31102,-0.0149999,0.294002,0.984455
589,1905,3.31085,-0.0157692,0.294945,0.983815
592,1902,3.31103,-0.0157145,0.293991,0.984068
595,1899,3.31044,-0.0158202,0.294621,0.983787
598,1896,3.311,-0.0157858,0.293992,0.984041
601,1893,3.31033,-0.0165052,0.294465,0.983484
604,1890,3.31032,-0.0164549,0.294477,0.983571
607,1887,3.3096,-0.0170889,0.294949,0.983053
610,1884,3.30951,-0.0169997,0.294957,0.983118
613,1881,3.31179,-0.0135887,0.293553,0.982794
616,1878,3.31168,-0.0142638,0.293554,0.982475
619,1875,3.31102,-0.0143974,0.294018,0.982167
622,1872,3.3115,-0.0142845,0.293552,0.982457
625,1869,3.31104,-0.0150344,0.294018,0.981873
628,1866,3.31064,-0.015048,0.293963,0.981873
631,1863,3.31067,-0.0150468,0.294027,0.981893
634,1860,3.31044,-0.0157383,0.294494,0.981323
637,1857,3.30997,-0.0157757,0.294497,0.981321
640,1854,3.30993,-0.0158325,0.294498,0.981306
643,1851,3.30989,-0.0164298,0.294498,0.981034
646,1848,3.30992,-0.0164054,0.294989,0.98105
649,1845,3.30985,-0.0164465,0.294496,0.981021
652,1842,3.30948,-0.0164494,0.294496,0.981001
655,1839,3.3092,-0.0171947,0.294963,0.980414
658,1836,3.30909,-0.0171712,0.294962,0.980432
661,1833,3.30936,-0.0171421,0.294495,0.980678
664,1830,3.31081,-0.0137581,0.293562,0.980113
667,1827,3.31123,-0.0144911,0.293562,0.979774
670,1824,3.31091,-0.0144443,0.293561,0.979784
673,1821,3.31071,-0.0144419,0.29356,0.979778
676,1818,3.31043,-0.0152111,0.29402,0.979165
679,1815,3.31067,-0.0150569,0.293646,0.979476
682,1812,3.31019,-0.015221,0.29402,0.979153
685,1809,3.31049,-0.0152042,0.293551,0.979405
688,1806,3.31026,-0.0159116,0.294117,0.97884
691,1803,3.30994,-0.0158062,0.294025,0.978903
694,1800,3.31001,-0.0158257,0.294022,0.978898
697,1797,3.30975,-0.0165571,0.294504,0.978527
700,1794,3.30953,-0.0165526,0.294018,0.978532
703,1791,3.30972,-0.016594,0.294015,0.978509
706,1788,3.30924,-0.0173425,0.294484,0.977915
709,1785,3.30911,-0.0173989,0.29448,0.977871
712,1782,3.30885,-0.017421,0.294487,0.977883
715,1779,3.31111,-0.0138657,0.293086,0.977644
718,1776,3.31077,-0.0144916,0.293093,0.977372
721,1773,3.31067,-0.0145142,0.293087,0.977345
724,1770,3.31036,-0.0152373,0.29356,0.976769
727,1767,3.3102,-0.0151987,0.293559,0.976787
730,1764,3.31019,-0.0152634,0.293557,0.976755
733,1761,3.30952,-0.0160474,0.294028,0.976153
736,1758,3.31004,-0.0159225,0.293559,0.976457
739,1755,3.30997,-0.0159286,0.294181,0.976443
742,1752,3.30961,-0.0167326,0.29404,0.975877
745,1749,3.30915,-0.0166409,0.294038,0.975923
748,1746,3.30901,-0.0166443,0.294038,0.975918
751,1743,3.30933,-0.0172055,0.294043,0.975683
754,1740,3.3091,-0.0172396,0.294039,0.975654
757,1737,3.30837,-0.0174148,0.295004,0.975325
760,1734,3.31049,-0.0145281,0.293106,0.974741
763,1731,3.31057,-0.0145506,0.293101,0.974721
766,1728,3.31012,-0.0145355,0.293087,0.974691
769,1725,3.3102,-0.0147927,0.293177,0.974541
772,1722,3.31017,-0.0153753,0.293085,0.97428
775,1719,3.31026,-0.0153657,0.29308,0.974268
778,1716,3.31019,-0.0158788,0.293098,0.974089
781,1713,3.30953,-0.0160441,0.293567,0.973774
784,1710,3.3092,-0.0160366,0.293567,0.973777
787,1707,3.30923,-0.0160406,0.293559,0.973751
790,1704,3.3096,-0.0168089,0.293559,0.973394
793,1701,3.30905,-0.0168313,0.293559,0.97338
796,1698,3.30913,-0.0169323,0.293557,0.973321
799,1695,3.30906,-0.0167889,0.293558,0.973405
802,1692,3.30909,-0.0174546,0.294053,0.973112
805,1689,3.31046,-0.0142159,0.29264,0.97248
808,1686,3.3105,-0.0145969,0.292641,0.97232
811,1683,3.31047,-0.0146018,0.292088,0.972302
814,1680,3.31027,-0.0145936,0.292636,0.972304
817,1677,3.30977,-0.0154742,0.293106,0.971639
820,1674,3.31003,-0.0153643,0.29263,0.971926
823,1671,3.31012,-0.0153671,0.292621,0.971902
826,1668,3.30963,-0.0161658,0.293095,0.971283
829,1665,3.30954,-0.0162058,0.293096,0.971274
832,1662,3.30922,-0.0162204,0.293102,0.971266
835,1659,3.30952,-0.0168566,0.293097,0.970977
838,1656,3.30934,-0.0168258,0.293094,0.970983
841,1653,3.30923,-0.0169583,0.293086,0.970892
844,1650,3.30889,-0.0169133,0.293078,0.970897
847,1647,3.30908,-0.0168814,0.293075,0.970903
850,1644,3.30839,-0.0176999,0.293559,0.971763
853,1641,3.31042,-0.0146568,0.292162,0.969841
856,1638,3.31025,-0.0146898,0.292661,0.969848
859,1635,3.30989,-0.0154044,0.292652,0.969307
862,1632,3.30987,-0.0155224,0.29264,0.969205
865,1629,3.3096,-0.0155244,0.29326,0.969188
868,1626,3.30964,-0.0154957,0.292632,0.969186
871,1623,3.31003,-0.0154947,0.292151,0.969416
874,1620,3.30961,-0.0162819,0.292624,0.968806
877,1617,3.30912,-0.0163003,0.29263,0.968814
880,1614,3.30936,-0.0170167,0.292642,0.968534
883,1611,3.30901,-0.0168366,0.292643,0.968621
886,1608,3.30872,-0.0175541,0.293128,0.968081
889,1605,3.30843,-0.017679,0.293125,0.968011
892,1602,3.30821,-0.0176277,0.293123,0.96803
895,1599,3.31041,-0.0146897,0.291709,0.967452
898,1596,3.30986,-0.0148121,0.292183,0.967142
901,1593,3.30974,-0.0148685,0.292273,0.967112
904,1590,3.30964,-0.0155062,0.292179,0.966821
907,1587,3.30957,-0.0155358,0.292187,0.966822
910,1584,3.30914,-0.0162954,0.292673,0.96626
913,1581,3.3095,-0.0161762,0.292281,0.966547
916,1578,3.30867,-0.0162308,0.292673,0.966305
919,1575,3.30889,-0.0169303,0.29267,0.965977
922,1572,3.30862,-0.0169564,0.292669,0.965952
925,1569,3.30857,-0.017052,0.292663,0.965884
928,1566,3.3079,-0.0178188,0.293236,0.965292
931,1563,3.30854,-0.0179493,0.292662,0.965468
934,1560,3.31035,-0.0141456,0.291242,0.965275
937,1557,3.3098,-0.0148753,0.291721,0.964707
940,1554,3.30981,-0.0148735,0.291722,0.964707
943,1551,3.30966,-0.0148641,0.291726,0.964717
946,1548,3.30966,-0.0155491,0.291718,0.964388
949,1545,3.30924,-0.0155486,0.291723,0.964401
952,1542,3.30892,-0.016323,0.292194,0.963778
955,1539,3.30888,-0.016406,0.292189,0.963723
958,1536,3.30878,-0.0164216,0.292191,0.963718
961,1533,3.3085,-0.0164671,0.292178,0.963673
964,1530,3.30863,-0.0165712,0.292173,0.96359
967,1527,3.30841,-0.0170021,0.292178,0.963423
970,1524,3.30813,-0.0178724,0.292668,0.962813
973,1521,3.30769,-0.018026,0.292667,0.962731
976,1518,3.31031,-0.0142059,0.290773,0.962819
979,1515,3.30974,-0.0149632,0.291878,0.962211
982,1512,3.30978,-0.0150513,0.291247,0.962155
985,1509,3.30947,-0.0150621,0.291241,0.962142
988,1506,3.30958,-0.0157518,0.291245,0.961832
991,1503,3.30928,-0.0156762,0.291236,0.961854
994,1500,3.30907,-0.0165395,0.291744,0.961292
997,1497,3.30864,-0.0165909,0.291768,0.961353
1000,1494,3.30827,-0.0171229,0.292235,0.960843
1003,1491,3.30845,-0.0171254,0.29174,0.961024
1006,1488,3.3084,-0.0171722,0.291743,0.961011
1009,1485,3.30763,-0.0179761,0.292224,0.960402
1012,1482,3.30765,-0.0180181,0.292217,0.960361
1015,1479,3.30971,-0.0143862,0.290789,0.960065
1018,1476,3.30973,-0.015074,0.290785,0.959727
1021,1473,3.30947,-0.0151541,0.290782,0.959671
1024,1470,3.30923,-0.0158417,0.29128,0.959187
1027,1467,3.30896,-0.0157642,0.291455,0.959248
1030,1464,3.30884,-0.0158037,0.291282,0.959209
1033,1461,3.30859,-0.0164585,0.291283,0.958915
1036,1458,3.308613,-0.0165159,0.291278,0.958878
1039,1455,3.30815,-0.0172784,0.291766,0.958299
1042,1452,3.30791,-0.0173163,0.291759,0.958257
1045,1449,3.30769,-0.017313,0.291755,0.958246
1048,1446,3.30773,-0.0179162,0.291748,0.957953
1051,1443,3.30755,-0.0180093,0.29175,0.957913
1054,1440,3.30915,-0.0151539,0.290816,0.957044
1057,1437,3.30887,-0.015198,0.290811,0.957006
1060,1434,3.30905,-0.0157856,0.290819,0.95678
1063,1431,3.30873,-0.0157905,0.290825,0.957039
1066,1428,3.30823,-0.016654,0.291317,0.956153
1069,1425,3.30806,-0.0166646,0.291312,0.956166
1072,1422,3.30791,-0.0166677,0.291313,0.956161
1075,1419,3.30786,-0.0174051,0.291946,0.955833
1078,1416,3.30759,-0.0173244,0.291318,0.956132
1081,1413,3.3072,-0.0180358,0.291809,0.955355
1084,1410,3.30917,-0.0143561,0.290388,0.955096
1087,1407,3.30913,-0.0151319,0.290387,0.954746
1090,1404,3.309,-0.0151142,0.290383,0.954737
1093,1401,3.30896,-0.0150919,0.290376,0.954725
1096,1398,3.3083,-0.0159092,0.29086,0.954077
1099,1395,3.30811,-0.0160581,0.29086,0.954012
1102,1392,3.3082,-0.0167042,0.290855,0.95372
1105,1389,3.30809,-0.0167146,0.290858,0.953712
1108,1386,3.30749,-0.0175184,0.291365,0.953188
1111,1383,3.30714,-0.0174423,0.291372,0.95324
1114,1380,3.30731,-0.0180719,0.291372,0.95298
1117,1377,3.30705,-0.0181063,0.291368,0.95294
1120,1374,3.3068,-0.0181571,0.291352,0.952856
1123,1371,3.30897,-0.0152497,0.289916,0.952196
1126,1368,3.30902,-0.0152326,0.289905,0.952179
1129,1365,3.30836,-0.0160403,0.291031,0.951579
1132,1362,3.30817,-0.0160955,0.290389,0.951529
1135,1359,3.30795,-0.0161599,0.290389,0.95167
1138,1356,3.30819,-0.0168505,0.290393,0.951193
1141,1353,3.30775,-0.0169161,0.290887,0.951185
1144,1350,3.30728,-0.0176811,0.290886,0.950581
1147,1347,3.30699,-0.0176314,0.290883,0.950606
1150,1344,3.30719,-0.0176992,0.290878,0.950559
1153,1341,3.30679,-0.0184257,0.290963,0.950215
1156,1338,3.30669,-0.0184716,0.290871,0.950189
1159,1335,3.30842,-0.0155377,0.289925,0.949303
1162,1332,3.30832,-0.0155508,0.289923,0.949293
1165,1329,3.30806,-0.016263,0.289929,0.948989
1168,1326,3.30814,-0.0161965,0.28994,0.94907
1171,1323,3.30733,-0.0169749,0.291081,0.948511
1174,1320,3.30737,-0.0169967,0.290441,0.948489
1177,1317,3.30652,-0.0177702,0.290931,0.947884
1180,1314,3.30711,-0.0176706,0.29043,0.948161
1183,1311,3.30648,-0.0185222,0.290923,0.947528
1186,1308,3.30621,-0.0185197,0.290922,0.947514
1189,1305,3.30849,-0.0154322,0.289476,0.946924
1192,1302,3.30822,-0.0155164,0.289476,0.946889
1195,1299,3.30798,-0.0163287,0.289979,0.946313
1198,1296,3.30737,-0.0162943,0.289986,0.946342
1201,1293,3.30756,-0.0169277,0.289985,0.946074
1204,1290,3.30713,-0.0169421,0.28999,0.946068
1207,1287,3.30716,-0.0169829,0.289982,0.946042
1210,1284,3.30631,-0.0178296,0.290474,0.945404
1213,1281,3.30636,-0.0178589,0.290473,0.945385
1216,1278,3.30607,-0.0185895,0.290473,0.945069
1219,1275,3.30834,-0.0148488,0.289029,0.944757
1222,1272,3.30765,-0.0156376,0.289527,0.944167
1225,1269,3.30774,-0.0163201,0.289527,0.943867
1228,1266,3.30721,-0.0163599,0.28953,0.943864
1231,1263,3.30738,-0.0169321,0.289529,0.943621
1234,1260,3.30656,-0.0171603,0.290484,0.943266
1237,1257,3.30634,-0.0171731,0.290025,0.943251
1240,1254,3.30623,-0.0178678,0.290026,0.942951
1243,1251,3.30617,-0.0178696,0.29003,0.942965
1246,1248,3.3055,-0.0187759,0.290532,0.942327
1249,1245,3.30744,-0.014954,0.289084,0.942056
1252,1242,3.30766,-0.0157045,0.289081,0.941719
1255,1239,3.3074,-0.0156378,0.289091,0.941772
1258,1236,3.30674,-0.0165705,0.289592,0.941117
1261,1233,3.30664,-0.0172131,0.289591,0.940844
1264,1230,3.30669,-0.0172054,0.289591,0.940836
1267,1227,3.3059,-0.0180506,0.290732,0.940224
1270,1224,3.30562,-0.0180414,0.290094,0.940234
1273,1221,3.30573,-0.0187552,0.290176,0.9399
1276,1218,3.30533,-0.0187857,0.290089,0.939889
1279,1215,3.30703,-0.0157987,0.289139,0.93899
1282,1212,3.3073,-0.0157188,0.288641,0.939284
1285,1209,3.30698,-0.0165651,0.289147,0.938924
1288,1206,3.30648,-0.0164417,0.289149,0.938771
1291,1203,3.30607,-0.0173886,0.289748,0.938132
1294,1200,3.30642,-0.017187,0.289156,0.938462
1297,1197,3.30571,-0.0180178,0.289649,0.937814
1300,1194,3.30538,-0.0180699,0.28965,0.937784
1303,1191,3.30538,-0.0187471,0.289653,0.937504
1306,1188,3.30761,-0.0149852,0.288194,0.937171
1309,1185,3.30673,-0.0158092,0.288698,0.936563
1312,1182,3.30686,-0.0157908,0.288698,0.936591
1315,1179,3.30612,-0.0166074,0.289211,0.93599
1318,1176,3.30625,-0.0173464,0.289212,0.935674
1321,1173,3.30566,-0.0173776,0.289219,0.935678
1324,1170,3.30591,-0.018057,0.288607,0.935381
1327,1167,3.30492,-0.0181839,0.289723,0.935071
1330,1164,3.30471,-0.0189322,0.289718,0.934728
1333,1161,3.30476,-0.0189876,0.289717,0.934705
1336,1158,3.30683,-0.0158635,0.288251,0.93408
1339,1155,3.30609,-0.0159745,0.288761,0.933787
1342,1152,3.30615,-0.0166247,0.28925,0.933502
1345,1149,3.30589,-0.0165866,0.288755,0.933508
1348,1146,3.30533,-0.0176547,0.289261,0.93276
1351,1143,3.30556,-0.0174881,0.288753,0.933095
1354,1140,3.30517,-0.0183747,0.289264,0.932472
1357,1137,3.30466,-0.0183589,0.289259,0.932464
1360,1134,3.30482,-0.0191503,0.289253,0.932108
1363,1131,3.30443,-0.0191474,0.289251,0.932089
1366,1128,3.30622,-0.016125,0.288297,0.931177
1369,1125,3.30604,-0.0161105,0.288294,0.931183
1372,1122,3.3059,-0.0168687,0.288298,0.930873
1375,1119,3.30579,-0.0169314,0.288307,0.930864
1378,1116,3.30505,-0.0176497,0.288826,0.93035
1381,1113,3.30504,-0.0183802,0.28883,0.93029
1384,1110,3.30407,-0.0184673,0.28934,0.92974
1387,1107,3.30419,-0.019157,0.289333,0.929436
1390,1104,3.30392,-0.0193728,0.289322,0.929285
1393,1101,3.30601,-0.0161671,0.287852,0.928685
1396,1098,3.30604,-0.0161894,0.28801,0.928665
1399,1095,3.30536,-0.0170229,0.288354,0.92804
1402,1092,3.30516,-0.0170801,0.288347,0.927989
1405,1089,3.30523,-0.0178264,0.288351,0.927683
1408,1086,3.3047,-0.0179124,0.288359,0.927674
1411,1083,3.30423,-0.0187287,0.289528,0.927094
1414,1080,3.30414,-0.0193398,0.288879,0.926831
1417,1077,3.30377,-0.0193857,0.288876,0.926799
1420,1074,3.30609,-0.0162725,0.287401,0.926139
1423,1071,3.30583,-0.0162613,0.287357,0.926129
1426,1068,3.30528,-0.0171795,0.287904,0.925468
1429,1065,3.30486,-0.017204,0.287902,0.925454
1432,1062,3.30494,-0.0179656,0.288547,0.925117
1435,1059,3.30457,-0.0179555,0.287899,0.925098
1438,1056,3.30457,-0.0186423,0.287904,0.924855
1441,1053,3.30399,-0.0195154,0.288429,0.924241
1444,1050,3.30347,-0.019456,0.288435,0.92429
1447,1047,3.30551,-0.0164551,0.28748,0.923338
1450,1044,3.30506,-0.016456,0.287475,0.923328
1453,1041,3.30489,-0.0171974,0.287471,0.923008
1456,1038,3.305,-0.0172311,0.287468,0.922984
1459,1035,3.30406,-0.0180843,0.287987,0.922367
1462,1032,3.30414,-0.0188239,0.287986,0.922047
1465,1029,3.30372,-0.018837,0.288071,0.922058
1468,1026,3.30286,-0.019678,0.288523,0.92149
1471,1023,3.30547,-0.0163721,0.287044,0.920907
1474,1020,3.30439,-0.0166132,0.287579,0.920582
1477,1017,3.30495,-0.017087,0.287049,0.920633
1480,1014,3.30493,-0.0171552,0.287014,0.9206
1483,1011,3.30399,-0.0180421,0.287568,0.919966
1486,1008,3.30362,-0.0189477,0.288093,0.919334
1489,1005,3.30311,-0.0189266,0.288093,0.919337
1492,1002,3.30302,-0.0196522,0.288094,0.919035
1495,999,3.30528,-0.0157411,0.28661,0.918698
1498,996,3.30438,-0.0165558,0.28714,0.918115
1501,993,3.30451,-0.0172859,0.287141,0.917811
1504,990,3.30416,-0.0173392,0.287146,0.917822
1507,987,3.30335,-0.0181898,0.287693,0.917283
1510,984,3.30342,-0.0188759,0.287673,0.916927
1513,981,3.30302,-0.0188979,0.287669,0.916899
1516,978,3.30241,-0.0198345,0.288199,0.91626
1519,975,3.30461,-0.0158681,0.286709,0.915939
1522,972,3.30442,-0.0164737,0.286708,0.915683
1525,969,3.30378,-0.0174679,0.287235,0.914994
1528,966,3.30357,-0.0175133,0.287236,0.914989
1531,963,3.30333,-0.0182289,0.287246,0.91472
1534,960,3.30273,-0.0190922,0.28778,0.914126
1537,957,3.30246,-0.0197128,0.28844,0.913906
1540,954,3.30442,-0.0158172,0.286294,0.91353
1543,951,3.30403,-0.0166924,0.286823,0.912909
1546,948,3.30378,-0.0174529,0.286821,0.912583
1549,945,3.30339,-0.0174506,0.286818,0.912575
1552,942,3.30297,-0.0184052,0.287348,0.911911
1555,939,3.3025,-0.0183785,0.287346,0.911908
1558,936,3.30259,-0.0191176,0.287344,0.911597
1561,933,3.30228,-0.019207,0.287351,0.911586
1564,930,3.30381,-0.0159789,0.286402,0.910726
1567,927,3.30345,-0.0168584,0.286427,0.91044
1570,924,3.30369,-0.0173768,0.286391,0.910126
1573,921,3.30328,-0.0176028,0.286367,0.909753
1576,918,3.30323,-0.0176285,0.286365,0.909904
1579,915,3.30249,-0.0185462,0.286899,0.909267
1582,912,3.30173,-0.0194544,0.287433,0.908635
1585,909,3.30165,-0.0194307,0.287427,0.908624
1588,906,3.30132,-0.0202194,0.287421,0.908279
1591,903,3.30356,-0.0162023,0.285924,0.907954
1594,900,3.30283,-0.0171997,0.286468,0.9073
1597,897,3.30269,-0.0177993,0.28647,0.907054
1600,894,3.30237,-0.0178157,0.286474,0.907069
1603,891,3.30187,-0.0186865,0.287014,0.90646
1606,888,3.30165,-0.019576,0.287009,0.906072
1609,885,3.30125,-0.0195272,0.287493,0.906074
1612,882,3.30132,-0.0203856,0.286998,0.905716
1615,879,3.30298,-0.0171005,0.28603,0.904794
1618,876,3.30257,-0.0171159,0.286029,0.904787
1621,873,3.30258,-0.0179314,0.286027,0.904446
1624,870,3.30181,-0.0188259,0.286568,0.903817
1627,867,3.30134,-0.0187465,0.286573,0.903881
1630,864,3.30089,-0.0197437,0.287127,0.903235
1633,861,3.3004,-0.0204232,0.287137,0.903013
1636,858,3.30278,-0.0170242,0.285635,0.90266
1639,855,3.30213,-0.0179968,0.286166,0.901723
1642,852,3.30181,-0.0179939,0.286158,0.901681
1645,849,3.30104,-0.0189984,0.286703,0.901011
1648,846,3.30155,-0.0188142,0.286156,0.901589
1651,843,3.30059,-0.0197776,0.286702,0.900701
1654,840,3.30032,-0.0205065,0.286703,0.900409
1657,837,3.30222,-0.0172804,0.28574,0.899468
1660,834,3.30171,-0.0173055,0.285734,0.899434
1663,831,3.30154,-0.0180359,0.285736,0.899152
1666,828,3.30097,-0.018992,0.286283,0.898483
1669,825,3.30074,-0.018976,0.286283,0.8985
1672,822,3.29968,-0.0200058,0.286827,0.897806
1675,819,3.3002,-0.0198246,0.286272,0.898127
1678,816,3.3019,-0.0166907,0.285302,0.897115
1681,813,3.30185,-0.0173458,0.285298,0.896839
1684,810,3.30098,-0.018392,0.286344,0.896157
1687,807,3.30097,-0.018422,0.285848,0.896141
1690,804,3.29978,-0.0192545,0.286399,0.895545
1693,801,3.29965,-0.0202098,0.286391,0.895132
1696,798,3.29937,-0.0202223,0.286382,0.895103
1699,795,3.29922,-0.0209764,0.286385,0.894812
1702,792,3.30078,-0.0177521,0.285418,0.893831
1705,789,3.30074,-0.0184709,0.285425,0.893564
1708,786,3.30056,-0.0184907,0.285426,0.893574
1711,783,3.29953,-0.019401,0.285983,0.892958
1714,780,3.29945,-0.0201858,0.285986,0.892645
1717,777,3.29873,-0.0212162,0.286543,0.891971
1720,774,3.30094,-0.016856,0.285013,0.89169
1723,771,3.30059,-0.0176462,0.285011,0.89137
1726,768,3.29991,-0.0186381,0.285571,0.890714
1729,765,3.29976,-0.0194634,0.285579,0.890406
1732,762,3.29891,-0.0202777,0.286138,0.889829
1735,759,3.29849,-0.0202835,0.286136,0.889834
1738,756,3.29842,-0.0210416,0.286137,0.889525
1741,753,3.30005,-0.0178289,0.285164,0.888506
1744,750,3.29991,-0.0186963,0.285161,0.888157
1747,747,3.29909,-0.0196324,0.286389,0.887514
1750,744,3.29936,-0.0195159,0.285162,0.887829
1753,741,3.29849,-0.0203935,0.285722,0.887213
1756,738,3.29816,-0.0213027,0.285722,0.886852
1759,735,3.30015,-0.0179135,0.28475,0.885908
1762,732,3.29972,-0.0178857,0.28475,0.885922
1765,729,3.29881,-0.0187562,0.285812,0.885333
1768,726,3.29862,-0.019608,0.285315,0.884991
1771,723,3.29804,-0.0205911,0.285726,0.884344
1774,720,3.29765,-0.021335,0.28588,0.884039
1777,717,3.29987,-0.0170355,0.284342,0.883714
1780,714,3.29891,-0.01803,0.284909,0.883052
1783,711,3.299,-0.0188072,0.284914,0.882768
1786,708,3.29805,-0.0197626,0.285477,0.882108
1789,705,3.2984,-0.0196472,0.284912,0.882435
1792,702,3.29758,-0.020711,0.285477,0.881748
1795,699,3.29937,-0.0171989,0.28451,0.880836
1798,696,3.2989,-0.0180694,0.284501,0.880476
1801,693,3.29873,-0.0189356,0.284486,0.880067
1804,690,3.29838,-0.0190833,0.284466,0.879945
1807,687,3.29766,-0.0200832,0.285122,0.879338
1810,684,3.29728,-0.0209035,0.285052,0.879021
1813,681,3.2962,-0.0218907,0.285623,0.878355
1816,678,3.29877,-0.0183398,0.284071,0.877698
1819,675,3.29803,-0.0193515,0.284642,0.877022
1822,672,3.29785,-0.020113,0.28531,0.876716
1825,669,3.29719,-0.0202757,0.284637,0.876642
1828,666,3.29657,-0.0211086,0.285192,0.875988
1831,663,3.29636,-0.0220998,0.285199,0.875631
1834,660,3.29794,-0.0185269,0.284234,0.874732
1837,657,3.29771,-0.0194309,0.284306,0.87439
1840,654,3.29687,-0.0204281,0.284824,0.873757
1843,651,3.29667,-0.0212793,0.284827,0.873451
1846,648,3.29642,-0.0220107,0.284822,0.873155
1849,645,3.298,-0.018571,0.283834,0.872146
1852,642,3.29764,-0.0186552,0.283832,0.872102
1855,639,3.29741,-0.0195016,0.283991,0.871758
1858,636,3.29652,-0.0204728,0.28441,0.871111
1861,633,3.29563,-0.0215154,0.284995,0.870432
1864,630,3.29515,-0.0223934,0.284996,0.870106
1867,627,3.29797,-0.0162809,0.282849,0.86951
1870,624,3.29721,-0.0175085,0.283432,0.868768
1873,621,3.29677,-0.0181315,0.283437,0.868552
1876,618,3.29575,-0.0191836,0.284023,0.867871
1879,615,3.29506,-0.0291605,0.284023,0.86755
1882,612,3.29699,-0.0256231,0.283038,0.866578
1885,609,3.2968,-0.0265506,0.283035,0.866214
1888,606,3.296,-0.0252019,0.283032,0.865556
1891,603,3.29525,-0.0275609,0.283623,0.86557
1894,600,3.29489,-0.0247357,0.283028,0.864554
1897,597,3.29731,-0.0211532,0.281961,0.863879
1900,594,3.29705,-0.0211034,0.281469,0.863913
1903,591,3.29629,-0.0206383,0.281628,0.862914
1906,588,3.29545,-0.0215397,0.282065,0.86235
1909,585,3.29532,-0.02011,0.28148,0.862014
1912,582,3.29785,-0.0155701,0.279907,0.861674
1915,579,3.29731,-0.0163818,0.279903,0.861344
1918,576,3.29608,-0.0265781,0.281156,0.860689
1921,573,3.29564,-0.0275525,0.280477,0.860295
1924,570,3.29504,-0.0261216,0.280471,0.859647
1927,567,3.29483,-0.0271618,0.280465,0.859236
1930,564,3.29736,-0.0210484,0.278307,0.858592
1933,561,3.29633,-0.022198,0.278891,0.857896
1936,558,3.29637,-0.0206497,0.278311,0.857586
1939,555,3.29536,-0.0216999,0.278897,0.856921
1942,552,3.29519,-0.0225424,0.278899,0.856616
1945,549,3.29702,-0.016661,0.277326,0.855608
1948,546,3.29684,-0.0173858,0.277325,0.855347
1951,543,3.29547,-0.0277649,0.277905,0.854662
1954,540,3.29517,-0.0287148,0.277904,0.854283
1957,537,3.29716,-0.0228039,0.276325,0.853272
1960,534,3.29638,-0.0259943,0.276907,0.852975
1963,531,3.29632,-0.0244804,0.276319,0.852633
1966,528,3.29573,-0.0231444,0.27632,0.851961
1969,525,3.2954,-0.0241205,0.276319,0.851595
1972,522,3.29468,-0.0226816,0.276322,0.850974
1975,519,3.29704,-0.0190592,0.27473,0.85023
1978,516,3.29636,-0.0176739,0.274736,0.849594
1981,513,3.29605,-0.0185872,0.274732,0.849247
1984,510,3.29552,-0.0287279,0.274728,0.848932
1987,507,3.29422,-0.0298451,0.275305,0.848228
1990,504,3.29602,-0.0263152,0.274465,0.847231
1993,501,3.29599,-0.0247667,0.273727,0.845419
1996,498,3.29613,-0.0232685,0.273811,0.846557
1999,495,3.29501,-0.0243406,0.273722,0.84588
2002,492,3.29463,-0.0251619,0.273722,0.845572
2005,489,3.29629,-0.0216902,0.272724,0.844546
2008,486,3.29675,-0.0177176,0.271566,0.844207
2011,483,3.29552,-0.0210888,0.272723,0.843608
2014,480,3.2954,-0.0196639,0.272144,0.843474
2017,477,3.29704,-0.0169036,0.271144,0.84193
2020,474,3.29645,-0.0271512,0.2712,0.841639
2023,471,3.29565,-0.0258261,0.271141,0.840937
2026,468,3.29551,-0.0267334,0.271138,0.840602
2029,465,3.29419,-0.0277688,0.271714,0.839931
2032,462,3.29664,-0.0240224,0.270132,0.839279
2035,459,3.29596,-0.0227178,0.270614,0.838587
2038,456,3.2959,-0.0211325,0.269552,0.838258
2041,453,3.29484,-0.0222379,0.270131,0.837596
2044,450,3.29711,-0.0184529,0.268551,0.83694
2047,447,3.29644,-0.0178614,0.268706,0.835997
2050,444,3.29517,-0.0284118,0.269132,0.833863
2053,441,3.29527,-0.0198573,0.269131,0.834991
2056,438,3.29432,-0.0293372,0.269124,0.834993
2059,435,3.29645,-0.0240789,0.267545,0.833704
2062,432,3.29596,-0.0251707,0.267543,0.833307
2065,429,3.29545,-0.0236555,0.267537,0.832664
2068,426,3.29504,-0.0247083,0.267535,0.832283
2071,423,3.2943,-0.0232228,0.267686,0.831642
2074,420,3.2962,-0.0218551,0.26652,0.830991
2077,417,3.29558,-0.0205509,0.266516,0.830281
2080,414,3.29538,-0.0189433,0.265936,0.829946
2083,411,3.29515,-0.0199754,0.265938,0.829589
2086,408,3.29649,-0.0257172,0.264927,0.828671
2089,405,3.29553,-0.0278193,0.265511,0.827663
2092,402,3.29507,-0.0285469,0.265506,0.827635
2095,399,3.29461,-0.0246928,0.264934,0.826703
2098,396,3.29431,-0.0257046,0.264935,0.826347
2101,393,3.29591,-0.0220426,0.263919,0.825352
2104,390,3.29567,-0.0228775,0.263916,0.82505
2107,387,3.29543,-0.0214047,0.263341,0.824684
2110,384,3.29484,-0.0200219,0.263339,0.823997
2113,381,3.29727,-0.0162923,0.261751,0.82329
2116,378,3.2959,-0.0277977,0.262322,0.822354
2119,375,3.29528,-0.0192206,0.262897,0.821707
2122,372,3.29438,-0.0296385,0.262906,0.821489
2125,369,3.2966,-0.0234979,0.261322,0.820491
2128,366,3.29617,-0.0245291,0.261321,0.820138
2131,363,3.29539,-0.0229882,0.261316,0.819483
2134,360,3.29462,-0.0263935,0.261877,0.819152
2137,357,3.29433,-0.0234208,0.2613,0.81811
2140,354,3.2961,-0.0198484,0.260275,0.81704
2143,351,3.29619,-0.0182937,0.259701,0.81669
2146,348,3.29583,-0.0191919,0.259698,0.816369
2149,345,3.29435,-0.0203163,0.26027,0.815693
2152,342,3.2937,-0.0307905,0.260268,0.815429
2155,339,3.29561,-0.0247387,0.258671,0.814158
2158,336,3.29522,-0.0281247,0.25924,0.814071
2161,333,3.29436,-0.0268021,0.259241,0.81336
2164,330,3.29324,-0.028637,0.259816,0.812472
2167,327,3.29557,-0.0247084,0.258678,0.811805
2170,324,3.29561,-0.0232156,0.257639,0.811424
2173,321,3.29481,-0.0217196,0.257642,0.810787
2176,318,3.29441,-0.0227653,0.257638,0.810419
2179,315,3.29654,-0.0164439,0.256037,0.809401
2182,312,3.29567,-0.0198646,0.256606,0.809108
2185,309,3.29478,-0.0291693,0.256649,0.808116
2188,306,3.29365,-0.0303034,0.257176,0.807461
2191,303,3.29327,-0.0313342,0.257174,0.807098
2194,300,3.29605,-0.0248159,0.254998,0.806417
2197,297,3.29476,-0.0259846,0.255564,0.805734
2200,294,3.29445,-0.0267922,0.255711,0.805477
2203,291,3.29392,-0.0238736,0.254994,0.804402
2206,288,3.29599,-0.0175407,0.253394,0.803389
2209,285,3.29535,-0.0210597,0.25397,0.803113
2212,282,3.29462,-0.01951,0.253959,0.802447
2215,279,3.29398,-0.0204343,0.253957,0.802128
2218,276,3.29578,-0.0167649,0.252918,0.801065
2221,273,3.29562,-0.0259545,0.252348,0.800412
2224,270,3.29434,-0.0272348,0.252913,0.799692
2227,267,3.29439,-0.0255768,0.252342,0.79935
2230,264,3.29305,-0.026729,0.252912,0.798686
2233,261,3.29558,-0.0226517,0.251314,0.79812
2236,258,3.29452,-0.0247049,0.251891,0.797169
2239,255,3.2936,-0.0232282,0.251891,0.796499
2242,252,3.29647,-0.016663,0.249714,0.795819
2245,249,3.29538,-0.0178722,0.250276,0.79511
2248,246,3.29475,-0.028617,0.250269,0.794858
2251,243,3.29347,-0.0307661,0.250828,0.793829
2254,240,3.29338,-0.0291753,0.250256,0.793453
2257,237,3.29509,-0.0253809,0.249209,0.792423
2260,234,3.29493,-0.0238004,0.248677,0.792055
2263,231,3.29396,-0.0249553,0.249204,0.791381
2266,228,3.29344,-0.0259714,0.249203,0.791041
2269,225,3.29603,-0.0178829,0.247025,0.789663
2272,222,3.29427,-0.0215035,0.248164,0.789108
2275,219,3.29401,-0.0224384,0.248173,0.788842
2278,216,3.29384,-0.0208616,0.247605,0.78848
2281,213,3.29541,-0.0279685,0.246558,0.787207
2284,210,3.29438,-0.0291079,0.247122,0.786546
2287,207,3.29425,-0.0274377,0.246552,0.786192
2290,204,3.293,-0.0285785,0.247117,0.785528
2293,201,3.29537,-0.0246128,0.245493,0.78483
2296,198,3.29462,-0.0230918,0.24613,0.78413
2299,195,3.29458,-0.0223432,0.244913,0.78347
2302,192,3.29349,-0.0236327,0.245476,0.78275
2305,189,3.29304,-0.0245366,0.245476,0.782457
2308,186,3.29517,-0.0180819,0.243858,0.781415
2311,183,3.29478,-0.018983,0.244511,0.781158
2314,180,3.29348,-0.0210901,0.244438,0.780198
2317,177,3.29191,-0.0323834,0.245002,0.779574
2320,174,3.29481,-0.0180325,0.243375,0.778901
2323,171,3.29383,-0.0268,0.243375,0.778224
2326,168,3.29309,-0.0304674,0.243938,0.77791
2329,165,3.29307,-0.0287532,0.243506,0.777589
2332,162,3.29487,-0.0248757,0.242309,0.776558
2335,159,3.29406,-0.0243242,0.242309,0.77574
2338,156,3.29297,-0.0255694,0.242873,0.774858
2341,153,3.29217,-0.0290237,0.24344,0.774635
2344,150,3.29232,-0.0247775,0.242299,0.774216
2347,147,3.29406,-0.0208746,0.241224,0.773161
2350,144,3.29418,-0.0192476,0.240656,0.772742
2353,141,3.29249,-0.0317674,0.241216,0.771792
2356,138,3.2922,-0.0299825,0.240683,0.771511
2359,135,3.2939,-0.0260696,0.239585,0.770475
2362,132,3.29334,-0.0256731,0.239597,0.769466
2365,129,3.29273,-0.0266064,0.239009,0.769157
2368,126,3.29228,-0.0224445,0.239016,0.768623
2371,123,3.29474,-0.0183768,0.237394,0.767727
2374,120,3.29399,-0.0296508,0.237387,0.767432
2377,117,3.29326,-0.0204916,0.238381,0.766748
2380,114,3.29206,-0.0303845,0.237941,0.765722
2383,111,3.29457,-0.0262305,0.236308,0.765053
2386,108,3.2936,-0.0247806,0.236307,0.764325
2389,105,3.29292,-0.0284276,0.236865,0.764069
2392,102,3.2917,-0.0296964,0.237422,0.763372
2395,99,3.29455,-0.0227067,0.235227,0.762722
2398,96,3.29381,-0.0221166,0.235251,0.761752
2401,93,3.29342,-0.0231607,0.235235,0.761446
2404,90,3.2925,-0.0216871,0.235224,0.760705
2407,87,3.29479,-0.0278582,0.233609,0.760099
2410,84,3.29353,-0.0300915,0.234144,0.759104
2413,81,3.29231,-0.0312158,0.234701,0.758452
2416,78,3.29161,-0.0324396,0.2347,0.757902
2419,75,3.29397,-0.0255579,0.233056,0.757056
2422,72,3.29339,-0.0266547,0.233055,0.756718
2425,69,3.29305,-0.023299,0.232496,0.755929
2428,66,3.29248,-0.0245299,0.232495,0.75531
2431,63,3.29143,-0.0255514,0.23305,0.754708
2434,60,3.29405,-0.0214202,0.231409,0.75402
2437,57,3.29337,-0.0207351,0.231415,0.753087
2440,54,3.29146,-0.0326059,0.231971,0.752426
2443,51,3.29091,-0.0335396,0.232603,0.752143
2446,48,3.29274,-0.0294992,0.230885,0.751131
2449,45,3.29242,-0.0305566,0.230882,0.750802
2452,42,3.29181,-0.027311,0.23044,0.74971
2455,39,3.29131,-0.0282731,0.230314,0.749416
2458,36,3.29344,-0.0215215,0.228666,0.748333
2461,33,3.29283,-0.0252865,0.229222,0.748079
2464,30,3.29197,-0.0237194,0.229219,0.747376
2467,27,3.29163,-0.0220093,0.228658,0.746993
2470,24,3.29327,-0.0296268,0.227564,0.745686
2473,21,3.29265,-0.0306394,0.227562,0.745363
2476,18,3.29148,-0.0319677,0.228114,0.744661
2479,15,3.29115,-0.0221431,0.228112,0.744378
2482,12,3.29321,-0.026064,0.226461,0.743328
2485,9,3.29198,-0.0282153,0.227015,0.742387
2488,6,3.29186,-0.0265279,0.226462,0.742028
2491,3,3.29052,-0.0277095,0.227014,0.741375