File: hust_correlation_analysis/matrices/HUST_10-6_cycle_feature_matrix.csv
cycle_number,rul,voltage,current,capacity,charge_capacity
1,2287,3.32202,-0.00701957,0.282302,1.0664
4,2284,3.30973,-0.00838434,0.287231,1.06038
7,2281,3.30994,-0.00943469,0.287227,1.05973
10,2278,3.30929,-0.0105998,0.287593,1.05884
13,2275,3.31075,-0.00836598,0.286361,1.05825
16,2272,3.31039,-0.00951466,0.286727,1.05737
19,2269,3.31017,-0.010169,0.286729,1.05698
22,2266,3.3098,-0.0106987,0.286732,1.05666
25,2263,3.3098,-0.0113211,0.286723,1.05627
28,2260,3.30949,-0.0113331,0.286709,1.05648
31,2257,3.31113,-0.00905367,0.285474,1.05563
34,2254,3.311,-0.00911365,0.28547,1.05559
37,2251,3.31035,-0.00974654,0.286117,1.05501
40,2248,3.31068,-0.010294,0.285828,1.05465
43,2245,3.31037,-0.0104234,0.286109,1.05457
46,2242,3.30969,-0.0109252,0.286193,1.05406
49,2239,3.3098,-0.0114985,0.286192,1.05372
52,2236,3.30959,-0.0115217,0.286192,1.05371
55,2233,3.31142,-0.00922932,0.284959,1.05315
58,2230,3.31131,-0.00923055,0.284957,1.05341
61,2227,3.31122,-0.00977588,0.284956,1.05281
64,2224,3.31139,-0.0103401,0.284952,1.05245
67,2221,3.31095,-0.0103384,0.28496,1.05248
70,2218,3.31084,-0.0109307,0.284968,1.05216
73,2215,3.31108,-0.0114576,0.284966,1.05184
76,2212,3.3107,-0.0114464,0.284964,1.05183
79,2209,3.31201,-0.0092111,0.284275,1.05106
82,2206,3.31178,-0.00921745,0.284099,1.05105
85,2203,3.31197,-0.00976573,0.284094,1.0507
88,2200,3.31176,-0.00988668,0.284098,1.04929
91,2197,3.31173,-0.0103374,0.284107,1.05041
94,2194,3.31177,-0.01083,0.28411,1.05013
97,2191,3.31161,-0.010886,0.284109,1.05009
100,2188,3.31139,-0.0108812,0.284107,1.05035
103,2185,3.3113,-0.011445,0.284103,1.04973
106,2182,3.31109,-0.0114999,0.284101,1.0497
109,2179,3.31263,-0.00865924,0.28287,1.04946
112,2176,3.31205,-0.00924454,0.283444,1.04896
115,2173,3.31214,-0.0098161,0.283249,1.04863
118,2170,3.31212,-0.00980585,0.283245,1.04862
121,2167,3.31195,-0.00977805,0.283241,1.04862
124,2164,3.31197,-0.0103894,0.283242,1.04825
127,2161,3.31171,-0.0103911,0.283241,1.04825
130,2158,3.31156,-0.0110022,0.28361,1.0477
133,2155,3.3117,-0.0109237,0.283244,1.04795
136,2152,3.31117,-0.0115722,0.283621,1.04741
139,2149,3.31091,-0.011495,0.283621,1.04745
142,2146,3.31298,-0.00857766,0.282018,1.04744
145,2143,3.31251,-0.0092418,0.282389,1.04685
148,2140,3.31238,-0.00925584,0.282385,1.04684
151,2137,3.31269,-0.00925381,0.282384,1.04685
154,2134,3.3125,-0.00978901,0.282386,1.04652
157,2131,3.31244,-0.00978898,0.282393,1.04654
160,2128,3.31236,-0.0103623,0.282764,1.04603
163,2125,3.31246,-0.0103003,0.282309,1.04624
166,2122,3.312,-0.0109521,0.282961,1.04567
169,2119,3.31202,-0.0109079,0.282763,1.04569
172,2116,3.31168,-0.0109753,0.282759,1.04565
175,2113,3.31142,-0.0110011,0.282754,1.04561
178,2110,3.31148,-0.0115662,0.282752,1.04526
181,2107,3.31125,-0.0115392,0.282757,1.04529
184,2104,3.31142,-0.0115928,0.28274,1.04521
187,2101,3.31273,-0.00872988,0.281519,1.04501
190,2098,3.31289,-0.00925194,0.281519,1.0447
193,2095,3.31286,-0.00925764,0.281519,1.0447
196,2092,3.31276,-0.0092701,0.281517,1.04469
199,2089,3.31271,-0.00983989,0.281519,1.04434
202,2086,3.31281,-0.00983469,0.28152,1.04437
205,2083,3.31274,-0.00995585,0.281521,1.04431
208,2080,3.31249,-0.0103854,0.28152,1.04403
211,2077,3.31236,-0.0103926,0.281517,1.04403
214,2074,3.31239,-0.0104221,0.281262,1.04399
217,2071,3.31227,-0.0104249,0.281597,1.04396
220,2068,3.31173,-0.0104916,0.281862,1.0437
223,2065,3.31222,-0.0104673,0.281847,1.04367
226,2062,3.31222,-0.0104646,0.282118,1.04363
229,2059,3.31164,-0.0108199,0.281848,1.04343
232,2056,3.31159,-0.0111886,0.281848,1.04321
235,2053,3.31155,-0.0112077,0.281846,1.04319
238,2050,3.31143,-0.011188,0.28184,1.0432
241,2047,3.31138,-0.0117251,0.281842,1.04287
244,2044,3.31132,-0.0117884,0.28184,1.04284
247,2041,3.3127,-0.00899602,0.280618,1.0426
250,2038,3.31305,-0.00938866,0.280458,1.04258
253,2035,3.31306,-0.00938156,0.280259,1.0426
256,2032,3.31308,-0.00993007,0.280258,1.04226
259,2029,3.31248,-0.0102382,0.280623,1.04188
262,2026,3.31282,-0.00994203,0.280252,1.04223
265,2023,3.31262,-0.00989028,0.280252,1.04226
268,2020,3.31227,-0.0106429,0.280623,1.04141
271,2017,3.31267,-0.0105442,0.280267,1.04192
274,2014,3.31267,-0.0110886,0.280268,1.04159
277,2011,3.31259,-0.0110584,0.280266,1.04162
280,2008,3.31248,-0.0111159,0.280261,1.04156
283,2005,3.31277,-0.0109871,0.27989,1.04181
286,2002,3.31284,-0.0110986,0.279887,1.04174
289,1999,3.3123,-0.0117319,0.280255,1.04117
292,1996,3.31386,-0.00882624,0.279034,1.04101
295,1993,3.31411,-0.00933262,0.279036,1.04072
298,1990,3.31407,-0.00936109,0.27904,1.04071
301,1987,3.31409,-0.00934257,0.279037,1.04072
304,1984,3.31397,-0.00984994,0.279033,1.04038
307,1981,3.31414,-0.00983927,0.27903,1.04039
310,1978,3.31395,-0.00990289,0.279028,1.04034
313,1975,3.31389,-0.0099786,0.279227,1.04021
316,1972,3.3138,-0.010497,0.279039,1.04004
319,1969,3.31346,-0.0111268,0.279412,1.03949
322,1966,3.31355,-0.010978,0.279041,1.03974
325,1963,3.31347,-0.0110223,0.279294,1.03971
328,1960,3.31339,-0.0110608,0.279035,1.03967
331,1957,3.31317,-0.0110895,0.279036,1.03966
334,1954,3.31282,-0.0116803,0.279401,1.03912
337,1951,3.31325,-0.0116401,0.279042,1.03935
340,1948,3.31509,-0.00874024,0.277814,1.03916
343,1945,3.31461,-0.00934681,0.278181,1.03861
346,1942,3.31437,-0.00936452,0.278181,1.0386
349,1939,3.31485,-0.00928837,0.277816,1.03882
352,1936,3.31474,-0.00985789,0.277814,1.03847
355,1933,3.31393,-0.00994109,0.27818,1.03825
358,1930,3.31435,-0.00987612,0.277815,1.03847
361,1927,3.31409,-0.0104807,0.278184,1.03794
364,1924,3.31393,-0.0104899,0.278186,1.03795
367,1921,3.31423,-0.0104445,0.277824,1.03792
370,1918,3.3138,-0.0110942,0.278184,1.03758
373,1915,3.31378,-0.0110813,0.278184,1.03759
376,1912,3.31415,-0.0109985,0.277813,1.03779
379,1909,3.31425,-0.0109956,0.27781,1.03778
382,1906,3.31423,-0.0115833,0.277818,1.03745
385,1903,3.31412,-0.011503,0.277823,1.03752
388,1900,3.31566,-0.00926546,0.276963,1.03675
391,1897,3.31553,-0.00929561,0.276969,1.03675
394,1894,3.31522,-0.0092159,0.276966,1.03679
397,1891,3.31565,-0.00918347,0.276853,1.03698
400,1888,3.31528,-0.00976038,0.27696,1.03643
403,1885,3.31514,-0.0098588,0.277047,1.03637
406,1882,3.31503,-0.00982307,0.276965,1.03642
409,1879,3.31501,-0.0104488,0.277224,1.03605
412,1876,3.31493,-0.0103779,0.276969,1.03611
415,1873,3.31475,-0.01044,0.27696,1.03604
418,1870,3.31505,-0.0103933,0.276845,1.03599
421,1867,3.31517,-0.0104081,0.276587,1.03621
424,1864,3.31463,-0.0110811,0.276949,1.03561
427,1861,3.31442,-0.0110835,0.276948,1.03561
430,1858,3.31489,-0.010996,0.276583,1.03583
433,1855,3.314,-0.0117586,0.277314,1.03501
436,1852,3.31421,-0.0116309,0.276945,1.03526
439,1849,3.31411,-0.0116185,0.276945,1.03527
442,1846,3.31398,-0.0116402,0.276943,1.03524
445,1843,3.31577,-0.00931042,0.275711,1.03467
448,1840,3.31566,-0.00934788,0.275708,1.03463
451,1837,3.31564,-0.0093725,0.275716,1.03465
454,1834,3.31569,-0.00986988,0.275722,1.03438
457,1831,3.31553,-0.00988606,0.275721,1.03437
460,1828,3.31588,-0.00987356,0.275354,1.03454
463,1825,3.31553,-0.0105459,0.275518,1.03395
466,1822,3.31529,-0.0105335,0.275711,1.03394
469,1819,3.3152,-0.0105434,0.275715,1.03395
472,1816,3.3155,-0.0111101,0.27572,1.03363
475,1813,3.31537,-0.0110748,0.275726,1.03368
478,1810,3.31579,-0.0109667,0.275364,1.03393
481,1807,3.31537,-0.0115964,0.275727,1.03336
484,1804,3.31517,-0.0116128,0.275974,1.03333
487,1801,3.31501,-0.0116171,0.275711,1.03329
490,1798,3.31478,-0.0116628,0.27596,1.03325
493,1795,3.3163,-0.00884639,0.274478,1.03299
496,1792,3.31608,-0.00940773,0.274491,1.03267
499,1789,3.31625,-0.00989669,0.274689,1.03241
502,1786,3.31624,-0.00987868,0.274499,1.03243
505,1783,3.31623,-0.00995038,0.27449,1.03237
508,1780,3.31631,-0.00990301,0.274489,1.03239
511,1777,3.31655,-0.0104689,0.274488,1.03202
514,1774,3.3164,-0.0104639,0.274486,1.03203
517,1771,3.31627,-0.0105035,0.27449,1.03203
520,1768,3.31584,-0.0110586,0.274863,1.03155
523,1765,3.31564,-0.0110492,0.274864,1.03155
526,1762,3.31528,-0.0117802,0.275227,1.03119
529,1759,3.31545,-0.0116707,0.274863,1.03118
532,1756,3.31573,-0.0115831,0.2745,1.0314
535,1753,3.31741,-0.00934218,0.273631,1.03062
538,1750,3.31786,-0.00922799,0.273271,1.03086
541,1747,3.31728,-0.00925483,0.273634,1.03067
544,1744,3.31743,-0.00984041,0.273634,1.03032
547,1741,3.31723,-0.00981608,0.273634,1.03032
550,1738,3.31732,-0.00975919,0.273272,1.03054
553,1735,3.31696,-0.0103845,0.273632,1.02997
556,1732,3.31667,-0.0104557,0.273633,1.02993
559,1729,3.31648,-0.0104519,0.273636,1.02995
562,1726,3.31662,-0.0110578,0.273633,1.02957
565,1723,3.31647,-0.0110624,0.273633,1.02957
568,1720,3.31682,-0.0110117,0.273273,1.02978
571,1717,3.31631,-0.0110599,0.273693,1.02956
574,1714,3.31629,-0.0116351,0.273629,1.02921
577,1711,3.31616,-0.0116427,0.273627,1.0292
580,1708,3.31601,-0.0116395,0.273623,1.0292
583,1705,3.31772,-0.00936316,0.272395,1.02859
586,1702,3.31774,-0.00932082,0.272398,1.02861
589,1699,3.31752,-0.00932357,0.272398,1.02861
592,1696,3.31717,-0.00996312,0.272758,1.02806
595,1693,3.31761,-0.00991791,0.272397,1.02826
598,1690,3.31737,-0.0101826,0.272482,1.02808
601,1687,3.31741,-0.0105568,0.272392,1.02785
604,1684,3.31745,-0.010468,0.272391,1.02791
607,1681,3.31729,-0.0104987,0.27239,1.02788
610,1678,3.31743,-0.0111439,0.272754,1.02732
613,1675,3.31689,-0.0111642,0.27276,1.02732
616,1672,3.31709,-0.0110667,0.272396,1.02756
619,1669,3.31658,-0.0117134,0.27276,1.02699
622,1666,3.31653,-0.0116686,0.272761,1.02702
625,1663,3.31851,-0.00931308,0.271811,1.02647
628,1660,3.31872,-0.00923419,0.271169,1.02669
631,1657,3.31858,-0.00922403,0.271121,1.0267
634,1654,3.31828,-0.00987973,0.271534,1.02613
637,1651,3.31797,-0.00993036,0.271536,1.0261
640,1648,3.31747,-0.010588,0.271896,1.02553
643,1645,3.31755,-0.0105477,0.271534,1.02572
646,1642,3.31805,-0.0104111,0.271174,1.02576
649,1639,3.31789,-0.0110126,0.271535,1.02545
652,1636,3.31786,-0.010992,0.271532,1.02546
655,1633,3.31757,-0.0110363,0.271517,1.02537
658,1630,3.31751,-0.0110329,0.271515,1.02537
661,1627,3.31675,-0.0112009,0.271877,1.02509
664,1624,3.3167,-0.0118268,0.271885,1.02474
667,1621,3.31903,-0.00882716,0.270299,1.02477
670,1618,3.319,-0.00932738,0.270298,1.02445
673,1615,3.31933,-0.00924055,0.269937,1.02467
676,1612,3.319,-0.00988194,0.270295,1.02409
679,1609,3.31838,-0.0100651,0.270645,1.02378
682,1606,3.31805,-0.0100115,0.270652,1.02384
685,1603,3.31812,-0.010546,0.270654,1.02351
688,1600,3.31812,-0.010606,0.27066,1.0235
691,1597,3.31826,-0.011098,0.270659,1.0232
694,1594,3.31849,-0.0110226,0.270299,1.02342
697,1591,3.3185,-0.0109985,0.270299,1.02343
700,1588,3.31813,-0.0116836,0.270413,1.02309
703,1585,3.31712,-0.011861,0.271264,1.02252
706,1582,3.31735,-0.0117177,0.270652,1.02279
709,1579,3.3196,-0.00885963,0.269067,1.02271
712,1576,3.31941,-0.00938255,0.269429,1.02225
715,1573,3.31929,-0.00934432,0.269421,1.02088
718,1570,3.31887,-0.0100088,0.269776,1.02164
721,1567,3.3186,-0.0100565,0.269776,1.02161
724,1564,3.31822,-0.0100611,0.269772,1.02159
727,1561,3.31826,-0.0106551,0.269781,1.02127
730,1558,3.31889,-0.0105001,0.269427,1.02156
733,1555,3.319,-0.0110647,0.269429,1.02121
736,1552,3.31888,-0.0111133,0.269428,1.02118
739,1549,3.31862,-0.0111299,0.269425,1.02115
742,1546,3.31756,-0.0118329,0.270139,1.02037
745,1543,3.31761,-0.0118339,0.269784,1.02054
748,1540,3.31969,-0.0094912,0.268559,1.01999
751,1537,3.31991,-0.00939207,0.268561,1.02006
754,1534,3.31955,-0.00996211,0.269201,1.01955
757,1531,3.31909,-0.00999871,0.269204,1.01954
760,1528,3.31895,-0.0100361,0.268923,1.01952
763,1525,3.31874,-0.0105786,0.268921,1.01916
766,1522,3.31886,-0.0106299,0.268923,1.01914
769,1519,3.31897,-0.0105619,0.268793,1.01919
772,1516,3.31912,-0.0111201,0.268928,1.01911
775,1513,3.31871,-0.0111877,0.268928,1.01881
778,1510,3.31805,-0.0117996,0.269285,1.01827
781,1507,3.31811,-0.0118122,0.269286,1.01826
784,1504,3.3184,-0.0117164,0.268923,1.01826
787,1501,3.32016,-0.00938723,0.267692,1.01788
790,1498,3.32031,-0.00933786,0.267695,1.01793
793,1495,3.31985,-0.00997148,0.268047,1.01733
796,1492,3.31947,-0.0100315,0.268046,1.0173
799,1489,3.31932,-0.0100377,0.268052,1.01731
802,1486,3.31949,-0.0105773,0.268042,1.01695
805,1483,3.31954,-0.01057,0.26805,1.01698
808,1480,3.31932,-0.0106364,0.268044,1.01692
811,1477,3.31891,-0.0112283,0.268039,1.01655
814,1474,3.3186,-0.0112663,0.268036,1.01651
817,1471,3.31877,-0.0111772,0.268029,1.01653
820,1468,3.31881,-0.0118397,0.268036,1.01614
823,1465,3.31818,-0.0119019,0.268587,1.01595
826,1462,3.32004,-0.00947976,0.267173,1.01543
829,1459,3.32027,-0.00942376,0.266811,1.01563
832,1456,3.31977,-0.00954346,0.267166,1.01539
835,1453,3.31961,-0.010066,0.267165,1.01505
838,1450,3.31951,-0.0101019,0.267164,1.01503
841,1447,3.31971,-0.0106653,0.267171,1.0147
844,1444,3.31994,-0.0106801,0.267187,1.01475
847,1441,3.31964,-0.0111303,0.267176,1.01444
850,1438,3.31904,-0.0112498,0.267534,1.01419
853,1435,3.31895,-0.0118315,0.267534,1.01383
856,1432,3.31873,-0.0118962,0.26753,1.01378
859,1429,3.31899,-0.0118278,0.267167,1.01397
862,1426,3.32059,-0.00946617,0.266037,1.01321
865,1423,3.32031,-0.00954683,0.266298,1.01318
868,1420,3.31969,-0.0101235,0.266661,1.01267
871,1417,3.31946,-0.0101696,0.266658,1.01264
874,1414,3.32053,-0.0100245,0.265941,1.01308
877,1411,3.32034,-0.0106023,0.266299,1.01255
880,1408,3.31939,-0.0106855,0.26674,1.01233
883,1405,3.31924,-0.0107248,0.266659,1.0123
886,1402,3.31928,-0.0113139,0.266649,1.01191
889,1399,3.31949,-0.0112874,0.266657,1.01196
892,1396,3.31875,-0.0118877,0.267015,1.01167
895,1393,3.31836,-0.01205,0.267018,1.01132
898,1390,3.32032,-0.00961388,0.265791,1.0108
901,1387,3.3207,-0.00947156,0.265428,1.01105
904,1384,3.32072,-0.00947562,0.265429,1.01106
907,1381,3.32024,-0.0100441,0.265788,1.01053
910,1378,3.32001,-0.0100779,0.26579,1.01052
913,1375,3.31993,-0.0107239,0.265791,1.01012
916,1372,3.32005,-0.0106807,0.265793,1.01017
919,1369,3.32008,-0.0111479,0.26579,1.00986
922,1366,3.31934,-0.0112974,0.26615,1.00959
925,1363,3.31947,-0.0113846,0.265784,1.00971
928,1360,3.31899,-0.0119207,0.266147,1.00921
931,1357,3.31941,-0.0118885,0.265784,1.00939
934,1354,3.32096,-0.00957347,0.264923,1.00865
937,1351,3.32093,-0.0101268,0.264927,1.00832
940,1348,3.32074,-0.0100533,0.264924,1.00835
943,1345,3.32057,-0.00999912,0.264919,1.00838
946,1342,3.32011,-0.0101294,0.264913,1.00826
949,1339,3.32018,-0.0107713,0.264913,1.00787
952,1336,3.31998,-0.0106851,0.264907,1.00792
955,1333,3.31966,-0.0113939,0.265266,1.0073
958,1330,3.31924,-0.0115064,0.26527,1.00724
961,1327,3.31995,-0.0113296,0.264909,1.00752
964,1324,3.31961,-0.0119492,0.265267,1.00697
967,1321,3.31907,-0.0119686,0.265264,1.00695
970,1318,3.32012,-0.0096528,0.264608,1.00614
973,1315,3.32064,-0.009597,0.264027,1.00634
976,1312,3.32077,-0.00959443,0.26427,1.00634
979,1309,3.3202,-0.0103503,0.264124,1.00571
982,1306,3.32044,-0.010232,0.264035,1.00598
985,1303,3.32026,-0.010807,0.264399,1.00548
988,1300,3.32055,-0.0106789,0.264037,1.00561
991,1297,3.31938,-0.011477,0.264753,1.00488
994,1294,3.31976,-0.0113972,0.264392,1.00509
997,1291,3.31919,-0.0120271,0.264749,1.00452
1000,1288,3.31909,-0.0121466,0.264831,1.00446
1003,1285,3.31964,-0.012021,0.264635,1.00336
1006,1282,3.32158,-0.00950901,0.263165,1.00423
1009,1279,3.32049,-0.0102015,0.263884,1.00347
1012,1276,3.32014,-0.0102428,0.263883,1.00369
1015,1273,3.32062,-0.0101552,0.263519,1.00365
1018,1270,3.32,-0.0108128,0.26388,1.00308
1021,1267,3.31979,-0.0109532,0.263879,1.00298
1024,1264,3.31975,-0.0115045,0.264062,1.00265
1027,1261,3.32025,-0.0113723,0.263514,1.00288
1030,1258,3.31937,-0.0120994,0.264239,1.00212
1033,1255,3.31943,-0.0120774,0.263876,1.00229
1036,1252,3.32068,-0.00966864,0.263004,1.00155
1039,1249,3.32086,-0.00967646,0.262642,1.00171
1042,1246,3.32078,-0.0102799,0.263001,1.00117
1045,1243,3.32107,-0.0101232,0.262641,1.00144
1048,1240,3.32,-0.0108855,0.263362,1.00064
1051,1237,3.32014,-0.0109174,0.263003,1.00079
1054,1234,3.31994,-0.0115465,0.26337,1.00025
1057,1231,3.31971,-0.0120145,0.263548,0.999961
1060,1228,3.31887,-0.0122231,0.263727,0.999667
1063,1225,3.32181,-0.00899673,0.261764,0.999908
1066,1222,3.32139,-0.00961651,0.262125,0.999362
1069,1219,3.32044,-0.0103069,0.262487,0.998768
1072,1216,3.32052,-0.0103193,0.262486,0.998749
1075,1213,3.32043,-0.0108779,0.262488,0.99843
1078,1210,3.3202,-0.0109345,0.262491,0.998398
1081,1207,3.32073,-0.0107903,0.262131,0.998667
1084,1204,3.32001,-0.0114126,0.262492,0.998115
1087,1201,3.31993,-0.0115025,0.262489,0.998064
1090,1198,3.31986,-0.0120895,0.262852,0.997531
1093,1195,3.31922,-0.0120437,0.26285,0.997546
1096,1192,3.32093,-0.00976527,0.261612,0.996883
1099,1189,3.32122,-0.00968518,0.261615,0.99695
1102,1186,3.32039,-0.0103677,0.261977,0.996361
1105,1183,3.32031,-0.0109615,0.261979,0.996015
1108,1180,3.32029,-0.0109099,0.262259,0.996043
1111,1177,3.3206,-0.010884,0.261617,0.99623
1114,1174,3.32014,-0.0114874,0.261977,0.995689
1117,1171,3.31947,-0.0121679,0.262336,0.995091
1120,1168,3.31941,-0.01215,0.261973,0.995263
1123,1165,3.32124,-0.00965596,0.261094,0.994555
1126,1162,3.3205,-0.00976392,0.261091,0.994474
1129,1159,3.32027,-0.0104618,0.261455,0.993886
1132,1156,3.32059,-0.0103227,0.261167,0.994127
1135,1153,3.32005,-0.0110955,0.26145,0.993483
1138,1150,3.31983,-0.0110212,0.261444,0.993505
1141,1147,3.31901,-0.0117197,0.26181,0.992917
1144,1144,3.31973,-0.0117586,0.261445,0.993071
1147,1141,3.31967,-0.01221,0.261453,0.99281
1150,1138,3.3207,-0.00925453,0.260759,0.992395
1153,1135,3.32087,-0.00975287,0.260584,0.992109
1156,1132,3.32033,-0.0104394,0.260942,0.991505
1159,1129,3.32035,-0.0105148,0.260573,0.991866
1162,1126,3.32037,-0.0109812,0.26057,0.991318
1165,1123,3.32012,-0.0110491,0.260564,0.991257
1168,1120,3.31977,-0.0116586,0.260921,0.990688
1171,1117,3.31858,-0.0118591,0.261288,0.990409
1174,1114,3.31921,-0.0123191,0.260928,0.990321
1177,1111,3.32098,-0.00920978,0.259688,0.990149
1180,1108,3.32041,-0.00992236,0.260054,0.989551
1183,1105,3.32027,-0.0104895,0.260044,0.989176
1186,1102,3.32005,-0.0105241,0.260047,0.989166
1189,1099,3.32016,-0.0110853,0.260045,0.988817
1192,1096,3.31928,-0.0112122,0.260406,0.98856
1195,1093,3.319525,-0.0117949,0.260587,0.988218
1198,1090,3.31899,-0.011798,0.260413,0.988232
1201,1087,3.31907,-0.0123388,0.260415,0.987914
1204,1084,3.32042,-0.00993358,0.259536,0.987139
1207,1081,3.32087,-0.00989525,0.259172,0.987319
1210,1078,3.31996,-0.0104394,0.259532,0.986807
1213,1075,3.31969,-0.0106012,0.259531,0.986717
1216,1072,3.32001,-0.0111514,0.259534,0.986392
1219,1069,3.31943,-0.0117793,0.259904,0.985864
1222,1066,3.31922,-0.0117649,0.259904,0.985881
1225,1063,3.31857,-0.012443,0.26028,0.985331
1228,1060,3.3206,-0.00989941,0.259024,0.984769
1231,1057,3.31974,-0.0100234,0.259393,0.984533
1234,1054,3.32026,-0.0104449,0.259023,0.98443
1237,1051,3.31918,-0.011187,0.25976,0.983655
1240,1048,3.31939,-0.0112108,0.259394,0.983811
1243,1045,3.31907,-0.0117891,0.259759,0.983301
1246,1042,3.31907,-0.012434,0.259766,0.982928
1249,1039,3.32021,-0.00992295,0.25889,0.982215
1252,1036,3.32021,-0.00999338,0.258521,0.982331
1255,1033,3.31987,-0.0105039,0.258887,0.981861
1258,1030,3.31919,-0.0112304,0.259257,0.981259
1261,1027,3.31935,-0.0111699,0.258886,0.981456
1264,1024,3.31892,-0.0118177,0.259248,0.980881
1267,1021,3.31884,-0.012401,0.259254,0.980316
1270,1018,3.31992,-0.00942172,0.258378,0.980101
1273,1015,3.32047,-0.0098585,0.258011,0.980019
1276,1012,3.31961,-0.0105785,0.258379,0.97942
1279,1009,3.31966,-0.0106417,0.258379,0.979648
1282,1006,3.31894,-0.0112639,0.258746,0.978844
1285,1003,3.31918,-0.0118173,0.258742,0.978504
1288,1000,3.31856,-0.0118382,0.258739,0.978471
1291,997,3.31838,-0.0125261,0.259115,0.977918
1294,994,3.31977,-0.00988185,0.257865,0.977427
1297,991,3.3193,-0.0107415,0.258249,0.976805
1300,988,3.31943,-0.0110791,0.258223,0.976513
1303,985,3.31861,-0.0113143,0.258218,0.976348
1306,982,3.31854,-0.0113238,0.258216,0.976333
1309,979,3.3185,-0.0119302,0.258213,0.975958
1312,976,3.3179,-0.0125318,0.25858,0.975419
1315,973,3.31894,-0.00958527,0.257697,0.974924
1318,970,3.31948,-0.0101109,0.2577,0.974624
1321,967,3.31824,-0.0107846,0.258077,0.974081
1324,964,3.3183,-0.0113658,0.258317,0.973724
1327,961,3.31799,-0.0114029,0.258067,0.973675
1330,958,3.31774,-0.0119974,0.258063,0.973299
1333,955,3.31663,-0.012782,0.258809,0.972509
1336,952,3.31724,-0.0127176,0.258437,0.972704
1339,949,3.31832,-0.0102266,0.257551,0.971929
1342,946,3.31834,-0.0108353,0.257552,0.971575
1345,943,3.31812,-0.0114618,0.257935,0.971079
1348,940,3.31767,-0.0121368,0.258233,0.970708
1351,937,3.31703,-0.0126511,0.258314,0.97022
1354,934,3.31868,-0.0102387,0.257047,0.969538
1357,931,3.31839,-0.0101838,0.257045,0.969555
1360,928,3.31822,-0.0108032,0.257287,0.969188
1363,925,3.31765,-0.0113821,0.25742,0.968694
1366,922,3.31678,-0.0122686,0.257583,0.968022
1369,919,3.31688,-0.0127109,0.257793,0.967729
1372,916,3.31776,-0.0103522,0.256902,0.966841
1375,913,3.31775,-0.0108366,0.256903,0.966561
1378,910,3.31743,-0.0108776,0.256899,0.966519
1381,907,3.3168,-0.0115567,0.257277,0.96595
1384,904,3.31678,-0.0116802,0.257274,0.965884
1387,901,3.3167,-0.0121995,0.257272,0.965565
1390,898,3.31577,-0.0129639,0.257647,0.964944
1393,895,3.3183,-0.00800055,0.255625,0.964799
1396,892,3.31698,-0.00886002,0.256655,0.963941
1399,889,3.31697,-0.00941555,0.256371,0.963622
1402,886,3.31666,-0.0100493,0.256665,0.963271
1405,883,3.31538,-0.0162239,0.256758,0.962035
1408,880,3.31507,-0.0179371,0.257137,0.962149
1411,877,3.31729,-0.0135505,0.25549,0.96176
1414,874,3.3163,-0.0143929,0.255867,0.960843
1417,871,3.31692,-0.0115995,0.255113,0.960246
1420,868,3.31581,-0.0140477,0.255871,0.959777
1423,865,3.31584,-0.0129131,0.255492,0.959327
1426,862,3.31782,-0.00869743,0.253852,0.958587
1429,859,3.31706,-0.00940547,0.254226,0.958005
1432,856,3.31695,-0.0100426,0.254222,0.957872
1435,853,3.31548,-0.0172355,0.254976,0.956917
1438,850,3.31576,-0.0179074,0.254599,0.956691
1441,847,3.31715,-0.0136081,0.253332,0.955807
1444,844,3.31692,-0.014287,0.253334,0.955429
1447,841,3.31618,-0.0133558,0.253334,0.954699
1450,838,3.31624,-0.0139098,0.253335,0.954389
1453,835,3.31536,-0.014679,0.25371,0.953774
1456,832,3.31744,-0.0103532,0.252068,0.953071
1459,829,3.31693,-0.00942631,0.252066,0.952323
1462,826,3.31667,-0.0100133,0.252064,0.951974
1465,823,3.31587,-0.0124709,0.25282,0.951777
1468,820,3.31542,-0.0178565,0.252437,0.951004
1471,817,3.31707,-0.00885583,0.251546,0.950231
1474,814,3.31674,-0.0141857,0.251161,0.949794
1477,811,3.31558,-0.0162376,0.251908,0.949804
1480,808,3.31548,-0.0151228,0.251533,0.949079
1483,805,3.31494,-0.0158162,0.251909,0.948519
1486,802,3.31461,-0.016459,0.251908,0.948152
1489,799,3.3162,-0.0121626,0.250807,0.947244
1492,796,3.31628,-0.0128142,0.250259,0.947024
1495,793,3.31542,-0.0119678,0.250616,0.946012
1498,790,3.31522,-0.0126137,0.250625,0.945672
1501,787,3.3165,-0.0082909,0.249365,0.944808
1504,784,3.31656,-0.00953436,0.249371,0.944127
1507,781,3.3155,-0.0168698,0.249743,0.943547
1510,778,3.31543,-0.0157625,0.249368,0.943057
1513,775,3.31501,-0.0165281,0.249738,0.942443
1516,772,3.31595,-0.0139548,0.248844,0.941659
1519,769,3.31646,-0.0144525,0.248465,0.941538
1522,766,3.31521,-0.0135523,0.248848,0.940634
1525,763,3.31509,-0.0142289,0.248849,0.940258
1528,760,3.31495,-0.0148138,0.24885,0.939933
1531,757,3.3164,-0.0105515,0.247578,0.938978
1534,754,3.31645,-0.00943317,0.247204,0.938503
1537,751,3.31518,-0.0119609,0.24795,0.938011
1540,748,3.31462,-0.0181707,0.247951,0.937004
1543,745,3.31599,-0.00904475,0.247056,0.936147
1546,742,3.31533,-0.0163232,0.247051,0.935786
1549,739,3.3156,-0.0152117,0.246684,0.935331
1552,736,3.31483,-0.0176425,0.24744,0.934952
1555,733,3.31646,-0.0121337,0.24586,0.933571
1558,730,3.31596,-0.0139234,0.246163,0.933669
1561,727,3.31507,-0.0146686,0.246533,0.933075
1564,724,3.31519,-0.0124768,0.246068,0.932068
1567,721,3.31456,-0.0132817,0.246153,0.931439
1570,718,3.31523,-0.0124035,0.245628,0.930788
1573,715,3.31554,-0.00960983,0.24488,0.930144
1576,712,3.31478,-0.0120773,0.245631,0.929719
1579,709,3.3138,-0.0177544,0.245628,0.929033
1582,706,3.31622,-0.0149255,0.244146,0.928693
1585,703,3.3152,-0.016408,0.24473,0.927547
1588,700,3.31418,-0.0172393,0.245267,0.926914
1591,697,3.3149,-0.0142891,0.243979,0.926493
1594,694,3.31321,-0.016935,0.2451,0.925793
1597,691,3.31593,-0.0123115,0.243076,0.925333
1600,688,3.3151,-0.0130676,0.243451,0.92476
1603,685,3.31489,-0.0137755,0.24368,0.924354
1606,682,3.31369,-0.0117634,0.243443,0.922909
1609,679,3.31607,-0.00892099,0.241799,0.922575
1612,676,3.31497,-0.0165219,0.242168,0.921935
1615,673,3.3143,-0.0104808,0.242542,0.921369
1618,670,3.31372,-0.016833,0.242537,0.920329
1621,667,3.31552,-0.00843692,0.241636,0.920242
1624,664,3.31454,-0.0149226,0.241635,0.919144
1627,661,3.3145,-0.0154854,0.241637,0.918836
1630,658,3.31382,-0.0145543,0.241866,0.918077
1633,655,3.31514,-0.0136272,0.240736,0.917626
1636,652,3.31472,-0.0114619,0.240422,0.916423
1639,649,3.31467,-0.0121242,0.24036,0.916064
1642,646,3.31375,-0.0128971,0.24073,0.915471
1645,643,3.31488,-0.0102713,0.239827,0.914661
1648,640,3.31426,-0.0166552,0.239828,0.91365
1651,637,3.3139,-0.0173108,0.240102,0.913285
1654,634,3.31316,-0.0181409,0.240202,0.912689
1657,631,3.31465,-0.0126,0.238554,0.911246
1660,628,3.31485,-0.0131947,0.238553,0.910926
1663,625,3.31372,-0.0157327,0.239528,0.910489
1666,622,3.31338,-0.0164285,0.239292,0.910095
1669,619,3.31478,-0.0102722,0.237644,0.908979
1672,616,3.31479,-0.0115078,0.237643,0.908311
1675,613,3.31409,-0.0105851,0.237643,0.907529
1678,610,3.3136,-0.0129859,0.238007,0.907317
1681,607,3.31478,-0.00861345,0.236731,0.906345
1684,604,3.3148,-0.0149164,0.236366,0.905576
1687,601,3.31385,-0.0157149,0.236734,0.905239
1690,598,3.31357,-0.0181239,0.237106,0.904801
1693,595,3.31423,-0.0144314,0.236199,0.903268
1696,592,3.3141,-0.013321,0.235829,0.902771
1699,589,3.314,-0.0139776,0.235828,0.90242
1702,586,3.31313,-0.0147635,0.236192,0.901813
1705,583,3.31433,-0.012803,0.235292,0.900533
1708,580,3.31465,-0.00986424,0.234557,0.900042
1711,577,3.31358,-0.0181338,0.234927,0.899174
1714,574,3.31359,-0.0188044,0.234926,0.898819
1717,571,3.31463,-0.0161936,0.234016,0.897974
1720,568,3.31382,-0.0169826,0.234382,0.897373
1723,565,3.313,-0.0159286,0.234379,0.896661
1726,562,3.31336,-0.0154204,0.23401,0.895827
1729,559,3.31434,-0.014488,0.233472,0.895208
1732,556,3.3141,-0.0133908,0.232843,0.894665
1735,553,3.31309,-0.0142702,0.233465,0.894028
1738,550,3.31269,-0.0120476,0.233096,0.892826
1741,547,3.31444,-0.0110346,0.232188,0.892676
1744,544,3.31407,-0.0169042,0.231817,0.891918
1747,541,3.31331,-0.0125568,0.232557,0.891455
1750,538,3.31242,-0.0191831,0.232555,0.890388
1753,535,3.31332,-0.0163883,0.231645,0.889636
1756,532,3.31323,-0.0170231,0.231641,0.889295
1759,529,3.31315,-0.0177318,0.231654,0.888918
1762,526,3.31262,-0.015593,0.231265,0.887637
1765,523,3.31394,-0.014741,0.230727,0.886991
1768,520,3.3132,-0.0125794,0.230356,0.885738
1771,517,3.31333,-0.0113844,0.22999,0.885274
1774,514,3.3129,-0.0120098,0.22999,0.884948
1777,511,3.31436,-0.00932736,0.229073,0.884112
1780,508,3.31391,-0.0100626,0.229073,0.883725
1783,505,3.31245,-0.018659,0.229805,0.882576
1786,502,3.31214,-0.0122946,0.229804,0.882199
1789,499,3.31384,-0.0153837,0.228529,0.88099
1792,496,3.31331,-0.0160556,0.228533,0.880659
1795,493,3.31339,-0.0149424,0.228166,0.88014
1798,490,3.31448,-0.013968,0.227616,0.879519
1801,487,3.31374,-0.0137308,0.22761,0.87834
1804,484,3.31302,-0.014492,0.228196,0.87777
1807,481,3.31228,-0.0133795,0.22797,0.877058
1810,478,3.31446,-0.0104477,0.226319,0.876684
1813,475,3.31368,-0.0172523,0.226316,0.875577
1816,472,3.31293,-0.0180429,0.226691,0.875041
1819,469,3.31293,-0.0115865,0.226692,0.874682
1822,466,3.3142,-0.00950762,0.225778,0.873539
1825,463,3.31325,-0.0156231,0.225927,0.87281
1828,460,3.31244,-0.0162892,0.226142,0.872292
1831,457,3.31305,-0.0150299,0.225406,0.871997
1834,454,3.31378,-0.013131,0.224853,0.870581
1837,451,3.31388,-0.0119439,0.224482,0.870072
1840,448,3.3131,-0.0145364,0.224993,0.869842
1843,445,3.31199,-0.0142639,0.225221,0.868377
1846,442,3.31377,-0.011362,0.223937,0.868005
1849,439,3.31275,-0.0181041,0.223935,0.866972
1852,436,3.31244,-0.0188144,0.223935,0.866623
1855,433,3.31428,-0.0141646,0.222286,0.865841
1858,430,3.31373,-0.0137594,0.222425,0.864767
1861,427,3.31322,-0.0163333,0.222645,0.864551
1864,424,3.31249,-0.0153046,0.222643,0.863792
1867,421,3.31418,-0.0124291,0.221356,0.863198
1870,418,3.31326,-0.0121331,0.221715,0.861885
1873,415,3.31315,-0.012715,0.221711,0.86158
1876,412,3.31234,-0.0135682,0.22208,0.860995
1879,409,3.31441,-0.00883751,0.220433,0.860253
1882,406,3.31397,-0.0113317,0.220793,0.859827
1885,403,3.31256,-0.0112667,0.221149,0.858628
1888,400,3.31237,-0.0118258,0.221148,0.858345
1891,397,3.31143,-0.0126343,0.221515,0.857777
1894,394,3.31289,-0.0168946,0.220224,0.857256
1897,391,3.31227,-0.0184131,0.220589,0.856318
1900,388,3.31153,-0.0173049,0.220587,0.857071
1903,385,3.31352,-0.0144511,0.219298,0.854987
1906,382,3.31291,-0.0141602,0.219304,0.853889
1909,379,3.31275,-0.0128963,0.218934,0.853405
1912,376,3.311814,-0.0155735,0.219662,0.852992
1915,373,3.31322,-0.011625,0.218376,0.851653
1918,370,3.31323,-0.0104189,0.21801,0.851146
1921,367,3.31214,-0.0130324,0.218739,0.850779
1924,364,3.31175,-0.019137,0.218409,0.850288
1927,361,3.31369,-0.0162463,0.217081,0.849699
1930,358,3.31222,-0.0179214,0.21781,0.848533
1933,355,3.31215,-0.0167512,0.217447,0.848022
1936,352,3.31163,-0.0193325,0.217812,0.847831
1939,349,3.31357,-0.0134316,0.216158,0.846348
1942,346,3.3124,-0.0160765,0.216881,0.845959
1945,343,3.31152,-0.0157353,0.217164,0.844846
1948,340,3.31129,-0.014509,0.216514,0.844353
1951,337,3.31358,-0.0096553,0.214861,0.843616
1954,334,3.31208,-0.0112579,0.215583,0.842469
1957,331,3.31185,-0.0175062,0.215006,0.841944
1960,328,3.31129,-0.0201389,0.215576,0.841732
1963,325,3.31258,-0.0173187,0.21465,0.840924
1966,322,3.31183,-0.018827,0.215012,0.840007
1969,319,3.31086,-0.0196498,0.215377,0.839436
1972,316,3.31295,-0.0146882,0.213718,0.838728
1975,313,3.31271,-0.0124078,0.213273,0.837483
1978,310,3.31201,-0.0150074,0.213718,0.837296
1981,307,3.31122,-0.0158122,0.214075,0.836729
1984,304,3.31343,-0.0109465,0.212419,0.835962
1987,301,3.31258,-0.0125031,0.21299,0.835023
1990,298,3.31177,-0.0133463,0.213146,0.834451
1993,295,3.31154,-0.0121765,0.21278,0.833912
1996,292,3.3125,-0.0168106,0.211849,0.833121
1999,289,3.31178,-0.0182166,0.212213,0.832272
2002,286,3.31177,-0.0169657,0.211849,0.831775
2005,283,3.3113,-0.017743,0.211879,0.831383
2008,280,3.313,-0.013624,0.210546,0.830051
2011,277,3.31219,-0.0164069,0.211268,0.829636
2014,274,3.31166,-0.0171759,0.211272,0.82927
2017,271,3.3112,-0.0141335,0.21091,0.828385
2020,268,3.31262,-0.0119268,0.209977,0.827242
2023,265,3.31233,-0.0107028,0.209615,0.82673
2026,262,3.31175,-0.0189141,0.209612,0.826414
2029,259,3.31139,-0.0185392,0.20961,0.825326
2032,256,3.31301,-0.0174867,0.208672,0.824888
2035,253,3.31207,-0.0164502,0.20867,0.824102
2038,250,3.31177,-0.0171535,0.208666,0.82376
2041,247,3.31074,-0.0199449,0.209387,0.823348
2044,244,3.31229,-0.0158285,0.208292,0.82201
2047,241,3.31156,-0.0146985,0.208086,0.821265
2050,238,3.31215,-0.0132598,0.207371,0.821056
2053,235,3.31142,-0.0148946,0.207735,0.820117
2056,232,3.3129,-0.010007,0.206439,0.819142
2059,229,3.31236,-0.0183108,0.206436,0.81883
2062,226,3.31182,-0.0116476,0.206791,0.818177
2065,223,3.31057,-0.0208076,0.207147,0.817278
2068,220,3.31184,-0.0178665,0.206208,0.816476
2071,217,3.31199,-0.0146435,0.205487,0.815803
2074,214,3.31111,-0.018148,0.206206,0.815074
2077,211,3.31094,-0.0169611,0.205851,0.814544
2080,208,3.31235,-0.0139314,0.204908,0.813771
2083,205,3.31231,-0.013462,0.204554,0.812913
2086,202,3.31144,-0.0143475,0.205028,0.812312
2089,199,3.31104,-0.0150712,0.204907,0.811963
2092,196,3.31262,-0.0101089,0.203607,0.810994
2095,193,3.31153,-0.0192722,0.203961,0.810131
2098,190,3.31121,-0.0201019,0.203959,0.809739
2101,187,3.31325,-0.0170424,0.202657,0.809155
2104,184,3.31222,-0.0179399,0.203014,0.808555
2107,181,3.31159,-0.0175681,0.203018,0.80747
2110,178,3.31078,-0.0163994,0.203016,0.806746
2113,175,3.31295,-0.0112936,0.20136,0.806013
2116,172,3.31231,-0.0128564,0.201716,0.805104
2119,169,3.312,-0.0136233,0.201713,0.804733
2122,166,3.31096,-0.0144622,0.202065,0.804147
2125,163,3.31313,-0.00934801,0.200402,0.803397
2128,160,3.31202,-0.0102179,0.200777,0.802808
2131,157,3.31113,-0.0195981,0.201107,0.801893
2134,154,3.31099,-0.0203905,0.201112,0.801535
2137,151,3.3124,-0.0173102,0.200173,0.80106
2140,148,3.31168,-0.0169565,0.200174,0.799706
2143,145,3.31162,-0.0156769,0.199816,0.799201
2146,142,3.31099,-0.0152931,0.199816,0.798104
2149,139,3.31293,-0.0120776,0.198513,0.797555
2152,136,3.31282,-0.0109142,0.198162,0.797001
2155,133,3.31169,-0.0137135,0.198864,0.796597
2158,130,3.31097,-0.0126848,0.199054,0.795809
2161,127,3.3124,-0.0103662,0.197911,0.794669
2164,124,3.31174,-0.018954,0.197911,0.794342
2167,121,3.31117,-0.0177387,0.197911,0.792148
2170,118,3.31082,-0.0192456,0.197916,0.792969
2173,115,3.31304,-0.0141266,0.196262,0.792201
2176,112,3.31218,-0.0150718,0.196894,0.791607
2179,109,3.31126,-0.015857,0.196962,0.791049
2182,106,3.31048,-0.0174198,0.197311,0.790136
2185,103,3.31259,-0.0122917,0.195654,0.789368
2188,100,3.31167,-0.0131367,0.196002,0.788788
2191,97,3.31127,-0.0139471,0.196001,0.78842
2194,94,3.3102,-0.0214424,0.195997,0.787347
2197,91,3.31159,-0.0183777,0.195045,0.786554
2200,88,3.31133,-0.0191113,0.195044,0.786225
2203,85,3.31069,-0.0186854,0.195042,0.785129
2206,82,3.31054,-0.0174277,0.19469,0.784601
2209,79,3.31239,-0.0162621,0.193733,0.784205
2212,76,3.31172,-0.0151432,0.19373,0.783422
2215,73,3.31099,-0.0147539,0.193729,0.78232
2218,70,3.31059,-0.0155114,0.193727,0.781965
2221,67,3.3121,-0.0124279,0.192773,0.781171
2224,64,3.31175,-0.0132205,0.192784,0.780801
2227,61,3.31089,-0.0140962,0.19312,0.780235
2230,58,3.31035,-0.0136917,0.193123,0.779161
2233,55,3.31245,-0.0104044,0.191818,0.778622
2236,52,3.31155,-0.0113231,0.192172,0.778045
2239,49,3.31049,-0.0189728,0.192171,0.776957
2242,46,3.31016,-0.0197159,0.192352,0.7766
2245,43,3.3117,-0.0165961,0.191203,0.775808
2248,40,3.31145,-0.01531,0.19085,0.775269
2251,37,3.31074,-0.016969,0.191203,0.774365
2254,34,3.31027,-0.0177095,0.191197,0.77401
2257,31,3.31189,-0.0125547,0.190164,0.773016
2260,28,3.31159,-0.0134938,0.189896,0.772633
2263,25,3.31088,-0.0129621,0.189898,0.771605
2266,22,3.31266,-0.0177127,0.188589,0.771092
2269,19,3.31202,-0.0173404,0.188588,0.769992
2272,16,3.31108,-0.0181686,0.188934,0.769444
2275,13,3.31011,-0.019048,0.189278,0.768852
2278,10,3.30977,-0.0198664,0.18927,0.768457
2281,7,3.31137,-0.0167251,0.188305,0.767654
2284,4,3.31086,-0.0175613,0.188303,0.767278
2285,3,3.31079,-0.018277,0.188303,0.766959