File: hust_correlation_analysis/matrices/HUST_10-8_cycle_feature_matrix.csv
cycle_number,rul,voltage,current,capacity,charge_capacity
1,1402,3.31612,-0.00556503,0.299551,1.04309
3,1400,3.30605,-0.00585822,0.303306,1.03874
5,1398,3.3058,-0.00690296,0.303681,1.03789
7,1396,3.30559,-0.00799397,0.303682,1.03716
9,1394,3.30704,-0.00579484,0.302559,1.03661
11,1392,3.30672,-0.00635366,0.302556,1.03622
13,1390,3.30696,-0.00631345,0.302176,1.03641
15,1388,3.30706,-0.00689607,0.302176,1.03604
17,1386,3.30687,-0.00746343,0.302179,1.03566
19,1384,3.30706,-0.0079865,0.302177,1.03531
21,1382,3.30865,-0.00579938,0.301379,1.03475
23,1380,3.30842,-0.00578704,0.301057,1.03477
25,1378,3.30889,-0.00634183,0.300675,1.03454
27,1376,3.30849,-0.00644665,0.300673,1.03446
29,1374,3.30826,-0.00704718,0.301372,1.03391
31,1372,3.30794,-0.00708446,0.30105,1.03389
33,1370,3.3078,-0.00715282,0.301047,1.03384
35,1368,3.30771,-0.00772326,0.301047,1.03345
37,1366,3.3074,-0.00776074,0.301047,1.03343
39,1364,3.30754,-0.00829123,0.301048,1.03307
41,1362,3.30707,-0.00835022,0.30105,1.03303
43,1360,3.30885,-0.00616575,0.300035,1.03246
45,1358,3.30864,-0.00619709,0.299928,1.03244
47,1356,3.30874,-0.00644407,0.299929,1.03228
49,1354,3.30863,-0.00670701,0.299928,1.03211
51,1352,3.30877,-0.00724242,0.29993,1.03175
53,1350,3.3085,-0.0072756,0.29993,1.03173
55,1348,3.30873,-0.0073509,0.299849,1.03167
57,1346,3.30866,-0.00783763,0.29993,1.03135
59,1344,3.30853,-0.00788897,0.299928,1.03131
61,1342,3.30852,-0.00841594,0.299925,1.03095
63,1340,3.30824,-0.00843601,0.299926,1.03094
65,1338,3.30978,-0.00564387,0.299066,1.03078
67,1336,3.3098,-0.00639565,0.298808,1.03027
69,1334,3.30957,-0.006728,0.299187,1.02991
71,1332,3.30986,-0.00668582,0.298809,1.03008
73,1330,3.30978,-0.00664712,0.298887,1.03011
75,1328,3.30932,-0.00728274,0.299185,1.02954
77,1326,3.30911,-0.0072841,0.299186,1.02954
79,1324,3.3095,-0.00723238,0.29881,1.02972
81,1322,3.30908,-0.00784894,0.299184,1.02915
83,1320,3.30887,-0.00787701,0.299182,1.02913
85,1318,3.30881,-0.00789336,0.299184,1.02912
87,1316,3.30861,-0.00838043,0.299184,1.02877
89,1314,3.310225,-0.00557087,0.298065,1.02863
91,1312,3.31012,-0.00611654,0.298064,1.02826
93,1310,3.30992,-0.00608766,0.298066,1.0283
95,1308,3.30973,-0.00669622,0.298441,1.02774
97,1306,3.3096,-0.00671915,0.298444,1.02772
99,1304,3.30939,-0.00673162,0.298441,1.0277
101,1302,3.30987,-0.00666438,0.298066,1.0279
103,1300,3.30954,-0.0073192,0.298441,1.02732
105,1298,3.30978,-0.00725383,0.298064,1.0275
107,1296,3.30979,-0.00732422,0.298062,1.02746
109,1294,3.30936,-0.0078165,0.298442,1.02699
111,1292,3.30972,-0.00768972,0.298062,1.0272
113,1290,3.30954,-0.00832727,0.298438,1.02664
115,1288,3.30939,-0.00833739,0.298323,1.02662
117,1286,3.30915,-0.00833676,0.298438,1.02663
119,1284,3.31092,-0.00564054,0.297321,1.02639
121,1282,3.3109,-0.00610631,0.297319,1.02607
123,1280,3.3107,-0.00616546,0.29732,1.02603
125,1278,3.31039,-0.00614508,0.297641,1.02604
127,1276,3.31054,-0.00614161,0.297319,1.02605
129,1274,3.31008,-0.00678288,0.297697,1.02524
131,1272,3.3105,-0.00665587,0.297319,1.0257
133,1270,3.31001,-0.00720432,0.297695,1.02517
135,1268,3.3098,-0.0071866,0.297697,1.02518
137,1266,3.30958,-0.00718306,0.297697,1.02519
139,1264,3.3096,-0.00728335,0.297774,1.02512
141,1262,3.30952,-0.00775894,0.297695,1.02479
143,1260,3.30955,-0.00774073,0.297691,1.02481
145,1258,3.30965,-0.00775889,0.297692,1.0248
147,1256,3.30966,-0.0082594,0.297693,1.02445
149,1254,3.30951,-0.00828312,0.29769,1.02444
151,1252,3.31122,-0.00551121,0.296574,1.02286
153,1250,3.31144,-0.00597669,0.296826,1.02395
155,1248,3.31123,-0.00596172,0.296576,1.02394
157,1246,3.311,-0.00598227,0.296574,1.02393
159,1244,3.31119,-0.00652389,0.296949,1.02342
161,1242,3.31121,-0.00654998,0.296571,1.02354
163,1240,3.31103,-0.00649729,0.29657,1.02357
165,1238,3.31029,-0.00658336,0.297271,1.02338
167,1236,3.3106,-0.00713191,0.296948,1.023
169,1234,3.31044,-0.00711446,0.296948,1.02301
171,1232,3.31035,-0.00715415,0.296943,1.02298
173,1230,3.31012,-0.00716883,0.296946,1.02297
175,1228,3.31004,-0.00777449,0.297323,1.02241
177,1226,3.3096,-0.0077281,0.29732,1.02244
179,1224,3.3103,-0.00779306,0.296943,1.02254
181,1222,3.30986,-0.00795368,0.296943,1.02242
183,1220,3.31005,-0.00779568,0.296945,1.02255
185,1218,3.31005,-0.00827117,0.296946,1.02223
187,1216,3.30994,-0.00831105,0.296945,1.0222
189,1214,3.30988,-0.00829807,0.296944,1.02221
191,1212,3.30983,-0.00832282,0.296947,1.02219
193,1210,3.31141,-0.00615052,0.296199,1.02144
195,1208,3.31149,-0.00608911,0.295827,1.02163
197,1206,3.31145,-0.00613523,0.29583,1.02187
199,1204,3.31146,-0.00610485,0.295826,1.02162
201,1202,3.3111,-0.00659628,0.296203,1.02114
203,1200,3.31088,-0.00662326,0.296203,1.02112
205,1198,3.31075,-0.00663142,0.296202,1.02111
207,1196,3.31075,-0.00665614,0.296202,1.02111
209,1194,3.31066,-0.00666747,0.296202,1.02109
211,1192,3.31058,-0.00673461,0.296202,1.02105
213,1190,3.31007,-0.00685234,0.29658,1.02081
215,1188,3.31041,-0.00683328,0.296202,1.02097
217,1186,3.31045,-0.00736056,0.296579,1.02046
219,1184,3.31021,-0.00752804,0.296577,1.02036
221,1182,3.31042,-0.00709167,0.296201,1.02079
223,1180,3.31073,-0.00767044,0.296579,1.02026
225,1178,3.3106,-0.00770844,0.296203,1.02038
227,1176,3.31014,-0.00760187,0.296579,1.02031
229,1174,3.31014,-0.0081258,0.296577,1.01996
231,1172,3.31007,-0.00814565,0.296577,1.01994
233,1170,3.30984,-0.008122,0.296576,1.01995
235,1168,3.30984,-0.00819499,0.296578,1.0199
237,1166,3.30966,-0.00818479,0.296579,1.02018
239,1164,3.30955,-0.00869893,0.296579,1.01955
241,1162,3.30924,-0.0087573,0.29658,1.01953
243,1160,3.31093,-0.00636672,0.295461,1.01906
245,1158,3.31085,-0.00634975,0.29546,1.01909
247,1156,3.31072,-0.00637338,0.295459,1.01757
249,1154,3.31109,-0.00691926,0.295456,1.0187
251,1152,3.31103,-0.00694385,0.295456,1.01869
253,1150,3.31103,-0.00695223,0.295459,1.01869
255,1148,3.31087,-0.00695689,0.295459,1.01867
257,1146,3.31083,-0.006932,0.295456,1.0187
259,1144,3.3111,-0.0075594,0.295459,1.01826
261,1142,3.31081,-0.00751027,0.295458,1.0183
263,1140,3.31094,-0.00748922,0.295459,1.01833
265,1138,3.31081,-0.00793582,0.29578,1.01802
267,1136,3.31053,-0.00790298,0.295454,1.01803
269,1134,3.31044,-0.00792708,0.295457,1.01803
271,1132,3.30985,-0.00799738,0.295834,1.01781
273,1130,3.30995,-0.00852781,0.295833,1.01746
275,1128,3.30981,-0.00857123,0.295835,1.01743
277,1126,3.30976,-0.00857892,0.295941,1.01743
279,1124,3.30959,-0.00862428,0.29583,1.0174
281,1122,3.31132,-0.00586754,0.294714,1.01719
283,1120,3.31131,-0.0063601,0.294711,1.01685
285,1118,3.31135,-0.00631305,0.29471,1.01688
287,1116,3.31164,-0.00682963,0.294711,1.01654
289,1114,3.31146,-0.00681854,0.294713,1.01655
291,1112,3.31141,-0.00678615,0.294713,1.01511
293,1110,3.31152,-0.00684027,0.29471,1.01652
295,1108,3.31138,-0.00735383,0.29471,1.01617
297,1106,3.31124,-0.00732196,0.294711,1.01619
299,1104,3.31066,-0.00749515,0.295088,1.01592
301,1102,3.31047,-0.00747338,0.295089,1.01594
303,1100,3.31065,-0.00801224,0.295086,1.01557
305,1098,3.31044,-0.00801242,0.295087,1.01557
307,1096,3.31053,-0.00849228,0.295339,1.01526
309,1094,3.3103,-0.00852051,0.295088,1.01523
311,1092,3.31021,-0.00843051,0.29509,1.0153
313,1090,3.31019,-0.008466,0.295089,1.01527
315,1088,3.31212,-0.00620627,0.29397,1.01471
317,1086,3.31207,-0.00620383,0.293967,1.01471
319,1084,3.3119,-0.00621707,0.293967,1.0147
321,1082,3.31171,-0.00624073,0.293966,1.01467
323,1080,3.31178,-0.00625065,0.293967,1.01468
325,1078,3.31129,-0.00688987,0.294345,1.01411
327,1076,3.31113,-0.00688698,0.294345,1.01411
329,1074,3.3113,-0.00737827,0.294346,1.01377
331,1072,3.3111,-0.0073162,0.294345,1.0138
333,1070,3.31096,-0.00733203,0.294343,1.01406
335,1068,3.31097,-0.00733543,0.294343,1.0138
337,1066,3.31099,-0.0078246,0.294341,1.01347
339,1064,3.3109,-0.00786971,0.294345,1.01343
341,1062,3.3109,-0.00783994,0.294342,1.01346
343,1060,3.31119,-0.00837549,0.294344,1.01309
345,1058,3.311,-0.00835388,0.294343,1.01311
347,1056,3.31076,-0.00842411,0.294343,1.01306
349,1054,3.31246,-0.00559532,0.293223,1.01151
351,1052,3.31199,-0.00614038,0.2936,1.01263
353,1050,3.31185,-0.00613255,0.293602,1.01238
355,1048,3.31188,-0.00612649,0.293601,1.01237
357,1046,3.31138,-0.00676092,0.293982,1.0118
359,1044,3.31161,-0.0067049,0.2936,1.01197
361,1042,3.31137,-0.00668609,0.2936,1.01199
363,1040,3.3113,-0.00670451,0.293602,1.01199
365,1038,3.31152,-0.00727105,0.293599,1.01159
367,1036,3.31161,-0.00727504,0.293599,1.0116
369,1034,3.3116,-0.00732831,0.293598,1.01156
371,1032,3.3116,-0.00734742,0.293596,1.01155
373,1030,3.31151,-0.00779323,0.293596,1.01125
375,1028,3.31139,-0.00774347,0.293921,1.01128
377,1026,3.31099,-0.00785488,0.293978,1.01107
379,1024,3.31092,-0.00832766,0.29375,1.01074
381,1022,3.31081,-0.00835099,0.293977,1.01072
383,1020,3.31237,-0.00549079,0.292857,1.01055
385,1018,3.31244,-0.00604778,0.292857,1.01018
387,1016,3.31184,-0.00611712,0.29331,1.01
389,1014,3.31171,-0.00613375,0.293232,1.00998
391,1012,3.31211,-0.00613692,0.292857,1.01012
393,1010,3.3123,-0.006123,0.292817,1.01013
395,1008,3.31196,-0.00667875,0.293236,1.00962
397,1006,3.31236,-0.00657233,0.292858,1.00984
399,1004,3.31192,-0.00717312,0.293236,1.00928
401,1002,3.31176,-0.00709193,0.293233,1.00934
403,1000,3.31161,-0.00718572,0.293234,1.00928
405,998,3.31142,-0.00726279,0.293232,1.00921
407,996,3.31132,-0.00725066,0.293231,1.0092
409,994,3.31116,-0.00730502,0.293229,1.00918
411,992,3.31108,-0.00783998,0.293228,1.0088
413,990,3.311,-0.00784645,0.293224,1.00881
415,988,3.31089,-0.00786575,0.293174,1.0088
417,986,3.31079,-0.00857897,0.293715,1.00818
419,984,3.31117,-0.00845718,0.293229,1.0084
421,982,3.31096,-0.00844981,0.29323,1.00842
423,980,3.31271,-0.0061366,0.292107,1.00786
425,978,3.31266,-0.00605687,0.292432,1.00792
427,976,3.31245,-0.00612781,0.292108,1.00787
429,974,3.31239,-0.0061831,0.292034,1.00783
431,972,3.3123,-0.00620286,0.292109,1.00783
433,970,3.31195,-0.00679011,0.292485,1.00727
435,968,3.31181,-0.00686504,0.292485,1.00723
437,966,3.31176,-0.0069237,0.292733,1.0072
439,964,3.31164,-0.00689998,0.292593,1.00721
441,962,3.31182,-0.00739891,0.292487,1.00689
443,960,3.31196,-0.00734986,0.292486,1.00692
445,958,3.31191,-0.00784875,0.292805,1.00657
447,956,3.31181,-0.00791227,0.292488,1.00654
449,954,3.31157,-0.00793557,0.292484,1.00652
451,952,3.31139,-0.00794912,0.292488,1.00651
453,950,3.31151,-0.00848241,0.292486,1.00614
455,948,3.311,-0.00860129,0.292867,1.00593
457,946,3.31072,-0.00859351,0.292866,1.00593
459,944,3.31231,-0.00576116,0.291746,1.00574
461,942,3.31226,-0.0062369,0.291746,1.00568
463,940,3.31222,-0.00621148,0.291745,1.00544
465,938,3.31248,-0.00672211,0.291743,1.00508
467,936,3.31245,-0.00670068,0.291742,1.00536
469,934,3.31243,-0.0067395,0.292067,1.00509
471,932,3.31239,-0.00728151,0.291743,1.00471
473,930,3.31228,-0.00730219,0.291744,1.0047
475,928,3.31217,-0.00739848,0.291852,1.00464
477,926,3.31194,-0.00735873,0.291743,1.00466
479,924,3.31175,-0.00740174,0.291743,1.00462
481,922,3.31171,-0.00744452,0.291983,1.00459
483,920,3.3111,-0.00808029,0.292229,1.00403
485,918,3.31122,-0.00848608,0.292119,1.00375
487,916,3.31113,-0.00845923,0.292118,1.00377
489,914,3.31294,-0.00556645,0.290997,1.00362
491,912,3.31312,-0.00613005,0.291,1.00324
493,910,3.3135,-0.00612497,0.290617,1.00338
495,908,3.31289,-0.00625155,0.291,1.00317
497,906,3.31279,-0.00620897,0.290999,1.00319
499,904,3.31274,-0.00674863,0.290999,1.00283
501,902,3.31259,-0.0067746,0.290998,1.00279
503,900,3.31203,-0.0068494,0.291378,1.00287
505,898,3.31225,-0.00743902,0.291377,1.0022
507,896,3.31183,-0.00729134,0.291377,1.0023
509,894,3.31195,-0.00780755,0.291376,1.00195
511,892,3.31194,-0.00781491,0.291376,1.00195
513,890,3.31203,-0.0077808,0.291376,1.00198
515,888,3.31152,-0.0084222,0.291756,1.0014
517,886,3.31178,-0.00834813,0.291378,1.0016
519,884,3.31334,-0.00547132,0.290255,1.00137
521,882,3.31289,-0.00609948,0.290741,1.00085
523,880,3.31268,-0.00613051,0.290634,1.00083
525,878,3.31264,-0.00615373,0.290632,1.00081
527,876,3.31229,-0.00674708,0.29101,1.00026
529,874,3.31243,-0.00662002,0.290628,1.00048
531,872,3.31217,-0.0066651,0.290627,1.00045
533,870,3.31203,-0.00724563,0.291008,0.999923
535,868,3.31239,-0.00721187,0.290629,1.00008
537,866,3.31247,-0.00720037,0.290627,1.00009
539,864,3.31211,-0.00782095,0.291116,0.999542
541,862,3.31214,-0.00774675,0.290595,0.99972
543,860,3.31168,-0.0078401,0.29101,0.99953
545,858,3.31157,-0.00836926,0.291007,0.999156
547,856,3.31127,-0.0083309,0.291007,0.999185
549,854,3.31294,-0.00547396,0.289885,0.998986
551,852,3.31288,-0.00605449,0.289884,0.99859
553,850,3.31268,-0.0060886,0.289882,0.998578
555,848,3.31292,-0.00667364,0.289882,0.998182
557,846,3.31282,-0.00665407,0.290122,0.998199
559,844,3.31268,-0.00665053,0.289884,0.998199
561,842,3.31247,-0.00731917,0.290263,0.997606
563,840,3.31272,-0.00723922,0.28988,0.997797
565,838,3.31213,-0.00732445,0.290261,0.997607
567,836,3.31218,-0.00784509,0.290259,0.997234
569,834,3.31163,-0.00786549,0.290258,0.99721
571,832,3.31179,-0.00786624,0.290259,0.997231
573,830,3.31133,-0.0085293,0.290639,0.996636
575,828,3.31155,-0.00847744,0.290259,0.996813
577,826,3.31136,-0.0084761,0.290259,0.996809
579,824,3.31283,-0.00618665,0.289519,0.9961
581,822,3.3133,-0.00617753,0.288852,0.996253
583,820,3.31334,-0.00614217,0.289136,0.996274
585,818,3.31283,-0.00674879,0.289518,0.995726
587,816,3.31247,-0.00681605,0.289514,0.995675
589,814,3.31257,-0.00736684,0.289518,0.995314
591,812,3.31243,-0.00734713,0.28952,0.995326
593,810,3.31223,-0.00730082,0.28959,0.995348
595,808,3.31189,-0.00801548,0.289812,0.99474
597,806,3.31192,-0.00796664,0.289896,0.994762
599,804,3.31174,-0.00858252,0.289902,0.994356
601,802,3.31167,-0.00852628,0.2899,0.994396
603,800,3.31334,-0.00615679,0.2891,0.99385
605,798,3.31342,-0.00614026,0.288775,0.993874
607,796,3.31339,-0.00676508,0.288772,0.993438
609,794,3.31296,-0.00674831,0.288776,0.993455
611,792,3.31297,-0.00670953,0.288775,0.993486
613,790,3.31247,-0.00735293,0.28916,0.99292
615,788,3.31221,-0.00735978,0.289158,0.992902
617,786,3.31225,-0.00793763,0.289159,0.992519
619,784,3.31192,-0.00785738,0.289225,0.992568
621,782,3.31205,-0.00845759,0.289154,0.992164
623,780,3.3119,-0.00843458,0.289158,0.992187
625,778,3.31345,-0.00616181,0.288416,0.991447
627,776,3.31388,-0.00608924,0.288034,0.991639
629,774,3.31363,-0.006151,0.288033,0.991596
631,772,3.31295,-0.00670484,0.288413,0.991075
633,770,3.31295,-0.00675323,0.288414,0.991056
635,768,3.31228,-0.00734613,0.288796,0.990497
637,766,3.31253,-0.00723699,0.288413,0.99071
639,764,3.31204,-0.00795649,0.288792,0.990088
641,762,3.31222,-0.00790589,0.288409,0.990264
643,760,3.31224,-0.00802282,0.288412,0.990179
645,758,3.31178,-0.00857942,0.28879,0.98967
647,756,3.31242,-0.00856977,0.288412,0.989819
649,754,3.31354,-0.0057617,0.287465,0.989436
651,752,3.31316,-0.00624904,0.287741,0.989103
653,750,3.31322,-0.00674046,0.287668,0.988765
655,748,3.31309,-0.00677353,0.28767,0.988744
657,746,3.312,-0.00751256,0.288436,0.987966
659,744,3.31231,-0.00745293,0.288049,0.988138
661,742,3.31233,-0.00804105,0.288049,0.987747
663,740,3.31213,-0.00804309,0.288051,0.987765
665,738,3.31207,-0.00817729,0.288049,0.987663
667,736,3.31229,-0.0086031,0.288047,0.987367
669,734,3.31375,-0.00571999,0.286928,0.987183
671,732,3.31382,-0.00621265,0.286926,0.98685
673,730,3.3133,-0.00687034,0.28731,0.986258
675,728,3.31287,-0.00679725,0.28731,0.986316
677,726,3.31255,-0.00746274,0.287693,0.985731
679,724,3.31219,-0.00742168,0.287694,0.985759
681,722,3.31213,-0.00800067,0.287694,0.985365
683,720,3.31246,-0.00796379,0.287311,0.985536
685,718,3.31235,-0.00795326,0.287307,0.985541
687,716,3.31205,-0.00854556,0.287694,0.985005
689,714,3.31367,-0.00573976,0.286569,0.984744
691,712,3.31363,-0.00630419,0.286568,0.984369
693,710,3.31356,-0.00682764,0.286567,0.98401
695,708,3.31286,-0.00687749,0.2869,0.983849
697,706,3.31287,-0.00747591,0.286952,0.983444
699,704,3.31256,-0.00751105,0.286954,0.983416
701,702,3.3121,-0.00813102,0.287338,0.982875
703,700,3.31222,-0.00810718,0.28695,0.98302
705,698,3.31206,-0.00816253,0.286953,0.982989
707,696,3.31205,-0.00876093,0.28695,0.982582
709,694,3.31382,-0.00582332,0.285827,0.982406
711,692,3.31348,-0.00639165,0.286213,0.981902
713,690,3.31337,-0.00691644,0.286211,0.981545
715,688,3.31326,-0.00691826,0.28621,0.981544
717,686,3.31297,-0.00742199,0.286211,0.981201
719,684,3.31257,-0.00801798,0.286701,0.980671
721,682,3.31225,-0.00803146,0.286593,0.980644
723,680,3.31206,-0.00861164,0.286593,0.980256
725,678,3.31171,-0.00865707,0.286594,0.980228
727,676,3.31357,-0.00631912,0.285467,0.979637
729,674,3.31356,-0.00634803,0.285469,0.979628
731,672,3.31334,-0.00704384,0.285853,0.979022
733,670,3.3132,-0.00752462,0.285852,0.978694
735,668,3.31297,-0.00754016,0.28585,0.978686
737,666,3.31237,-0.00807291,0.286237,0.978463
739,664,3.31213,-0.00808035,0.286237,0.9782
741,662,3.31202,-0.00862769,0.28624,0.977824
743,660,3.31322,-0.0063632,0.285499,0.977043
745,658,3.31336,-0.00622439,0.285111,0.977267
747,656,3.31297,-0.00686715,0.285725,0.976705
749,654,3.31338,-0.00682885,0.285108,0.976868
751,652,3.31298,-0.00748206,0.285492,0.976294
753,650,3.31292,-0.00805986,0.285495,0.975909
755,648,3.31261,-0.00799067,0.285498,0.975955
757,646,3.31215,-0.00867586,0.285882,0.975361
759,644,3.31376,-0.00566094,0.284755,0.975212
761,642,3.31358,-0.00625195,0.284755,0.97481
763,640,3.31299,-0.00688692,0.28514,0.974247
765,638,3.31265,-0.00686449,0.28514,0.974254
767,636,3.31262,-0.00749063,0.285138,0.973828
769,634,3.31255,-0.00747141,0.285136,0.973854
771,632,3.31245,-0.00800869,0.285137,0.973491
773,630,3.31205,-0.00870737,0.285524,0.972896
775,628,3.31348,-0.00576848,0.284394,0.97268
777,626,3.31337,-0.00627242,0.284393,0.972601
779,624,3.31341,-0.00689337,0.284395,0.971931
781,622,3.31307,-0.00685433,0.284396,0.971956
783,620,3.31251,-0.00757164,0.284782,0.97134
785,618,3.31222,-0.00752279,0.284781,0.971363
787,616,3.31206,-0.00809234,0.284779,0.970977
789,614,3.31193,-0.00818891,0.28478,0.970916
791,612,3.3118,-0.00872069,0.284779,0.970573
793,610,3.31312,-0.00634936,0.284039,0.969833
795,608,3.31337,-0.0063862,0.283648,0.96995
797,606,3.31283,-0.00703445,0.284036,0.969375
799,604,3.31281,-0.00761039,0.284033,0.968993
801,602,3.31265,-0.00774445,0.284037,0.968913
803,600,3.31247,-0.0082853,0.284033,0.968544
805,598,3.31206,-0.0083814,0.284034,0.968481
807,596,3.31332,-0.00592654,0.283293,0.96779
809,594,3.31271,-0.00650535,0.283683,0.967279
811,592,3.31266,-0.00719545,0.283687,0.966836
813,590,3.31264,-0.00721556,0.283685,0.966821
815,588,3.31231,-0.00765502,0.283681,0.966506
817,586,3.31233,-0.00823342,0.283683,0.966137
819,584,3.31223,-0.00827514,0.283684,0.96612
821,582,3.31385,-0.00580838,0.282551,0.965557
823,580,3.3132,-0.00646409,0.282944,0.964997
825,578,3.3126,-0.00716069,0.283333,0.964391
827,576,3.31291,-0.00704758,0.28294,0.964598
829,574,3.31223,-0.00767825,0.283332,0.964045
831,572,3.31167,-0.00829536,0.283721,0.963505
833,570,3.31145,-0.00874709,0.283723,0.963192
835,568,3.31301,-0.00637181,0.282591,0.962589
837,566,3.31299,-0.00650237,0.282592,0.962505
839,564,3.31249,-0.00708722,0.282982,0.961987
841,562,3.31251,-0.0076955,0.283315,0.961597
843,560,3.31243,-0.00827159,0.283312,0.96121
845,558,3.31202,-0.0083115,0.282983,0.961184
847,556,3.31171,-0.0089196,0.28298,0.960774
849,554,3.31347,-0.00649952,0.28191,0.960178
851,552,3.31291,-0.00699163,0.28224,0.959513
853,550,3.31254,-0.00721102,0.282237,0.959576
855,548,3.31199,-0.00778305,0.282629,0.959305
857,546,3.31168,-0.00830743,0.282627,0.958703
859,544,3.3109,-0.0089263,0.283025,0.958181
861,542,3.31258,-0.00651063,0.28189,0.957565
863,540,3.31261,-0.0070864,0.281891,0.957442
865,538,3.31254,-0.00713907,0.281893,0.957165
867,536,3.3125,-0.00773457,0.28189,0.956769
869,534,3.31187,-0.00837038,0.282285,0.956222
871,532,3.31157,-0.00894735,0.282617,0.955832
873,530,3.31288,-0.00658402,0.281547,0.955073
875,528,3.3126,-0.0071135,0.281545,0.95471
877,526,3.3124,-0.0071805,0.281546,0.954669
879,524,3.31178,-0.00784856,0.281939,0.954102
881,522,3.31128,-0.00840653,0.281939,0.953711
883,520,3.31089,-0.00753933,0.281937,0.953007
885,518,3.31251,-0.00508716,0.280804,0.952423
887,516,3.31212,-0.00724162,0.281199,0.952146
889,514,3.31172,-0.00620016,0.281196,0.951541
891,512,3.31132,-0.0130372,0.281194,0.951142
893,510,3.31122,-0.0120326,0.280797,0.950637
895,508,3.31302,-0.00957892,0.279667,0.950045
897,506,3.31279,-0.00866398,0.279665,0.949358
899,504,3.31254,-0.00930233,0.279664,0.948932
901,502,3.31195,-0.00992346,0.280058,0.948404
903,500,3.31175,-0.00887584,0.279661,0.947933
905,498,3.31313,-0.00649571,0.278924,0.947151
907,496,3.31283,-0.00492262,0.278527,0.947024
909,494,3.31254,-0.00552335,0.278528,0.946629
911,492,3.31161,-0.00773356,0.279314,0.946209
913,490,3.3114,-0.00836454,0.279313,0.945792
915,488,3.31115,-0.0136909,0.278922,0.945257
917,486,3.31295,-0.00960851,0.277397,0.944558
919,484,3.31244,-0.0102271,0.277787,0.944013
921,482,3.312,-0.00941754,0.277786,0.943252
923,480,3.31246,-0.00990877,0.277393,0.943061
925,478,3.31171,-0.00902808,0.277394,0.942366
927,476,3.31328,-0.0064265,0.276264,0.94187
929,474,3.31347,-0.00546616,0.275875,0.941333
931,472,3.31278,-0.00615452,0.276265,0.940744
933,470,3.31198,-0.00682443,0.276655,0.940173
935,468,3.31175,-0.00735866,0.276654,0.939827
937,466,3.31321,-0.00648015,0.275912,0.939348
939,464,3.31302,-0.00493929,0.275517,0.939192
941,462,3.31259,-0.0118498,0.27552,0.938775
943,460,3.31224,-0.0109186,0.27552,0.938107
945,458,3.3121,-0.00992258,0.275126,0.937583
947,456,3.3139,-0.00592846,0.27361,0.936822
949,454,3.31329,-0.00658555,0.274001,0.936276
951,452,3.31303,-0.00563209,0.273611,0.935731
953,450,3.31258,-0.00633871,0.273999,0.935139
955,448,3.31124,-0.0138469,0.274779,0.934066
957,446,3.31317,-0.011256,0.273263,0.93367
959,444,3.31311,-0.00504196,0.273257,0.933647
961,442,3.31293,-0.00568079,0.273256,0.933225
963,440,3.3125,-0.0125686,0.273258,0.932835
965,438,3.31198,-0.011653,0.273254,0.932134
967,436,3.31373,-0.00756046,0.271743,0.931433
969,434,3.31335,-0.00669112,0.271741,0.930719
971,432,3.313,-0.007337,0.271744,0.93029
973,430,3.31232,-0.00796247,0.272129,0.929767
975,428,3.31194,-0.00759928,0.272129,0.928699
977,426,3.31293,-0.0113601,0.271392,0.928264
979,424,3.31281,-0.00561581,0.271391,0.927645
981,422,3.3126,-0.00626899,0.271368,0.927229
983,420,3.31225,-0.01321,0.271387,0.926818
985,418,3.31379,-0.00922472,0.270264,0.925913
987,416,3.31342,-0.00980447,0.270263,0.925535
989,414,3.31332,-0.00877705,0.269874,0.925035
991,412,3.31255,-0.00950274,0.270588,0.924439
993,410,3.31231,-0.0100932,0.270258,0.924046
995,408,3.31346,-0.00601495,0.269135,0.923186
997,406,3.31262,-0.00826807,0.269907,0.922757
999,404,3.31227,-0.0079157,0.269907,0.921693
1001,402,3.3123,-0.00709375,0.26952,0.921328
1003,400,3.31192,-0.00752045,0.26952,0.920797
1005,398,3.31359,-0.0113123,0.268394,0.920241
1007,396,3.31317,-0.0120208,0.26878,0.919658
1009,394,3.31288,-0.0110203,0.268587,0.919138
1011,392,3.31257,-0.0100734,0.268006,0.918569
1013,390,3.31381,-0.00598159,0.266885,0.917711
1015,388,3.31319,-0.00683105,0.26727,0.917296
1017,386,3.31275,-0.00728806,0.267267,0.916726
1019,384,3.31208,-0.00849888,0.267651,0.915817
1021,382,3.31197,-0.00762201,0.267262,0.915213
1023,380,3.31309,-0.00671846,0.266912,0.914646
1025,378,3.31314,-0.005728,0.266527,0.91411
1027,376,3.3128,-0.0126485,0.266522,0.913754
1029,374,3.31229,-0.0116921,0.266523,0.913073
1031,372,3.31395,-0.007566,0.265016,0.912346
1033,370,3.31323,-0.0088823,0.265402,0.91138
1035,368,3.31294,-0.00789344,0.265017,0.910835
1037,366,3.31241,-0.00863798,0.2654,0.910234
1039,364,3.31129,-0.0108391,0.266164,0.909859
1041,362,3.31308,-0.00664571,0.264657,0.909163
1043,360,3.31309,-0.0072261,0.264655,0.908785
1045,358,3.31281,-0.0126362,0.264274,0.908255
1047,356,3.31223,-0.0139929,0.264656,0.907271
1049,354,3.31356,-0.00983544,0.263534,0.906433
1051,352,3.31346,-0.00884367,0.26315,0.905888
1053,350,3.31319,-0.00939856,0.26315,0.905527
1055,348,3.31222,-0.0100584,0.263532,0.904976
1057,346,3.31347,-0.00601075,0.262413,0.90405
1059,344,3.31286,-0.00726451,0.262793,0.903127
1061,342,3.31266,-0.00790805,0.262789,0.902729
1063,340,3.31263,-0.00695022,0.262409,0.902174
1065,338,3.31375,-0.010891,0.261718,0.901421
1067,336,3.31366,-0.00985843,0.261289,0.900908
1069,334,3.31326,-0.0104787,0.261288,0.900501
1071,332,3.31252,-0.0111651,0.261667,0.899955
1073,330,3.31192,-0.0108453,0.261668,0.898856
1075,328,3.31302,-0.00827017,0.260931,0.898159
1077,326,3.31268,-0.00880745,0.260929,0.89806
1079,324,3.31244,-0.00946922,0.26093,0.897388
1081,322,3.31264,-0.00690742,0.260169,0.896674
1083,320,3.31414,-0.00499672,0.259436,0.895576
1085,318,3.31377,-0.0104047,0.259053,0.895048
1087,316,3.31294,-0.012686,0.259725,0.894651
1089,314,3.31206,-0.0133956,0.26019,0.894096
1091,312,3.31363,-0.00922392,0.258693,0.893341
1093,310,3.31275,-0.00988901,0.259069,0.892777
1095,308,3.31212,-0.011165,0.259494,0.891859
1097,306,3.31183,-0.0118126,0.259453,0.891458
1099,304,3.31402,-0.00595054,0.257574,0.890611
1101,302,3.31338,-0.00499191,0.257898,0.889914
1103,300,3.31324,-0.0110557,0.257195,0.88901
1105,298,3.3125,-0.0117345,0.257569,0.88845
1107,296,3.31408,-0.00913585,0.256456,0.887888
1109,294,3.31318,-0.0114802,0.257211,0.887464
1111,292,3.31249,-0.0105521,0.257212,0.886748
1113,290,3.31159,-0.0118405,0.257591,0.88732
1115,288,3.31157,-0.0108918,0.257209,0.885244
1117,286,3.31362,-0.00662792,0.25572,0.884549
1119,284,3.31353,-0.00564213,0.255342,0.883979
1121,282,3.31267,-0.013421,0.255716,0.883062
1123,280,3.31189,-0.0138759,0.256093,0.882652
1125,278,3.31342,-0.0115487,0.255302,0.881902
1127,276,3.31254,-0.0106327,0.254976,0.881174
1129,274,3.31224,-0.0112373,0.254975,0.880796
1131,272,3.31168,-0.0119226,0.255351,0.880253
1133,270,3.31363,-0.00771376,0.253865,0.879516
1135,268,3.31341,-0.00577417,0.253487,0.878239
1137,266,3.31296,-0.00643657,0.253483,0.877812
1139,264,3.31224,-0.00716592,0.253857,0.877239
1141,262,3.31342,-0.0110322,0.252748,0.876712
1143,260,3.31275,-0.00518054,0.253119,0.876139
1145,258,3.31252,-0.00580374,0.253122,0.875769
1147,256,3.31176,-0.0136633,0.253499,0.874844
1149,254,3.31341,-0.00944023,0.252388,0.873979
1151,252,3.31336,-0.00837626,0.252013,0.873706
1153,250,3.31284,-0.00969563,0.252388,0.872525
1155,248,3.31247,-0.00705877,0.252008,0.871656
1157,246,3.31379,-0.00441789,0.250901,0.871107
1159,244,3.31294,-0.00510154,0.251311,0.870539
1161,242,3.31253,-0.00640374,0.251271,0.869738
1163,240,3.31151,-0.013722,0.251647,0.869176
1165,238,3.31337,-0.011119,0.250535,0.868595
1167,236,3.31354,-0.00839785,0.249787,0.867904
1169,234,3.3127,-0.0091385,0.250159,0.86732
1171,232,3.31231,-0.0098132,0.250156,0.866911
1173,230,3.31128,-0.00956916,0.250451,0.865616
1175,228,3.31269,-0.00693944,0.24942,0.865037
1177,226,3.312,-0.00757526,0.249795,0.86454
1179,224,3.31214,-0.00655406,0.249418,0.863982
1181,222,3.3134,-0.0111631,0.248781,0.862903
1183,220,3.31319,-0.0101369,0.248311,0.862358
1185,218,3.31267,-0.00977451,0.248462,0.861275
1187,216,3.31172,-0.0105518,0.24868,0.860672
1189,214,3.3111,-0.0111826,0.248676,0.86027
1191,212,3.31211,-0.0102756,0.248319,0.859714
1193,210,3.31214,-0.00927432,0.247945,0.859149
1195,208,3.31234,-0.00658305,0.247295,0.858421
1197,206,3.31132,-0.0145632,0.247571,0.857491
1199,204,3.31276,-0.00532528,0.246603,0.856758
1201,202,3.3122,-0.0125968,0.246835,0.856379
1203,200,3.31088,-0.0140718,0.247904,0.85525
1205,198,3.31069,-0.00796102,0.24758,0.854907
1207,196,3.31264,-0.0102418,0.246099,0.854203
1209,194,3.31264,-0.00916833,0.245724,0.853666
1211,192,3.31213,-0.00885106,0.245723,0.852567
1213,190,3.31348,-0.00451796,0.244619,0.851708
1215,188,3.31304,-0.00525271,0.244615,0.851243
1217,186,3.31205,-0.00592147,0.245016,0.850713
1219,184,3.31133,-0.00732355,0.245359,0.849746
1221,182,3.3131,-0.00461297,0.244282,0.849196
1223,180,3.31242,-0.0103075,0.244249,0.8485
1225,178,3.31213,-0.0115777,0.244249,0.847746
1227,176,3.31153,-0.0105188,0.244109,0.847074
1229,174,3.31269,-0.0079021,0.243514,0.846349
1231,172,3.31182,-0.00928733,0.243887,0.845391
1233,170,3.31144,-0.00981827,0.243882,0.845061
1235,168,3.3107,-0.0105822,0.244581,0.844485
1237,166,3.31313,-0.00512425,0.242338,0.843212
1239,164,3.31216,-0.0126118,0.242777,0.842649
1241,162,3.31173,-0.013268,0.242776,0.84226
1243,160,3.31116,-0.0128824,0.242772,0.841175
1245,158,3.31195,-0.0120148,0.242411,0.840578
1247,156,3.31112,-0.0109505,0.242411,0.839902
1249,154,3.31095,-0.0122518,0.24241,0.839129
1251,152,3.3126,-0.00794467,0.241304,0.838213
1253,150,3.31254,-0.00683388,0.240931,0.837683
1255,148,3.31199,-0.00818144,0.241299,0.836765
1257,146,3.31184,-0.00710932,0.240928,0.836216
1259,144,3.31277,-0.00443327,0.240195,0.835488
1261,142,3.31148,-0.0058516,0.240938,0.834391
1263,140,3.31097,-0.0133181,0.240935,0.834018
1265,138,3.31068,-0.0140384,0.240934,0.833863
1267,136,3.31235,-0.0102446,0.23983,0.832362
1269,134,3.31201,-0.0109255,0.239828,0.831953
1271,132,3.3117,-0.00986909,0.239456,0.831402
1273,130,3.31054,-0.0095855,0.239828,0.830137
1275,128,3.31227,-0.00684995,0.238721,0.829566
1277,126,3.31173,-0.00590565,0.238721,0.828809
1279,124,3.31086,-0.00725928,0.239092,0.828163
1281,122,3.31239,-0.00621695,0.23836,0.827522
1283,120,3.31205,-0.0119556,0.237986,0.826994
1285,118,3.31152,-0.01153,0.237983,0.825956
1287,116,3.31086,-0.0105374,0.237983,0.825218
1289,114,3.31278,-0.00674543,0.236514,0.824079
1291,112,3.31233,-0.00578945,0.236511,0.82334
1293,110,3.3111,-0.00819435,0.237247,0.822973
1295,108,3.31016,-0.00962468,0.237661,0.822018
1297,106,3.31191,-0.00685179,0.236513,0.821461
1299,104,3.31166,-0.00758933,0.236512,0.821038
1301,102,3.31126,-0.00655792,0.236512,0.820336
1303,100,3.3127,-0.00966749,0.23541,0.819072
1305,98,3.31191,-0.0121229,0.235778,0.818837
1307,96,3.31126,-0.0116779,0.235776,0.817781
1309,94,3.31088,-0.0105647,0.235405,0.81723
1311,92,3.31193,-0.00676238,0.234673,0.815833
1313,90,3.31139,-0.00753265,0.234672,0.815397
1315,88,3.31121,-0.00821193,0.234589,0.815002
1317,86,3.31067,-0.00795706,0.234668,0.813834
1319,84,3.31232,-0.00524856,0.23389,0.813232
1321,82,3.31135,-0.0129084,0.233936,0.812714
1323,80,3.31123,-0.0124851,0.233564,0.81177
1325,78,3.31239,-0.00978481,0.232851,0.811038
1327,76,3.31152,-0.0105155,0.233199,0.810491
1329,74,3.3106,-0.0119707,0.233567,0.809521
1331,72,3.31021,-0.0126241,0.233566,0.809147
1333,70,3.31135,-0.0100192,0.232839,0.808362
1335,68,3.31076,-0.011251,0.233208,0.807539
1337,66,3.31092,-0.00848743,0.232464,0.806757
1339,64,3.31247,-0.00458304,0.231686,0.805506
1341,62,3.31205,-0.00523353,0.231362,0.805147
1343,60,3.31097,-0.0137724,0.231824,0.804153
1345,58,3.31061,-0.0144133,0.231729,0.803784
1347,56,3.31198,-0.00994391,0.230626,0.802859
1349,54,3.31116,-0.0113564,0.230991,0.801911
1351,52,3.31046,-0.0138278,0.231358,0.801702
1353,50,3.30956,-0.0146083,0.231846,0.801159
1355,48,3.31117,-0.0107129,0.230633,0.799899
1357,46,3.31122,-0.00964452,0.230257,0.79931
1359,44,3.31127,-0.00921051,0.229888,0.798375
1361,42,3.31228,-0.00646979,0.22916,0.797648
1363,40,3.3117,-0.00603021,0.229481,0.796581
1365,38,3.31084,-0.0074144,0.229527,0.795677
1367,36,3.31242,-0.0116783,0.228426,0.795117
1369,34,3.3116,-0.0130219,0.228796,0.794236
1371,32,3.31053,-0.0139184,0.229163,0.793618
1373,30,3.31011,-0.0145867,0.22916,0.793236
1375,28,3.31222,-0.0106323,0.227703,0.792116
1377,26,3.31169,-0.0096245,0.227691,0.791384
1379,24,3.31154,-0.00917806,0.227322,0.790448
1381,22,3.31355,-0.00453772,0.225859,0.789717
1383,20,3.31268,-0.00587097,0.226221,0.788836
1385,18,3.31157,-0.00676429,0.22659,0.788217
1387,16,3.31046,-0.0153081,0.226954,0.787314
1389,14,3.312,-0.0124918,0.225857,0.786725
1391,12,3.31117,-0.0139737,0.226221,0.785779
1393,10,3.31072,-0.0146437,0.22622,0.785403
1395,8,3.31233,-0.0107388,0.225122,0.784118
1397,6,3.31222,-0.0114281,0.225214,0.78374
1399,4,3.3117,-0.0111085,0.22512,0.782621
1400,3,3.31162,-0.00997648,0.224751,0.782052