File: hust_correlation_analysis/matrices/HUST_5-2_cycle_feature_matrix.csv
cycle_number,rul,voltage,current,capacity,charge_capacity
1,1928,3.31724,0.0332231,0.273621,1.03102
3,1926,3.29803,-0.012019,0.291828,0.995132
5,1924,3.30147,-0.0133825,0.29122,0.99737
7,1922,3.30358,-0.0132025,0.28994,1.00079
9,1920,3.30533,-0.0138633,0.289562,1.00333
11,1918,3.30694,-0.0123581,0.28833,1.00737
13,1916,3.3076,-0.0128743,0.287977,1.00994
15,1914,3.30892,-0.0110267,0.286709,1.01159
17,1912,3.3101,-0.00959422,0.285708,1.013
19,1910,3.30987,-0.0121345,0.285957,1.01407
21,1908,3.31066,-0.010772,0.285128,1.01525
23,1906,3.31199,-0.010115,0.284302,1.01603
25,1904,3.3107,-0.0126535,0.285226,1.01684
27,1902,3.31148,-0.0113106,0.284915,1.01799
29,1900,3.31209,-0.0114403,0.283997,1.01816
31,1898,3.31328,-0.0106602,0.283182,1.019
33,1896,3.31318,-0.0100357,0.282778,1.01957
35,1894,3.31383,-0.0101205,0.282777,1.01978
37,1892,3.31455,-0.00944302,0.281971,1.02033
39,1890,3.31297,-0.0119623,0.283295,1.02091
41,1888,3.31402,-0.0119132,0.282893,1.02116
43,1886,3.31468,-0.0111983,0.282089,1.02197
45,1884,3.31398,-0.0112892,0.282489,1.02171
47,1882,3.31468,-0.0112517,0.282089,1.02196
49,1880,3.31486,-0.0112967,0.282091,1.02195
51,1878,3.31442,-0.0112439,0.282091,1.02197
53,1876,3.31487,-0.0113261,0.281692,1.02215
55,1874,3.31516,-0.0114252,0.281692,1.02209
57,1872,3.31486,-0.0118657,0.28195,1.02187
59,1870,3.31481,-0.0119458,0.281694,1.02183
61,1868,3.31565,-0.0119267,0.281391,1.02205
63,1866,3.31528,-0.0118877,0.281295,1.02208
65,1864,3.31493,-0.0119489,0.281296,1.02204
67,1862,3.31668,-0.00881131,0.279974,1.02181
69,1860,3.31676,-0.00936897,0.279974,1.02152
71,1858,3.31688,-0.00943567,0.279975,1.02147
73,1856,3.31712,-0.00938896,0.279576,1.0217
75,1854,3.31646,-0.0100328,0.279977,1.02116
77,1852,3.31629,-0.0101917,0.279972,1.02107
79,1850,3.31667,-0.0106437,0.279573,1.02104
81,1848,3.31672,-0.0105943,0.279574,1.02106
83,1846,3.31636,-0.0112883,0.279968,1.0191
85,1844,3.3164,-0.0112765,0.27997,1.02048
87,1842,3.31646,-0.0112222,0.280075,1.02072
89,1840,3.31597,-0.0112789,0.279971,1.02048
91,1838,3.31593,-0.0118786,0.279974,1.02018
93,1836,3.31602,-0.0119208,0.279977,1.02016
95,1834,3.31545,-0.0119359,0.280369,1.01992
97,1832,3.31731,-0.00882052,0.278657,1.0199
99,1830,3.31735,-0.0093461,0.278653,1.0196
101,1828,3.31709,-0.0100264,0.279047,1.01901
103,1826,3.31715,-0.0100342,0.278649,1.01921
105,1824,3.31662,-0.0106686,0.279236,1.01867
107,1822,3.31669,-0.0106644,0.279141,1.01866
109,1820,3.3171,-0.0106117,0.278649,1.01891
111,1818,3.31653,-0.0106947,0.279045,1.01865
113,1816,3.31609,-0.0113476,0.279443,1.01808
115,1814,3.31629,-0.01129,0.279045,1.01833
117,1812,3.3166,-0.0112422,0.279045,1.01836
119,1810,3.31672,-0.0112412,0.279299,1.01837
121,1808,3.31599,-0.0118828,0.279442,1.01781
123,1806,3.31567,-0.0119211,0.279442,1.01779
125,1804,3.31791,-0.00939835,0.278123,1.01722
127,1802,3.31787,-0.00936116,0.27782,1.01745
129,1800,3.31754,-0.010078,0.278122,1.01686
131,1798,3.31742,-0.0100575,0.278122,1.01685
133,1796,3.31721,-0.0100631,0.278122,1.01686
135,1794,3.31791,-0.00993864,0.277725,1.01714
137,1792,3.31709,-0.0107195,0.278772,1.0163
139,1790,3.3167,-0.0107331,0.27852,1.0163
141,1788,3.3168,-0.0106582,0.278519,1.01634
143,1786,3.31701,-0.0106725,0.278519,1.01633
145,1784,3.31632,-0.0113669,0.278917,1.01575
147,1782,3.31643,-0.0113061,0.278518,1.01579
149,1780,3.31643,-0.0119644,0.278516,1.01562
151,1778,3.31796,-0.00877638,0.277196,1.0154
153,1776,3.31787,-0.0093346,0.277387,1.01511
155,1774,3.31784,-0.00939003,0.277196,1.01507
157,1772,3.31735,-0.00943096,0.277594,1.01484
159,1770,3.31776,-0.0101065,0.277593,1.01448
161,1768,3.31756,-0.0101284,0.277593,1.01448
163,1766,3.31722,-0.0100904,0.277593,1.01449
165,1764,3.31748,-0.0107121,0.277591,1.01415
167,1762,3.31721,-0.0107864,0.27799,1.0139
169,1760,3.31682,-0.0106544,0.27799,1.01398
171,1758,3.31721,-0.0106424,0.277591,1.01419
173,1756,3.31688,-0.0112697,0.277989,1.01364
175,1754,3.31632,-0.0112389,0.277989,1.01366
177,1752,3.31696,-0.0113154,0.277988,1.01361
179,1750,3.31593,-0.0115122,0.278387,1.0133
181,1748,3.31634,-0.0119298,0.278387,1.01308
183,1746,3.3159,-0.0120783,0.278387,1.013
185,1744,3.31803,-0.00946384,0.277064,1.01245
187,1742,3.31771,-0.00947684,0.277462,1.01249
189,1740,3.31786,-0.00940742,0.277063,1.01249
191,1738,3.31768,-0.00953308,0.277064,1.01242
193,1736,3.3174,-0.0100726,0.277463,1.01192
195,1734,3.31738,-0.010063,0.277463,1.01192
197,1732,3.31736,-0.0100893,0.277463,1.0119
199,1730,3.31739,-0.0100931,0.277463,1.01191
201,1728,3.31701,-0.0107691,0.277863,1.01134
203,1726,3.31669,-0.0107004,0.277862,1.01137
205,1724,3.31706,-0.0100312,0.277462,1.01194
207,1722,3.31677,-0.0108402,0.277863,1.01128
209,1720,3.31639,-0.0107429,0.277862,1.01135
211,1718,3.31614,-0.0114503,0.278264,1.01076
213,1716,3.31601,-0.0114303,0.278263,1.01078
215,1714,3.31582,-0.0114444,0.278263,1.01076
217,1712,3.31614,-0.0114362,0.278264,1.01076
219,1710,3.31599,-0.0114364,0.278263,1.01076
221,1708,3.31595,-0.0120406,0.278263,1.01044
223,1706,3.31537,-0.0120696,0.278665,1.01022
225,1704,3.31738,-0.009539,0.277337,1.00962
227,1702,3.31706,-0.00959295,0.277337,1.00959
229,1700,3.31749,-0.00944811,0.276936,1.00987
231,1698,3.31735,-0.00943436,0.276935,1.00989
233,1696,3.3171,-0.0102034,0.277335,1.00926
235,1694,3.31703,-0.0101894,0.277337,1.00927
237,1692,3.31709,-0.0101533,0.277337,1.00904
239,1690,3.31699,-0.0102441,0.27774,1.00905
241,1688,3.31689,-0.0102444,0.277747,1.00906
243,1686,3.31679,-0.0102677,0.277739,1.00902
245,1684,3.31678,-0.0103324,0.27774,1.00899
247,1682,3.3168,-0.0101377,0.277744,1.0091
249,1680,3.31681,-0.0102434,0.277835,1.00904
251,1678,3.31631,-0.0103619,0.278148,1.00878
253,1676,3.31605,-0.010527,0.278145,1.00867
255,1674,3.31608,-0.0110725,0.27855,1.00818
257,1672,3.31621,-0.0109298,0.278143,1.00845
259,1670,3.3156,-0.0116098,0.278548,1.00788
261,1668,3.31575,-0.011613,0.278549,1.00788
263,1666,3.31574,-0.0116414,0.278547,1.00787
265,1664,3.31561,-0.011622,0.278548,1.00787
267,1662,3.31571,-0.0116539,0.278548,1.00786
269,1660,3.31508,-0.0122452,0.278954,1.00733
271,1658,3.3149,-0.0123386,0.278953,1.00729
273,1656,3.31682,-0.0091383,0.277619,1.00703
275,1654,3.31677,-0.0096335,0.277619,1.00677
277,1652,3.31682,-0.00974245,0.27762,1.00672
279,1650,3.31689,-0.0103393,0.27762,1.00639
281,1648,3.31684,-0.0102651,0.27762,1.00643
283,1646,3.31692,-0.0103153,0.277618,1.0064
285,1644,3.31642,-0.0102728,0.277619,1.00642
287,1642,3.31641,-0.0102567,0.277621,1.00667
289,1640,3.31616,-0.0102873,0.277617,1.00642
291,1638,3.31619,-0.0108508,0.277616,1.00612
293,1636,3.31584,-0.0109941,0.278023,1.00584
295,1634,3.31563,-0.0111448,0.278023,1.00576
297,1632,3.31511,-0.0117237,0.278022,1.00545
299,1630,3.31534,-0.0116787,0.278029,1.0055
301,1628,3.31542,-0.0122102,0.278024,1.00521
303,1626,3.31512,-0.0122201,0.278116,1.0052
305,1624,3.31496,-0.0122879,0.278024,1.00517
307,1622,3.31485,-0.0121517,0.278219,1.00525
309,1620,3.31508,-0.0122072,0.278024,1.00522
311,1618,3.31661,-0.00979184,0.277093,1.00431
313,1616,3.31664,-0.00973805,0.277093,1.00435
315,1614,3.31653,-0.00969443,0.277186,1.00436
317,1612,3.31596,-0.00975688,0.277499,1.00412
319,1610,3.31599,-0.00974104,0.277501,1.00412
321,1608,3.31571,-0.00975324,0.277498,1.00411
323,1606,3.31541,-0.0103792,0.277503,1.00381
325,1604,3.31637,-0.0102828,0.277093,1.00406
327,1602,3.31574,-0.0110038,0.278006,1.00346
329,1600,3.31617,-0.0109378,0.277093,1.00371
331,1598,3.31624,-0.0109418,0.277284,1.00351
333,1596,3.31567,-0.011006,0.277503,1.00349
335,1594,3.31589,-0.0116477,0.2775,1.00313
337,1592,3.31563,-0.0116828,0.277502,1.00313
339,1590,3.31543,-0.011549,0.277505,1.0032
341,1588,3.31504,-0.0117428,0.277906,1.00287
343,1586,3.31566,-0.0116069,0.277497,1.00315
345,1584,3.315625,-0.0123386,0.277905,1.00256
347,1582,3.3155,-0.0123611,0.277908,1.00254
349,1580,3.31658,-0.00915649,0.276568,1.00227
351,1578,3.31712,-0.00970817,0.276567,1.00198
353,1576,3.31664,-0.00970089,0.276567,1.00198
355,1574,3.31664,-0.00973629,0.276567,1.00196
357,1572,3.31664,-0.01029,0.276567,1.00168
359,1570,3.31666,-0.0102546,0.276567,1.0017
361,1568,3.31662,-0.0103315,0.276566,1.00165
363,1566,3.31579,-0.0104426,0.276974,1.00139
365,1564,3.316,-0.0102869,0.276567,1.00168
367,1562,3.31589,-0.0110051,0.276978,1.00111
369,1560,3.31591,-0.0109864,0.276982,1.00113
371,1558,3.31568,-0.0110418,0.276973,1.00107
373,1556,3.31533,-0.0110386,0.276972,1.00106
375,1554,3.31536,-0.0116752,0.276972,1.00073
377,1552,3.31506,-0.011734,0.277382,1.0005
379,1550,3.31477,-0.0123552,0.277573,1.00017
381,1548,3.31497,-0.0123249,0.277381,1.00017
383,1546,3.31479,-0.0122822,0.277381,1.0002
385,1544,3.31433,-0.012324,0.277381,1.00018
387,1542,3.31474,-0.0123555,0.277631,1.00017
389,1540,3.31667,-0.00975515,0.276041,0.999585
391,1538,3.31675,-0.00965119,0.276041,0.999634
393,1536,3.31674,-0.00981308,0.276041,0.99955
395,1534,3.31662,-0.00976145,0.276041,0.99958
397,1532,3.31662,-0.00982921,0.276041,0.999551
399,1530,3.31592,-0.0104155,0.276449,0.999027
401,1528,3.31662,-0.0103539,0.276041,0.999269
403,1526,3.31647,-0.0110231,0.276449,0.99871
405,1524,3.31663,-0.0108983,0.276039,0.998988
407,1522,3.3162,-0.0110189,0.276448,0.998714
409,1520,3.3157,-0.0111716,0.276859,0.998406
411,1518,3.31594,-0.0110126,0.276448,0.998717
413,1516,3.31595,-0.0116444,0.276448,0.998376
415,1514,3.31554,-0.0116534,0.276448,0.998376
417,1512,3.31503,-0.0117661,0.276857,0.998102
419,1510,3.31532,-0.0116707,0.276448,0.998365
421,1508,3.31474,-0.0117649,0.276858,0.998104
423,1506,3.3147,-0.0124146,0.276857,0.997757
425,1504,3.31449,-0.0123724,0.276857,0.997787
427,1502,3.31624,-0.0101747,0.275925,0.996772
429,1500,3.31585,-0.00984092,0.275926,0.996953
431,1498,3.31595,-0.00981238,0.275926,0.996962
433,1496,3.31641,-0.00973938,0.275514,0.997214
435,1494,3.31574,-0.0103836,0.275923,0.996662
437,1492,3.31667,-0.0103439,0.275761,0.996902
439,1490,3.31658,-0.0103323,0.275514,0.996905
441,1488,3.31651,-0.0103431,0.275512,0.996891
443,1486,3.31619,-0.011058,0.275922,0.996315
445,1484,3.31601,-0.010986,0.276173,0.996347
447,1482,3.31614,-0.0109899,0.275924,0.996341
449,1480,3.31597,-0.0110544,0.275923,0.996316
451,1478,3.31614,-0.0109844,0.276431,0.996346
453,1476,3.31565,-0.011745,0.276334,0.99574
455,1474,3.31494,-0.0117084,0.276334,0.995761
457,1472,3.31542,-0.0123442,0.276332,0.995429
459,1470,3.31546,-0.0123727,0.276333,0.995413
461,1468,3.31506,-0.0123261,0.276333,0.995436
463,1466,3.31438,-0.0124806,0.276937,0.995139
465,1464,3.31458,-0.0123899,0.276745,0.995196
467,1462,3.31446,-0.0124995,0.276746,0.995134
469,1460,3.31389,-0.0125085,0.277159,0.994909
471,1458,3.31428,-0.0124026,0.276746,0.995182
473,1456,3.31389,-0.0124582,0.27716,0.99494
475,1454,3.31588,-0.0097966,0.275813,0.994365
477,1452,3.31584,-0.00993116,0.275813,0.994304
479,1450,3.31592,-0.00984807,0.275812,0.994342
481,1448,3.31635,-0.00990424,0.275813,0.994312
483,1446,3.31606,-0.00995392,0.275812,0.99429
485,1444,3.31586,-0.0104775,0.275812,0.994012
487,1442,3.31625,-0.0104647,0.275812,0.994016
489,1440,3.31576,-0.0105244,0.276316,0.993766
491,1438,3.31558,-0.0105727,0.276225,0.993736
493,1436,3.31532,-0.0105704,0.276224,0.993746
495,1434,3.31569,-0.0104506,0.276322,0.994033
497,1432,3.3148,-0.0112894,0.276641,0.993169
499,1430,3.31494,-0.011191,0.276225,0.993427
501,1428,3.3149,-0.011244,0.276225,0.993406
503,1426,3.31409,-0.0119452,0.276639,0.992819
505,1424,3.31409,-0.0118646,0.276224,0.993072
507,1422,3.31421,-0.012536,0.276638,0.992512
509,1420,3.31394,-0.0124142,0.276638,0.992578
511,1418,3.31409,-0.0126342,0.276637,0.992471
513,1416,3.31412,-0.0129984,0.276637,0.992284
515,1414,3.31461,-0.0124884,0.276223,0.992764
517,1412,3.31616,-0.00986513,0.275289,0.991951
519,1410,3.31626,-0.00989582,0.275289,0.991936
521,1408,3.31637,-0.00988162,0.275801,0.991937
523,1406,3.31588,-0.00978108,0.27529,0.991986
525,1404,3.31605,-0.00992737,0.275289,0.991918
527,1402,3.31557,-0.0106135,0.275703,0.991351
529,1400,3.31557,-0.0105348,0.275289,0.991616
531,1398,3.31503,-0.0112624,0.275951,0.991018
533,1396,3.3147,-0.0111867,0.275702,0.991055
535,1394,3.315,-0.0112484,0.275702,0.991026
537,1392,3.31489,-0.01122,0.275703,0.991038
539,1390,3.31471,-0.0112232,0.275703,0.991041
541,1388,3.31478,-0.011918,0.276118,0.990717
543,1386,3.31461,-0.0118591,0.276117,0.990491
545,1384,3.31457,-0.0119272,0.276117,0.99045
547,1382,3.31443,-0.0119483,0.27631,0.990447
549,1380,3.31541,-0.0118479,0.275702,0.990717
551,1378,3.31469,-0.0119481,0.276116,0.990448
553,1376,3.31393,-0.0125707,0.276116,0.990116
555,1374,3.31625,-0.00929527,0.274765,0.989852
557,1372,3.31632,-0.00982885,0.274765,0.989571
559,1370,3.31585,-0.00985005,0.274765,0.989558
561,1368,3.31582,-0.0099011,0.274764,0.989536
563,1366,3.31607,-0.0105175,0.274764,0.989225
565,1364,3.31534,-0.0106853,0.275179,0.988921
567,1362,3.31517,-0.0105718,0.275179,0.988984
569,1360,3.31522,-0.0106006,0.275179,0.988958
571,1358,3.31431,-0.0106735,0.275596,0.988708
573,1356,3.3145,-0.0106845,0.275595,0.988696
575,1354,3.31458,-0.0112711,0.275595,0.988392
577,1352,3.3146,-0.0113609,0.275594,0.988356
579,1350,3.31466,-0.011405,0.275594,0.988336
581,1348,3.31411,-0.0119621,0.276012,0.987831
583,1346,3.31449,-0.0118726,0.275785,0.988081
585,1344,3.31445,-0.0119047,0.275592,0.988063
587,1342,3.31417,-0.0125373,0.27601,0.987524
589,1340,3.3142,-0.0124611,0.275591,0.987784
591,1338,3.31368,-0.0126459,0.27601,0.987734
593,1336,3.31409,-0.0124884,0.275591,0.987767
595,1334,3.31502,-0.00990017,0.274656,0.986924
597,1332,3.3152,-0.00990572,0.274655,0.986919
599,1330,3.31478,-0.0100044,0.275072,0.986651
601,1328,3.31513,-0.0099762,0.274744,0.986878
603,1326,3.31465,-0.0100118,0.275069,0.986647
605,1324,3.31469,-0.0106439,0.275069,0.986321
607,1322,3.31474,-0.0106386,0.275071,0.986329
609,1320,3.31468,-0.0112066,0.27507,0.986034
611,1318,3.31449,-0.0112931,0.275488,0.985773
613,1316,3.31482,-0.0111662,0.275066,0.986042
615,1314,3.31488,-0.0112481,0.275069,0.986014
617,1312,3.31456,-0.0118569,0.275068,0.985697
619,1310,3.3141,-0.0118953,0.275066,0.985671
621,1308,3.31432,-0.0119299,0.275064,0.985657
623,1306,3.31314,-0.0118875,0.275484,0.985465
625,1304,3.3134,-0.0126582,0.275485,0.985072
627,1302,3.31304,-0.0126929,0.276154,0.984842
629,1300,3.31319,-0.0125721,0.275483,0.985102
631,1298,3.31321,-0.0126174,0.275734,0.985101
633,1296,3.31533,-0.00932553,0.27413,0.984825
635,1294,3.31549,-0.0100138,0.27413,0.98447
637,1292,3.31543,-0.00991425,0.27413,0.984515
639,1290,3.31565,-0.0100508,0.274131,0.984452
641,1288,3.31526,-0.0107135,0.274638,0.983891
643,1286,3.31493,-0.0107313,0.274549,0.983891
645,1284,3.31501,-0.0105787,0.274128,0.98418
647,1282,3.31444,-0.010693,0.274548,0.983914
649,1280,3.31442,-0.0107207,0.274547,0.983893
651,1278,3.31375,-0.0113404,0.274967,0.983363
653,1276,3.31382,-0.0114821,0.275484,0.983286
655,1274,3.31391,-0.0113149,0.274968,0.983376
657,1272,3.31425,-0.0113254,0.274545,0.983576
659,1270,3.31419,-0.0121327,0.274967,0.982962
661,1268,3.31425,-0.0120791,0.274968,0.982979
663,1266,3.31397,-0.012046,0.274967,0.982995
665,1264,3.31324,-0.0128256,0.275387,0.982386
667,1262,3.31352,-0.0127348,0.275388,0.982436
669,1260,3.31279,-0.012818,0.275389,0.982398
671,1258,3.31545,-0.00942715,0.273606,0.982617
673,1256,3.3147,-0.0101158,0.274028,0.981806
675,1254,3.31455,-0.0101426,0.274029,0.981794
677,1252,3.3147,-0.0101386,0.274029,0.9818
679,1250,3.31449,-0.00995386,0.274029,0.981882
681,1248,3.3143,-0.0107838,0.274449,0.981253
683,1246,3.3147,-0.0108212,0.274026,0.981448
685,1244,3.31433,-0.0107543,0.27445,0.981267
687,1242,3.31444,-0.011479,0.27445,0.980888
689,1240,3.31484,-0.0113891,0.274448,0.980946
691,1238,3.31422,-0.0114348,0.274448,0.980911
693,1236,3.31396,-0.0120914,0.274447,0.980592
695,1234,3.31378,-0.0121257,0.274446,0.980563
697,1232,3.31354,-0.0120661,0.274447,0.980595
699,1230,3.31311,-0.0121903,0.274868,0.98032
701,1228,3.31241,-0.0128459,0.27529,0.979757
703,1226,3.31326,-0.0127646,0.274865,0.980013
705,1224,3.3136,-0.0127175,0.274444,0.980263
707,1222,3.31473,-0.0102011,0.273926,0.979131
709,1220,3.31549,-0.0101349,0.273009,0.979382
711,1218,3.31483,-0.0100772,0.27393,0.979206
713,1216,3.3147,-0.0108359,0.273927,0.978808
715,1214,3.31416,-0.0107589,0.273927,0.978857
717,1212,3.31411,-0.0108116,0.273927,0.978836
719,1210,3.3137,-0.0114345,0.273927,0.97852
721,1208,3.3139,-0.01137,0.273925,0.978552
723,1206,3.31338,-0.0115172,0.274348,0.97826
725,1204,3.31332,-0.0121265,0.274347,0.977944
727,1202,3.31401,-0.0120987,0.273925,0.978186
729,1200,3.31369,-0.0120976,0.273925,0.978177
731,1198,3.31362,-0.012729,0.274864,0.977636
733,1196,3.31335,-0.0127945,0.274348,0.977607
735,1194,3.31326,-0.0128323,0.274348,0.977588
737,1192,3.31291,-0.0128615,0.27435,0.977575
739,1190,3.312,-0.0129474,0.274773,0.977318
741,1188,3.31214,-0.0130274,0.274773,0.97728
743,1186,3.31446,-0.0102776,0.273917,0.976474
745,1184,3.31405,-0.0102342,0.273833,0.976499
747,1182,3.31457,-0.0101427,0.273406,0.976763
749,1180,3.31455,-0.0108801,0.273405,0.976383
751,1178,3.31369,-0.0109124,0.274348,0.976153
753,1176,3.31416,-0.0109137,0.273831,0.976156
755,1174,3.31377,-0.0115656,0.273829,0.975813
757,1172,3.3137,-0.0116006,0.27383,0.975817
759,1170,3.31374,-0.0116212,0.273406,0.976018
761,1168,3.31316,-0.0121963,0.273831,0.975521
763,1166,3.31321,-0.0121538,0.273832,0.975536
765,1164,3.31242,-0.012435,0.274685,0.974955
767,1162,3.31275,-0.012193,0.274258,0.975295
769,1160,3.31313,-0.0129156,0.274074,0.975152
771,1158,3.31295,-0.0129618,0.274256,0.974914
773,1156,3.31472,-0.00961518,0.272886,0.974625
775,1154,3.31423,-0.0102659,0.273312,0.974074
777,1152,3.31455,-0.0101932,0.272883,0.974324
779,1150,3.31443,-0.0108928,0.272476,0.973969
781,1148,3.31349,-0.0109704,0.273311,0.973717
783,1146,3.31395,-0.0108619,0.272883,0.973991
785,1144,3.31359,-0.0114911,0.273309,0.973452
787,1142,3.31348,-0.0115176,0.27331,0.973449
789,1140,3.31405,-0.0116319,0.27331,0.973401
791,1138,3.31368,-0.0115602,0.27331,0.973426
793,1136,3.31361,-0.0123512,0.273738,0.97282
795,1134,3.31314,-0.0123889,0.273738,0.972789
797,1132,3.31326,-0.0122782,0.273311,0.973069
799,1130,3.31253,-0.0130481,0.273774,0.972455
801,1128,3.3125,-0.0129833,0.273738,0.972503
803,1126,3.31251,-0.0130383,0.273738,0.972721
805,1124,3.31403,-0.0102467,0.272794,0.971666
807,1122,3.31491,-0.0102309,0.272366,0.97191
809,1120,3.31456,-0.0103309,0.272794,0.971642
811,1118,3.31441,-0.0103649,0.272793,0.971621
813,1116,3.31429,-0.0103007,0.272794,0.971638
815,1114,3.31351,-0.0110273,0.273222,0.971072
817,1112,3.31312,-0.011136,0.273465,0.971014
819,1110,3.31314,-0.0119587,0.273221,0.970604
821,1108,3.31283,-0.011726,0.27322,0.970721
823,1106,3.3129,-0.0124118,0.273219,0.970377
825,1104,3.31335,-0.0123129,0.272791,0.970641
827,1102,3.31308,-0.0130634,0.273218,0.970055
829,1100,3.31311,-0.0130586,0.273219,0.97005
831,1098,3.3131,-0.0130563,0.273219,0.970058
833,1096,3.31291,-0.0130494,0.273727,0.970061
835,1094,3.3137,-0.0103474,0.272274,0.969215
837,1092,3.31397,-0.010355,0.272792,0.969205
839,1090,3.31349,-0.0103226,0.272274,0.96922
841,1088,3.31327,-0.0110828,0.272703,0.968622
843,1086,3.31372,-0.011065,0.272366,0.968858
845,1084,3.31364,-0.0111415,0.272272,0.96881
847,1082,3.31355,-0.0116676,0.272272,0.968552
849,1080,3.31318,-0.0123774,0.272701,0.967978
851,1078,3.313,-0.0124375,0.272701,0.967952
853,1076,3.31259,-0.0123783,0.272666,0.96798
855,1074,3.31269,-0.0130932,0.272699,0.967627
857,1072,3.31229,-0.0130228,0.272699,0.967657
859,1070,3.31366,-0.00965267,0.271752,0.967132
861,1068,3.31444,-0.0102144,0.271322,0.967081
863,1066,3.31434,-0.0104202,0.271752,0.966754
865,1064,3.31404,-0.0103809,0.271752,0.96677
867,1062,3.31358,-0.0110636,0.272182,0.966206
869,1060,3.31327,-0.0110782,0.272183,0.966209
871,1058,3.31372,-0.0109951,0.271752,0.966466
873,1056,3.31283,-0.0117162,0.272181,0.965889
875,1054,3.31278,-0.0117307,0.272181,0.965876
877,1052,3.31272,-0.0116678,0.27218,0.9659
879,1050,3.31275,-0.0123925,0.272181,0.965554
881,1048,3.3126,-0.0131746,0.272613,0.965189
883,1046,3.31268,-0.01307,0.272612,0.964999
885,1044,3.31239,-0.0130638,0.272612,0.964999
887,1042,3.31133,-0.0131365,0.272612,0.964968
889,1040,3.3136,-0.010394,0.271661,0.964119
891,1038,3.31284,-0.0103839,0.271661,0.964108
893,1036,3.31303,-0.0103711,0.271658,0.96411
895,1034,3.31353,-0.0111308,0.271743,0.963745
897,1032,3.31348,-0.0111231,0.27166,0.963754
899,1030,3.31324,-0.0109647,0.271659,0.963831
901,1028,3.31311,-0.0118192,0.272092,0.963183
903,1026,3.31273,-0.0118883,0.272093,0.963151
905,1024,3.31196,-0.0118088,0.272095,0.96319
907,1022,3.31193,-0.0125779,0.272528,0.962603
909,1020,3.31143,-0.0124903,0.272529,0.962632
911,1018,3.312,-0.0123881,0.27209,0.9629
913,1016,3.31173,-0.0132877,0.272525,0.962245
915,1014,3.31175,-0.0133096,0.272528,0.962234
917,1012,3.31323,-0.0105599,0.271578,0.961383
919,1010,3.3133,-0.0104773,0.271144,0.961652
921,1008,3.31279,-0.0104809,0.271141,0.961635
923,1006,3.31268,-0.0112284,0.271578,0.961044
925,1004,3.31276,-0.0112324,0.271579,0.961053
927,1002,3.31282,-0.0112648,0.271772,0.96104
929,1000,3.31279,-0.0113358,0.271575,0.961003
931,998,3.31199,-0.0120021,0.272013,0.96046
933,996,3.31202,-0.0119471,0.272014,0.960483
935,994,3.3117,-0.0126202,0.272014,0.960157
937,992,3.31175,-0.0125699,0.272014,0.960179
939,990,3.31086,-0.0133657,0.272449,0.95956
941,988,3.31143,-0.0133128,0.272011,0.959805
943,986,3.31322,-0.00986152,0.270624,0.959517
945,984,3.31344,-0.0106026,0.271061,0.958929
947,982,3.3131,-0.0105779,0.27106,0.958936
949,980,3.31266,-0.0105872,0.27106,0.958932
951,978,3.31183,-0.0113244,0.271497,0.958344
953,976,3.31195,-0.0112763,0.271498,0.95838
955,974,3.311,-0.0120507,0.271936,0.957765
957,972,3.31184,-0.012012,0.271736,0.958025
959,970,3.31189,-0.0127147,0.271494,0.957666
961,968,3.31124,-0.0134311,0.271932,0.957099
963,966,3.31124,-0.0133972,0.271933,0.957123
965,964,3.31093,-0.0134582,0.271932,0.957096
967,962,3.31064,-0.013456,0.272457,0.957096
969,960,3.31208,-0.0106801,0.270978,0.956229
971,958,3.31206,-0.0105655,0.270981,0.956284
973,956,3.31243,-0.0105763,0.270538,0.956501
975,954,3.3123,-0.0113333,0.270977,0.955908
977,952,3.31211,-0.0113226,0.27098,0.955913
979,950,3.31169,-0.0114455,0.27098,0.955855
981,948,3.31116,-0.0119467,0.27142,0.955203
983,946,3.31059,-0.0122243,0.271419,0.955251
985,944,3.31077,-0.0127831,0.27142,0.95498
987,942,3.31095,-0.0128634,0.271417,0.954954
989,940,3.31107,-0.0134537,0.271502,0.954649
991,938,3.31115,-0.013486,0.271418,0.95464
993,936,3.31217,-0.0106636,0.270463,0.953803
995,934,3.31207,-0.0106851,0.270463,0.953784
997,932,3.31176,-0.010661,0.270546,0.953804
999,930,3.31125,-0.0114084,0.270906,0.953217
1001,928,3.31209,-0.0113992,0.270463,0.953443
1003,926,3.3122,-0.0121005,0.270904,0.952879
1005,924,3.31157,-0.0121681,0.270987,0.952837
1007,922,3.31101,-0.0121957,0.270904,0.952829
1009,920,3.31028,-0.0128923,0.271347,0.952269
1011,918,3.31023,-0.0129685,0.271347,0.952235
1013,916,3.31029,-0.0129068,0.271346,0.952267
1015,914,3.31024,-0.0135914,0.271346,0.951928
1017,912,3.31248,-0.0100033,0.269945,0.951663
1019,910,3.31178,-0.0106411,0.27039,0.951138
1021,908,3.31173,-0.0114574,0.270388,0.950743
1023,906,3.31073,-0.0115029,0.270834,0.950497
1025,904,3.31081,-0.0114566,0.270832,0.950517
1027,902,3.31053,-0.0121993,0.270831,0.948702
1029,900,3.31073,-0.0122272,0.271069,0.950143
1031,898,3.31067,-0.0128247,0.27083,0.949847
1033,896,3.31046,-0.012874,0.27083,0.949839
1035,894,3.30996,-0.0129309,0.270829,0.9498
1037,892,3.30926,-0.013641,0.270853,0.949233
1039,890,3.31138,-0.0100101,0.269954,0.948976
1041,888,3.31154,-0.0107511,0.269871,0.948617
1043,886,3.31108,-0.011517,0.270316,0.948035
1045,884,3.31089,-0.0115587,0.270317,0.948013
1047,882,3.31046,-0.0122027,0.270312,0.947698
1049,880,3.31042,-0.0123007,0.270314,0.947658
1051,878,3.30955,-0.0121698,0.270761,0.947494
1053,876,3.31056,-0.0129251,0.270841,0.947357
1055,874,3.30977,-0.0130023,0.271001,0.946923
1057,872,3.31075,-0.012898,0.270313,0.947368
1059,870,3.30933,-0.0136968,0.270761,0.946753
1061,868,3.30938,-0.0137317,0.270761,0.946742
1063,866,3.31065,-0.0108473,0.269802,0.94589
1065,864,3.31084,-0.0109987,0.269798,0.945823
1067,862,3.31093,-0.0115743,0.2698,0.945544
1069,860,3.31069,-0.0115504,0.269799,0.945552
1071,858,3.31009,-0.0122585,0.269878,0.945214
1073,856,3.30954,-0.0130586,0.270248,0.94462
1075,854,3.30934,-0.0129597,0.270248,0.944655
1077,852,3.31028,-0.0129624,0.269797,0.944883
1079,850,3.31008,-0.0136839,0.270246,0.944313
1081,848,3.30897,-0.0137445,0.270697,0.944073
1083,846,3.3109,-0.0102527,0.269288,0.943725
1085,844,3.30974,-0.0110199,0.26974,0.943129
1087,842,3.31049,-0.0108838,0.269286,0.943425
1089,840,3.31028,-0.0117427,0.269736,0.94279
1091,838,3.31012,-0.0116902,0.269739,0.942818
1093,836,3.30957,-0.0117923,0.269737,0.942777
1095,834,3.30884,-0.0125064,0.27019,0.942203
1097,832,3.30891,-0.013176,0.270189,0.941884
1099,830,3.30982,-0.0131357,0.269737,0.942132
1101,828,3.3086,-0.0139889,0.270642,0.941281
1103,826,3.30914,-0.0138364,0.270189,0.941573
1105,824,3.31056,-0.0102837,0.268775,0.941237
1107,822,3.30988,-0.0109842,0.269227,0.94069
1109,820,3.31007,-0.0109786,0.269228,0.940712
1111,818,3.31,-0.0118817,0.269873,0.940044
1113,816,3.30956,-0.011857,0.269678,0.940054
1115,814,3.30939,-0.0124523,0.269679,0.93978
1117,812,3.30883,-0.0124639,0.269678,0.939754
1119,810,3.30877,-0.0132636,0.270131,0.939155
1121,808,3.30874,-0.0132764,0.270132,0.939158
1123,806,3.30917,-0.0132983,0.26924,0.939621
1125,804,3.3081,-0.0140846,0.270131,0.938765
1127,802,3.30927,-0.0112104,0.269168,0.937889
1129,800,3.30905,-0.0110857,0.269168,0.937947
1131,798,3.30932,-0.0118481,0.269168,0.937589
1133,796,3.30976,-0.0125487,0.269167,0.937258
1135,794,3.3092,-0.0125394,0.269167,0.937264
1137,792,3.30863,-0.0133403,0.269622,0.936664
1139,790,3.3075,-0.0133364,0.27008,0.936426
1141,788,3.30825,-0.0133619,0.26962,0.936644
1143,786,3.30796,-0.0142451,0.270078,0.936014
1145,784,3.308,-0.0140718,0.269619,0.936305
1147,782,3.30913,-0.0111112,0.268733,0.93546
1149,780,3.30867,-0.0111395,0.269113,0.935219
1151,778,3.30903,-0.0119734,0.269111,0.934835
1153,776,3.3092,-0.0119093,0.269112,0.934858
1155,774,3.30855,-0.0126395,0.269111,0.934515
1157,772,3.30796,-0.0125844,0.269189,0.934535
1159,770,3.30741,-0.0134047,0.26957,0.933933
1161,768,3.30769,-0.0142674,0.269568,0.933527
1163,766,3.30794,-0.0141178,0.269569,0.933599
1165,764,3.30918,-0.0104278,0.268145,0.933295
1167,762,3.30854,-0.0112219,0.268602,0.932701
1169,760,3.30907,-0.0111173,0.268141,0.932978
1171,758,3.30915,-0.0119887,0.2686,0.931015
1173,756,3.30852,-0.0117843,0.268599,0.93243
1175,754,3.3077,-0.0128095,0.269059,0.931719
1177,752,3.30701,-0.0127182,0.269058,0.931764
1179,750,3.30749,-0.013489,0.269057,0.931409
1181,748,3.30797,-0.0134628,0.269058,0.931426
1183,746,3.3066,-0.0143295,0.269522,0.930795
1185,744,3.30855,-0.0104464,0.26809,0.93057
1187,742,3.30822,-0.0112899,0.268551,0.929953
1189,740,3.30853,-0.0113852,0.268553,0.929912
1191,738,3.30835,-0.0120239,0.268551,0.929611
1193,736,3.3077,-0.0120699,0.26855,0.929576
1195,734,3.30664,-0.0128167,0.269014,0.929002
1197,732,3.30742,-0.0128166,0.268623,0.929238
1199,730,3.30729,-0.0136362,0.269012,0.928638
1201,728,3.30702,-0.014252,0.269013,0.928351
1203,726,3.30809,-0.0106183,0.268042,0.927776
1205,724,3.30808,-0.0113386,0.268579,0.92744
1207,722,3.30844,-0.0113831,0.268043,0.927431
1209,720,3.3073,-0.0121251,0.268508,0.926854
1211,718,3.30696,-0.0121229,0.268507,0.926849
1213,716,3.30667,-0.01279,0.268504,0.926525
1215,714,3.30737,-0.0136585,0.26904,0.926127
1217,712,3.30673,-0.0135511,0.268499,0.92618
1219,710,3.30577,-0.0144295,0.26897,0.925554
1221,708,3.30769,-0.0105582,0.267725,0.925307
1223,706,3.30746,-0.0115097,0.26823,0.923224
1225,704,3.30785,-0.0122056,0.267995,0.924315
1227,702,3.30672,-0.0121981,0.267996,0.924307
1229,700,3.30612,-0.0129474,0.268464,0.923742
1231,698,3.30696,-0.0128823,0.267994,0.924007
1233,696,3.30646,-0.0137853,0.268462,0.923358
1235,694,3.30561,-0.0137993,0.268463,0.923354
1237,692,3.30522,-0.014425,0.268461,0.923057
1239,690,3.30771,-0.0115184,0.26749,0.922136
1241,688,3.30757,-0.0114558,0.267489,0.922157
1243,686,3.30705,-0.0122724,0.267493,0.921791
1245,684,3.30647,-0.0122226,0.26749,0.921815
1247,682,3.30613,-0.0130679,0.267962,0.921207
1249,680,3.30617,-0.0137062,0.26796,0.920897
1251,678,3.30573,-0.0137881,0.267956,0.92086
1253,676,3.30484,-0.0145495,0.268622,0.920281
1255,674,3.30769,-0.011573,0.266985,0.919617
1257,672,3.30722,-0.0115633,0.266984,0.919609
1259,670,3.30629,-0.0123703,0.267455,0.91902
1261,668,3.30615,-0.012276,0.267456,0.919058
1263,666,3.30662,-0.0130772,0.267451,0.918685
1265,664,3.3065,-0.0130341,0.267452,0.918702
1267,662,3.3049,-0.0138656,0.267922,0.918096
1269,660,3.30486,-0.0139314,0.267925,0.91807
1271,658,3.30471,-0.014804,0.268398,0.917435
1273,656,3.30707,-0.0114461,0.266475,0.917159
1275,654,3.30625,-0.0115865,0.266948,0.916853
1277,652,3.30595,-0.0122771,0.266944,0.916537
1279,650,3.30636,-0.0130772,0.267178,0.916182
1281,648,3.30493,-0.0131996,0.267417,0.915886
1283,646,3.30468,-0.0138776,0.266927,0.915579
1285,644,3.30465,-0.0148638,0.267891,0.914904
1287,642,3.30664,-0.0108516,0.266441,0.914678
1289,640,3.30619,-0.0115862,0.266444,0.914342
1291,638,3.30543,-0.012377,0.266919,0.913992
1293,636,3.30589,-0.0124897,0.266918,0.913712
1295,634,3.30515,-0.0132798,0.266918,0.913357
1297,632,3.3048,-0.0131576,0.266991,0.913405
1299,630,3.30452,-0.0141421,0.267395,0.912735
1301,628,3.30426,-0.0148396,0.267394,0.912407
1303,626,3.30605,-0.0109504,0.266132,0.912114
1305,624,3.30553,-0.011708,0.266412,0.911541
1307,622,3.30632,-0.0117348,0.265934,0.911759
1309,620,3.30495,-0.0125809,0.266411,0.911147
1311,618,3.30391,-0.0133863,0.266891,0.91055
1313,616,3.30463,-0.0142244,0.266893,0.910174
1315,614,3.30403,-0.0141753,0.266891,0.910203
1317,612,3.30355,-0.0148254,0.266892,0.909906
1319,610,3.30625,-0.0110078,0.265433,0.909578
1321,608,3.30588,-0.0118537,0.265914,0.908957
1323,606,3.3048,-0.0127385,0.266394,0.908332
1325,604,3.30418,-0.0125888,0.266392,0.908394
1327,602,3.30494,-0.0135546,0.266394,0.907966
1329,600,3.3036,-0.0143801,0.267072,0.907367
1331,598,3.30275,-0.0142896,0.266874,0.907397
1333,596,3.30555,-0.0112368,0.2652,0.906701
1335,594,3.30538,-0.0118135,0.265408,0.906446
1337,592,3.3043,-0.0126337,0.265891,0.905848
1339,590,3.30429,-0.0134808,0.265889,0.905477
1341,588,3.30364,-0.0143399,0.266374,0.904843
1343,586,3.30289,-0.0143159,0.266599,0.904858
1345,584,3.30288,-0.02104,0.265887,0.904475
1347,582,3.30538,-0.0160064,0.26442,0.903442
1349,580,3.30426,-0.00994756,0.2649,0.903514
1351,578,3.30409,-0.0187202,0.264904,0.903226
1353,576,3.30415,-0.0175993,0.264903,0.90251
1355,574,3.30327,-0.0196733,0.265388,0.90257
1357,572,3.30246,-0.0184704,0.265388,0.901883
1359,570,3.30295,-0.0192362,0.265386,0.90154
1361,568,3.30478,-0.0174141,0.264403,0.90129
1363,566,3.30368,-0.018147,0.264889,0.900727
1365,564,3.30413,-0.0169463,0.264402,0.900027
1367,562,3.30335,-0.0169203,0.264401,0.900288
1369,560,3.30265,-0.0177978,0.264887,0.899671
1371,558,3.30333,-0.0145469,0.263914,0.899138
1373,556,3.30286,-0.0152413,0.263985,0.898832
1375,554,3.30393,-0.0120845,0.262926,0.89792
1377,552,3.30458,-0.0189187,0.262511,0.897523
1379,550,3.30414,-0.0188312,0.262441,0.897549
1381,548,3.30373,-0.0115769,0.262442,0.897176
1383,546,3.30331,-0.0124888,0.262924,0.896535
1385,544,3.30285,-0.0206291,0.262922,0.896525
1387,542,3.30169,-0.0213824,0.263478,0.895975
1389,540,3.30416,-0.0182126,0.261933,0.895313
1391,538,3.30371,-0.0170479,0.261933,0.894602
1393,536,3.30304,-0.0191276,0.262418,0.894683
1395,534,3.30339,-0.0156604,0.261449,0.894476
1397,532,3.30317,-0.0167039,0.261931,0.893539
1399,530,3.30135,-0.0215487,0.262901,0.893378
1401,528,3.30485,-0.0121113,0.259976,0.892518
1403,526,3.30444,-0.0108664,0.259975,0.891846
1405,524,3.30338,-0.0129438,0.260455,0.891912
1407,522,3.30354,-0.0116602,0.259972,0.891498
1409,520,3.30293,-0.012547,0.260453,0.890875
1411,518,3.3023,-0.0214399,0.260452,0.890563
1413,516,3.30509,-0.0161415,0.2585,0.889847
1415,514,3.30369,-0.0183818,0.25946,0.889616
1417,512,3.30374,-0.0109371,0.260003,0.88929
1419,510,3.30306,-0.017912,0.259263,0.888614
1421,508,3.30328,-0.0165751,0.259167,0.888206
1423,506,3.30193,-0.0208169,0.259938,0.888328
1425,504,3.30496,-0.0133811,0.257502,0.887542
1427,502,3.30418,-0.014222,0.257982,0.886937
1429,500,3.30341,-0.0149819,0.25798,0.886611
1431,498,3.30351,-0.0117528,0.257499,0.885625
1433,496,3.3031,-0.0206634,0.257498,0.885521
1435,494,3.3021,-0.0133532,0.257977,0.885118
1437,492,3.30446,-0.0163454,0.256024,0.884123
1439,490,3.30386,-0.0189322,0.256502,0.883994
1441,488,3.30307,-0.0170659,0.2565,0.883577
1443,486,3.30361,-0.0179261,0.2565,0.883018
1445,484,3.30271,-0.018712,0.256498,0.882857
1447,482,3.30178,-0.0195368,0.256978,0.882276
1449,480,3.30417,-0.0143597,0.255501,0.881245
1451,478,3.30459,-0.0121215,0.254547,0.881463
1453,476,3.30316,-0.015024,0.255712,0.880958
1455,474,3.30379,-0.0138995,0.25502,0.880457
1457,472,3.30201,-0.0167755,0.255976,0.879966
1459,470,3.30158,-0.0154988,0.255976,0.879301
1461,468,3.305,-0.0183541,0.253545,0.87884
1463,466,3.30324,-0.0129166,0.254497,0.878354
1465,464,3.30296,-0.01175,0.254495,0.877647
1467,462,3.30325,-0.018741,0.254018,0.877218
1469,460,3.30141,-0.0217872,0.254974,0.876669
1471,458,3.30467,-0.0152842,0.252539,0.876666
1473,456,3.3046,-0.0141903,0.252539,0.87591
1475,454,3.3029,-0.0192297,0.253492,0.875724
1477,452,3.30318,-0.0159407,0.253012,0.874923
1479,450,3.30288,-0.0167544,0.25355,0.874573
1481,448,3.30204,-0.0153585,0.25301,0.873949
1483,446,3.30429,-0.0135875,0.252009,0.873658
1485,444,3.30404,-0.0122364,0.251533,0.873243
1487,442,3.30325,-0.0130527,0.252006,0.872657
1489,440,3.30367,-0.0117838,0.251531,0.872208
1491,438,3.30241,-0.0126904,0.252006,0.871594
1493,436,3.3019,-0.0133849,0.252543,0.86998
1495,434,3.30407,-0.0186249,0.251003,0.87036
1497,432,3.30331,-0.0110685,0.251001,0.869999
1499,430,3.30279,-0.0180486,0.250523,0.86961
1501,428,3.30372,-0.0124763,0.249106,0.86901
1503,426,3.30182,-0.017527,0.250519,0.868615
1505,424,3.30449,-0.0143718,0.249042,0.867911
1507,422,3.30356,-0.0130871,0.249041,0.867234
1509,420,3.30318,-0.011828,0.24904,0.866545
1511,418,3.30275,-0.0209753,0.24904,0.866222
1513,416,3.30185,-0.0147533,0.249512,0.866296
1515,414,3.30472,-0.00930497,0.24756,0.865583
1517,412,3.30448,-0.0102116,0.248032,0.86495
1519,410,3.30235,-0.0153729,0.249456,0.864508
1521,408,3.30316,-0.0118733,0.248704,0.86401
1523,406,3.30255,-0.0209851,0.248501,0.863733
1525,404,3.30117,-0.0156251,0.249452,0.863177
1527,402,3.30401,-0.0145875,0.247018,0.861932
1529,400,3.30283,-0.0174551,0.247488,0.861711
1531,398,3.30284,-0.0160022,0.247013,0.861339
1533,396,3.30337,-0.0124198,0.246075,0.86087
1535,394,3.30129,-0.0177813,0.247485,0.860373
1537,392,3.30492,-0.0115195,0.245529,0.859969
1539,390,3.30273,-0.0167473,0.246949,0.859513
1541,388,3.30196,-0.0155022,0.246948,0.858808
1543,386,3.30348,-0.0119246,0.245529,0.858576
1545,384,3.30152,-0.0171097,0.246944,0.858138
1547,382,3.30163,-0.0156927,0.24647,0.857753
1549,380,3.30399,-0.0103666,0.244985,0.8567
1551,378,3.30258,-0.0133965,0.24593,0.856182
1553,376,3.30239,-0.0134485,0.245929,0.856161
1555,374,3.30205,-0.012159,0.245454,0.855723
1557,372,3.30107,-0.0214601,0.245928,0.855174
1559,370,3.30336,-0.0181979,0.244439,0.854487
1561,368,3.30235,-0.0133971,0.245389,0.853671
1563,366,3.30281,-0.0163646,0.243964,0.853044
1565,364,3.30137,-0.0172411,0.244435,0.852444
1567,362,3.30134,-0.0157833,0.243961,0.852063
1569,360,3.30391,-0.0104234,0.242473,0.851019
1571,358,3.30293,-0.0168994,0.243415,0.851536
1573,356,3.30184,-0.0164417,0.243889,0.850277
1575,354,3.30224,-0.0130231,0.24294,0.849711
1577,352,3.30115,-0.0150884,0.243413,0.849841
1579,350,3.30356,-0.0118431,0.242394,0.848902
1581,348,3.30261,-0.0149034,0.242866,0.848627
1583,346,3.30269,-0.0134591,0.24239,0.848242
1585,344,3.30206,-0.0121875,0.242389,0.847542
1587,342,3.30069,-0.0130578,0.242863,0.846941
1589,340,3.30392,-0.016125,0.241429,0.84621
1591,338,3.30249,-0.010691,0.241842,0.845632
1593,336,3.30214,-0.0201161,0.241841,0.845338
1595,334,3.30178,-0.0186019,0.241364,0.84496
1597,332,3.30062,-0.0195928,0.241836,0.844327
1599,330,3.30377,-0.0117964,0.239398,0.843506
1601,328,3.30207,-0.0157104,0.240338,0.842653
1603,326,3.30247,-0.0143052,0.239863,0.842241
1605,324,3.30144,-0.0153362,0.240335,0.841589
1607,322,3.30043,-0.0139448,0.240332,0.840919
1609,320,3.30381,-0.00968618,0.238366,0.840863
1611,318,3.30206,-0.0149161,0.239969,0.840463
1613,316,3.30323,-0.0114084,0.238832,0.83992
1615,314,3.3011,-0.0167638,0.240251,0.83947
1617,312,3.30017,-0.0218801,0.239776,0.838742
1619,310,3.30354,-0.014025,0.237332,0.837906
1621,308,3.3023,-0.0105736,0.238273,0.83774
1623,306,3.3018,-0.0203629,0.238746,0.837089
1625,304,3.30082,-0.0211078,0.238935,0.836795
1627,302,3.30073,-0.0195894,0.238272,0.836427
1629,300,3.30296,-0.0141131,0.23677,0.835372
1631,298,3.30144,-0.017209,0.237715,0.834873
1633,296,3.30176,-0.0161386,0.237238,0.834317
1635,294,3.30072,-0.0176913,0.237711,0.833458
1637,292,3.30152,-0.0152713,0.236765,0.833693
1639,290,3.30239,-0.0141391,0.236204,0.832845
1641,288,3.30208,-0.0106844,0.23573,0.832029
1643,286,3.30118,-0.0212486,0.236202,0.831099
1645,284,3.30065,-0.0124649,0.2362,0.831083
1647,282,3.30078,-0.0221411,0.23638,0.830748
1649,280,3.30255,-0.0119764,0.235167,0.830217
1651,278,3.30229,-0.01074,0.235162,0.829481
1653,276,3.30097,-0.0205132,0.235636,0.828897
1655,274,3.30051,-0.0190109,0.235161,0.828499
1657,272,3.30123,-0.0176839,0.234689,0.828049
1659,270,3.30176,-0.0187832,0.234598,0.827316
1661,268,3.3014,-0.019914,0.23561,0.826628
1663,266,3.30066,-0.0206815,0.235072,0.826333
1665,264,3.30121,-0.0192502,0.234597,0.825919
1667,262,3.29976,-0.0202425,0.235072,0.825281
1669,260,3.29925,-0.0188572,0.235068,0.824618
1671,258,3.30164,-0.0151695,0.233556,0.824025
1673,256,3.30106,-0.0138866,0.233077,0.823493
1675,254,3.30177,-0.0126155,0.232607,0.823087
1677,252,3.2998,-0.0157963,0.23355,0.822559
1679,250,3.30243,-0.0109613,0.232037,0.821208
1681,248,3.301025,-0.0206803,0.232037,0.820929
1683,246,3.30161,-0.0169488,0.231272,0.820439
1685,244,3.3002,-0.0202257,0.232034,0.8199
1687,242,3.29963,-0.0188214,0.232034,0.81923
1689,240,3.30178,-0.0153033,0.230518,0.818565
1691,238,3.30097,-0.0163409,0.230988,0.817931
1693,236,3.30092,-0.0172411,0.230989,0.817585
1695,234,3.29909,-0.0205157,0.231933,0.817042
1697,232,3.30311,-0.00999659,0.228999,0.816174
1699,230,3.30186,-0.0131605,0.229469,0.815923
1701,228,3.30193,-0.0116292,0.228999,0.815552
1703,226,3.30088,-0.0216803,0.229465,0.814914
1705,224,3.29932,-0.0226817,0.229934,0.814281
1707,222,3.30218,-0.0190785,0.228419,0.81366
1709,220,3.3011,-0.0109486,0.228885,0.81304
1711,218,3.30054,-0.0196216,0.228886,0.812227
1713,216,3.29949,-0.0227476,0.229355,0.811755
1715,214,3.30013,-0.0182978,0.228413,0.811528
1717,212,3.30177,-0.0168885,0.227361,0.811246
1719,210,3.3015,-0.0155143,0.22736,0.810334
1721,208,3.30095,-0.0164417,0.227361,0.809979
1723,206,3.30074,-0.0172751,0.227359,0.809662
1725,204,3.29951,-0.0145575,0.227356,0.808261
1727,202,3.30201,-0.0108474,0.225837,0.80767
1729,200,3.30165,-0.0208693,0.225837,0.807325
1731,198,3.29984,-0.0150741,0.226775,0.806773
1733,196,3.30072,-0.0205674,0.225872,0.806227
1735,194,3.29904,-0.0146622,0.226771,0.805725
1737,192,3.3016,-0.0202488,0.225246,0.80506
1739,190,3.30014,-0.0210785,0.225713,0.804507
1741,188,3.30097,-0.0174523,0.224951,0.803944
1743,186,3.29883,-0.0231421,0.226076,0.803495
1745,184,3.30262,-0.0124471,0.223252,0.802611
1747,182,3.30126,-0.0179373,0.224182,0.802463
1749,180,3.30128,-0.0142234,0.223714,0.801683
1751,178,3.3004,-0.0152329,0.223713,0.801301
1753,176,3.30093,-0.0136401,0.223245,0.800943
1755,174,3.30198,-0.0124992,0.222655,0.800078
1757,172,3.30087,-0.0133964,0.223117,0.799484
1759,170,3.30101,-0.0219848,0.222652,0.79877
1761,168,3.29934,-0.0138945,0.223581,0.797824
1763,166,3.2996,-0.0231099,0.223113,0.798105
1765,164,3.30099,-0.0195577,0.222054,0.797183
1767,162,3.30089,-0.0191387,0.222053,0.796132
1769,160,3.30006,-0.0198712,0.222053,0.795863
1771,158,3.30061,-0.0185921,0.221584,0.79536
1773,156,3.29851,-0.0242062,0.222988,0.794972
1775,154,3.30159,-0.0172917,0.220986,0.79456
1777,152,3.30038,-0.0205655,0.221453,0.794304
1779,150,3.30093,-0.0146121,0.22041,0.793374
1781,148,3.29878,-0.0211877,0.221919,0.792623
1783,146,3.29976,-0.0148853,0.220687,0.792056
1785,144,3.30151,-0.0135268,0.219449,0.791519
1787,142,3.30115,-0.0146769,0.219914,0.790847
1789,140,3.3006,-0.0131264,0.219448,0.790459
1791,138,3.29997,-0.0141224,0.219911,0.789846
1793,136,3.29894,-0.0243402,0.219912,0.789537
1795,134,3.30145,-0.0112865,0.218842,0.788626
1797,132,3.30028,-0.0216657,0.21887,0.788275
1799,130,3.30093,-0.0201115,0.218374,0.78789
1801,128,3.29899,-0.0236446,0.219307,0.7873
1803,126,3.2995,-0.0140462,0.219305,0.787371
1805,124,3.30093,-0.0176282,0.217765,0.786287
1807,122,3.30085,-0.0170966,0.217766,0.785279
1809,120,3.29998,-0.018005,0.217762,0.784942
1811,118,3.3006,-0.0140799,0.216834,0.784456
1813,116,3.30133,-0.0153101,0.216859,0.783675
1815,114,3.30189,-0.0183075,0.215296,0.782935
1817,112,3.30133,-0.0122965,0.215757,0.782846
1819,110,3.29985,-0.0226383,0.216218,0.782286
1821,108,3.30012,-0.0211788,0.216278,0.781855
1823,106,3.3015,-0.0199183,0.21514,0.78103
1825,104,3.30143,-0.0184597,0.214677,0.780594
1827,102,3.30034,-0.0194067,0.215138,0.780011
1829,100,3.30026,-0.0204219,0.215139,0.779635
1831,98,3.29947,-0.0190313,0.215137,0.778935
1833,96,3.30156,-0.017722,0.214058,0.778359
1835,94,3.3011,-0.0162895,0.214055,0.777667
1837,92,3.3007,-0.0171537,0.214054,0.777356
1839,90,3.30018,-0.0190679,0.214017,0.776425
1841,88,3.29834,-0.0201463,0.214983,0.775783
1843,86,3.30194,-0.0139466,0.21297,0.775051
1845,84,3.30021,-0.0149648,0.213433,0.774422
1847,82,3.30058,-0.0134397,0.212967,0.774018
1849,80,3.29993,-0.0144489,0.213056,0.773646
1851,78,3.30246,-0.0106744,0.21188,0.772747
1853,76,3.30144,-0.0115631,0.211879,0.772425
1855,74,3.30155,-0.0196478,0.211436,0.77202
1857,72,3.29965,-0.0159362,0.212804,0.771562
1859,70,3.30035,-0.0191762,0.211412,0.770976
1861,68,3.30167,-0.0106744,0.211248,0.770213
1863,66,3.30183,-0.0163744,0.210322,0.769722
1865,64,3.29969,-0.0223614,0.211879,0.769261
1867,62,3.3007,-0.0159366,0.21032,0.768661
1869,60,3.29906,-0.020315,0.211242,0.767816
1871,58,3.30148,-0.0141305,0.209687,0.766794
1873,56,3.3008,-0.0174562,0.210149,0.766575
1875,54,3.30053,-0.0137003,0.209687,0.76574
1877,52,3.29938,-0.0169429,0.210148,0.76422
1879,50,3.3026,-0.020458,0.20813,0.764803
1881,48,3.30117,-0.0116598,0.20859,0.764203
1883,46,3.30103,-0.0224134,0.208589,0.763871
1885,44,3.30016,-0.0232442,0.208586,0.763579
1887,42,3.29995,-0.0203641,0.208124,0.762417
1889,40,3.30174,-0.0165958,0.207028,0.761488
1891,38,3.30157,-0.0174476,0.207027,0.761189
1893,36,3.30052,-0.0185694,0.207485,0.760546
1895,34,3.30007,-0.0195276,0.207484,0.76021
1897,32,3.30071,-0.0179561,0.207021,0.759804
1899,30,3.30173,-0.0166791,0.20638,0.758943
1901,28,3.30131,-0.0152616,0.206381,0.758235
1903,26,3.30063,-0.0161828,0.206379,0.75791
1905,24,3.30138,-0.0146484,0.205917,0.757494
1907,22,3.29905,-0.0180669,0.206836,0.756991
1909,20,3.3017,-0.0168272,0.205735,0.756381
1911,18,3.30185,-0.0128205,0.205272,0.755617
1913,16,3.30076,-0.0137821,0.20527,0.755282
1915,14,3.29986,-0.02472,0.20573,0.75468
1917,12,3.30254,-0.0109352,0.204163,0.753998
1919,10,3.3025,-0.0216787,0.204161,0.753733
1921,8,3.30106,-0.012954,0.204622,0.75305
1923,6,3.3009,-0.0238506,0.20462,0.752732
1925,4,3.29921,-0.0248052,0.205081,0.752153
1926,3,3.29969,-0.0232169,0.204617,0.75174