File: hust_correlation_analysis/matrices/HUST_4-8_cycle_feature_matrix.csv
cycle_number,rul,voltage,current,capacity,charge_capacity
1,1708,3.31301,0.0295673,0.299239,1.04896
3,1706,3.29609,-0.0110847,0.317933,1.01423
5,1704,3.29751,-0.0147002,0.317504,1.01743
7,1702,3.29999,-0.0115434,0.315273,1.02023
9,1700,3.30118,-0.012067,0.314751,1.02272
11,1698,3.30235,-0.0126334,0.313803,1.02537
13,1696,3.30314,-0.0124537,0.313306,1.02822
15,1694,3.30448,-0.0112972,0.31202,1.0295
17,1692,3.30458,-0.0129227,0.311979,1.03113
19,1690,3.30628,-0.0117304,0.310707,1.03242
21,1688,3.30583,-0.0134737,0.31109,1.03376
23,1686,3.30652,-0.0123099,0.31025,1.03484
25,1684,3.30685,-0.0116456,0.30983,1.03543
27,1682,3.30773,-0.0115857,0.309004,1.03585
29,1680,3.30836,-0.0122857,0.308582,1.03563
31,1678,3.30929,-0.0110745,0.307757,1.03673
33,1676,3.30917,-0.011036,0.307338,1.03694
35,1674,3.30916,-0.0110651,0.307344,1.03694
37,1672,3.30918,-0.011096,0.307342,1.03692
39,1670,3.31018,-0.0105684,0.306524,1.03762
41,1668,3.31092,-0.0104971,0.306109,1.03784
43,1666,3.31091,-0.00987888,0.306237,1.0384
45,1664,3.31085,-0.0105449,0.305698,1.038
47,1662,3.31099,-0.0105105,0.305691,1.038
49,1660,3.31152,-0.0105216,0.305501,1.03822
51,1658,3.31178,-0.0105002,0.304884,1.0384
53,1656,3.31186,-0.010446,0.304878,1.03842
55,1654,3.31109,-0.0105085,0.304875,1.0384
57,1652,3.31096,-0.0110357,0.304875,1.03808
59,1650,3.31122,-0.0110635,0.304878,1.03806
61,1648,3.3122,-0.0110988,0.304065,1.0384
63,1646,3.3121,-0.0111852,0.304469,1.03817
65,1644,3.31203,-0.0111313,0.304465,1.03819
67,1642,3.31185,-0.011633,0.304059,1.03808
69,1640,3.3116,-0.0116777,0.304063,1.03805
71,1638,3.3118,-0.012186,0.304453,1.03752
73,1636,3.3114,-0.0123985,0.304462,1.03743
75,1634,3.31381,-0.00982268,0.302853,1.03721
77,1632,3.3135,-0.00974076,0.302786,1.03726
79,1630,3.31333,-0.00978907,0.302987,1.03743
81,1628,3.3131,-0.0098743,0.302856,1.03717
83,1626,3.31339,-0.0103498,0.302842,1.03687
85,1624,3.3139,-0.0104273,0.302445,1.03702
87,1622,3.31388,-0.0104081,0.302441,1.03701
89,1620,3.31303,-0.0104486,0.302841,1.03679
91,1618,3.31251,-0.0111039,0.302989,1.03639
93,1616,3.31238,-0.0117338,0.303249,1.03587
95,1614,3.313,-0.01153,0.302851,1.03619
97,1612,3.31318,-0.0115812,0.30285,1.03616
99,1610,3.31338,-0.0116029,0.302856,1.03615
101,1608,3.31308,-0.0115185,0.302845,1.03618
103,1606,3.31429,-0.00927749,0.30164,1.03556
105,1604,3.31381,-0.00990456,0.302037,1.03499
107,1602,3.31358,-0.00995126,0.302441,1.03477
109,1600,3.31448,-0.00986063,0.301632,1.0352
111,1598,3.31406,-0.00992019,0.302032,1.03498
113,1596,3.31375,-0.00986967,0.302028,1.035
115,1594,3.31368,-0.0105468,0.302036,1.03461
117,1592,3.3135,-0.01115,0.302447,1.03408
119,1590,3.31343,-0.0110249,0.302449,1.03416
121,1588,3.31376,-0.0110822,0.302051,1.03432
123,1586,3.31358,-0.0116301,0.302442,1.03379
125,1584,3.3131,-0.0115335,0.302439,1.03384
127,1582,3.31256,-0.0116262,0.302437,1.03378
129,1580,3.31231,-0.0122543,0.302835,1.03302
131,1578,3.31309,-0.0121983,0.302647,1.03343
133,1576,3.31309,-0.0122725,0.302436,1.0334
135,1574,3.31463,-0.00994562,0.301631,1.03264
137,1572,3.31408,-0.00992831,0.301612,1.03265
139,1570,3.31383,-0.00994025,0.301638,1.03265
141,1568,3.31354,-0.0104705,0.30204,1.03217
143,1566,3.31387,-0.010357,0.301645,1.03243
145,1564,3.31411,-0.0104258,0.301638,1.03238
147,1562,3.31404,-0.0110066,0.302041,1.03184
149,1560,3.31348,-0.0110208,0.302044,1.03184
151,1558,3.31314,-0.0110707,0.302044,1.03182
153,1556,3.31302,-0.0116349,0.302451,1.0313
155,1554,3.31355,-0.0115687,0.302045,1.03154
157,1552,3.31303,-0.0116889,0.302449,1.03127
159,1550,3.31293,-0.011627,0.302445,1.03129
161,1548,3.31262,-0.0122074,0.302452,1.03096
163,1546,3.31245,-0.0121586,0.302451,1.03099
165,1544,3.31231,-0.0121815,0.302865,1.0308
167,1542,3.3144,-0.00993708,0.301798,1.03017
169,1540,3.31436,-0.00986334,0.301202,1.03021
171,1538,3.31406,-0.00974362,0.301653,1.03028
173,1536,3.31381,-0.0104342,0.30165,1.02987
175,1534,3.31326,-0.0104845,0.302057,1.02965
177,1532,3.31326,-0.0104655,0.30206,1.02969
179,1530,3.31358,-0.0111469,0.302053,1.02954
181,1528,3.31365,-0.0113137,0.302062,1.02919
183,1526,3.31301,-0.01104,0.302055,1.02934
185,1524,3.31263,-0.0117782,0.302463,1.02871
187,1522,3.31276,-0.0116903,0.302678,1.02877
189,1520,3.31309,-0.0116397,0.302049,1.02897
191,1518,3.31303,-0.0116463,0.302054,1.02895
193,1516,3.31256,-0.0117519,0.302609,1.02871
195,1514,3.31207,-0.012264,0.302459,1.02843
197,1512,3.31199,-0.0122701,0.302464,1.02842
199,1510,3.31378,-0.00996262,0.301645,1.0276
201,1508,3.3144,-0.0100043,0.301784,1.02778
203,1506,3.31399,-0.01002,0.301651,1.02759
205,1504,3.31388,-0.0098932,0.301242,1.02783
207,1502,3.31343,-0.0105792,0.301651,1.02725
209,1500,3.31338,-0.0104861,0.301648,1.02729
211,1498,3.31342,-0.010543,0.301655,1.02727
213,1496,3.31361,-0.0110575,0.301643,1.02696
215,1494,3.31304,-0.0111122,0.302057,1.02675
217,1492,3.31289,-0.0111118,0.301795,1.02692
219,1490,3.31269,-0.0111732,0.302047,1.02669
221,1488,3.31294,-0.0117249,0.301939,1.02637
223,1486,3.31301,-0.0118705,0.302259,1.02627
225,1484,3.31297,-0.0118204,0.30205,1.02629
227,1482,3.3123,-0.0118514,0.302046,1.02626
229,1480,3.31214,-0.0119329,0.302035,1.02618
231,1478,3.31192,-0.0117961,0.302428,1.02605
233,1476,3.31249,-0.0125406,0.302029,1.02581
235,1474,3.31225,-0.0121317,0.302434,1.02585
237,1472,3.31213,-0.0125187,0.302429,1.02562
239,1470,3.3116,-0.0127834,0.302436,1.02547
241,1468,3.31324,-0.0102346,0.301625,1.02482
243,1466,3.31366,-0.0102318,0.301221,1.02528
245,1464,3.31371,-0.0102583,0.301222,1.02365
247,1462,3.31294,-0.0102872,0.301628,1.02478
249,1460,3.31251,-0.0108791,0.301626,1.02443
251,1458,3.3125,-0.0108326,0.301616,1.02442
253,1456,3.31293,-0.0107567,0.301211,1.02468
255,1454,3.31285,-0.0115386,0.301623,1.02405
257,1452,3.31279,-0.0113644,0.301625,1.02414
259,1450,3.31244,-0.0120302,0.301649,1.02382
261,1448,3.31231,-0.0118981,0.301626,1.02384
263,1446,3.31249,-0.01192,0.301634,1.02384
265,1444,3.31275,-0.0126017,0.301632,1.02344
267,1442,3.31213,-0.0125745,0.302033,1.02325
269,1440,3.31172,-0.0125411,0.301835,1.02344
271,1438,3.31325,-0.010173,0.300818,1.02269
273,1436,3.31319,-0.0102628,0.301227,1.02244
275,1434,3.31406,-0.0101971,0.300494,1.02284
277,1432,3.31371,-0.0102536,0.30082,1.02241
279,1430,3.31318,-0.010182,0.300814,1.02268
281,1428,3.31313,-0.0106846,0.300828,1.02241
283,1426,3.31323,-0.0106495,0.300827,1.02243
285,1424,3.31349,-0.0107917,0.300824,1.02261
287,1422,3.31303,-0.0113221,0.301227,1.02183
289,1420,3.31227,-0.0113418,0.301226,1.02181
291,1418,3.31225,-0.0114173,0.301222,1.02176
293,1416,3.31253,-0.0113286,0.30122,1.02181
295,1414,3.31271,-0.0114943,0.301219,1.0217
297,1412,3.31252,-0.0120619,0.30163,1.02143
299,1410,3.31237,-0.0119379,0.301214,1.02143
301,1408,3.31177,-0.0126124,0.301839,1.02085
303,1406,3.31187,-0.0125129,0.301641,1.02095
305,1404,3.31204,-0.0126615,0.301637,1.02085
307,1402,3.31352,-0.0101627,0.300838,1.02019
309,1400,3.31332,-0.010149,0.300427,1.02034
311,1398,3.31325,-0.0101376,0.300418,1.02036
313,1396,3.31344,-0.0100817,0.300423,1.0204
315,1394,3.31366,-0.010273,0.300425,1.02011
317,1392,3.31338,-0.0108446,0.300834,1.01977
319,1390,3.31272,-0.0107973,0.300826,1.01979
321,1388,3.31243,-0.0108153,0.300825,1.01977
323,1386,3.31271,-0.0107772,0.300826,1.01981
325,1384,3.31288,-0.0114573,0.301046,1.0194
327,1382,3.31226,-0.0113508,0.301244,1.0193
329,1380,3.31201,-0.0120154,0.301246,1.01891
331,1378,3.31211,-0.0119055,0.301246,1.01898
333,1376,3.31229,-0.0119497,0.301247,1.01751
335,1374,3.31252,-0.0120782,0.301251,1.01887
337,1372,3.31246,-0.012517,0.30146,1.01861
339,1370,3.31168,-0.0125527,0.301245,1.01859
341,1368,3.31175,-0.0125113,0.301242,1.0186
343,1366,3.3119,-0.0125693,0.301242,1.01857
345,1364,3.31352,-0.0102601,0.300429,1.01773
347,1362,3.313,-0.0101692,0.30033,1.01783
349,1360,3.31269,-0.0102537,0.300445,1.01778
351,1358,3.31273,-0.0107849,0.300856,1.01754
353,1356,3.31345,-0.0107701,0.300445,1.01749
355,1354,3.31345,-0.0107045,0.300448,1.01752
357,1352,3.31301,-0.0106974,0.300449,1.01753
359,1350,3.3125,-0.011313,0.300854,1.01698
361,1348,3.31261,-0.0112492,0.300853,1.01701
363,1346,3.31272,-0.0114561,0.300857,1.01689
365,1344,3.31207,-0.0114294,0.301265,1.01671
367,1342,3.31185,-0.0113764,0.300849,1.01692
369,1340,3.31166,-0.0120508,0.301256,1.01634
371,1338,3.31247,-0.0119312,0.300858,1.0166
373,1336,3.31221,-0.0120195,0.301267,1.01638
375,1334,3.31185,-0.0125955,0.301687,1.01587
377,1332,3.31168,-0.0125334,0.301273,1.01609
379,1330,3.31116,-0.0125394,0.301684,1.0159
381,1328,3.3119,-0.01255,0.301272,1.01608
383,1326,3.31352,-0.010109,0.300461,1.01532
385,1324,3.31276,-0.0101187,0.300469,1.01533
387,1322,3.31247,-0.0102206,0.300464,1.01526
389,1320,3.31274,-0.0101252,0.300461,1.01531
391,1318,3.31307,-0.0103517,0.300461,1.01518
393,1316,3.31279,-0.0108815,0.300869,1.01467
395,1314,3.3127,-0.0108291,0.300456,1.0149
397,1312,3.31235,-0.0114216,0.300878,1.01438
399,1310,3.31258,-0.0112956,0.30142,1.01447
401,1308,3.31262,-0.0113425,0.300882,1.01444
403,1306,3.31161,-0.0113622,0.301304,1.01426
405,1304,3.31151,-0.0120068,0.301306,1.01388
407,1302,3.31171,-0.0119023,0.301303,1.01395
409,1300,3.31188,-0.012036,0.3013,1.01386
411,1298,3.31199,-0.0119698,0.301309,1.01391
413,1296,3.31184,-0.0118731,0.300884,1.01413
415,1294,3.31108,-0.0125967,0.30171,1.01334
417,1292,3.31159,-0.0125642,0.301294,1.01355
419,1290,3.31167,-0.0126525,0.301297,1.01349
421,1288,3.31262,-0.00951818,0.300493,1.01315
423,1286,3.31245,-0.0101827,0.300499,1.01278
425,1284,3.31263,-0.0100376,0.300501,1.01286
427,1282,3.3128,-0.0101358,0.300504,1.01281
429,1280,3.31279,-0.0100816,0.300495,1.01281
431,1278,3.31267,-0.0101111,0.300069,1.01297
433,1276,3.31234,-0.0107749,0.300491,1.0124
435,1274,3.31286,-0.0107538,0.300072,1.0126
437,1272,3.31255,-0.010856,0.300485,1.01235
439,1270,3.31205,-0.0108008,0.300695,1.01237
441,1268,3.31138,-0.0115011,0.300898,1.01177
443,1266,3.31158,-0.0114777,0.3009,1.0118
445,1264,3.31233,-0.0113792,0.300483,1.01204
447,1262,3.31183,-0.0114938,0.30112,1.01182
449,1260,3.31144,-0.0120463,0.300907,1.01148
451,1258,3.31145,-0.0120329,0.300902,1.01148
453,1256,3.31156,-0.0121168,0.300906,1.01146
455,1254,3.31137,-0.0127724,0.301321,1.01086
457,1252,3.31067,-0.0127796,0.301287,1.01086
459,1250,3.31036,-0.0128102,0.301533,1.01084
461,1248,3.31112,-0.0126512,0.300899,1.01112
463,1246,3.31308,-0.00974584,0.299677,1.01081
465,1244,3.31251,-0.0103272,0.300088,1.01027
467,1242,3.31224,-0.0104034,0.300094,1.01025
469,1240,3.31249,-0.0102818,0.300096,1.01032
471,1238,3.31289,-0.0109424,0.300091,1.00994
473,1236,3.31229,-0.0108806,0.300519,1.00981
475,1234,3.3116,-0.0109083,0.300514,1.00978
477,1232,3.31143,-0.0115205,0.301152,1.00925
479,1230,3.31199,-0.0115976,0.300508,1.00937
481,1228,3.31201,-0.0115482,0.300508,1.00938
483,1226,3.31141,-0.011531,0.300508,1.00941
485,1224,3.31152,-0.0115387,0.300502,1.00938
487,1222,3.31177,-0.0121442,0.300505,1.00905
489,1220,3.31182,-0.0121487,0.300505,1.00903
491,1218,3.31093,-0.0121026,0.301071,1.00887
493,1216,3.31032,-0.0128244,0.301341,1.00826
495,1214,3.31088,-0.0126137,0.300932,1.0086
497,1212,3.31306,-0.00961663,0.2997,1.00834
499,1210,3.31269,-0.00955398,0.299704,1.00838
501,1208,3.31224,-0.0102916,0.300119,1.00775
503,1206,3.31231,-0.0102822,0.300119,1.00776
505,1204,3.31283,-0.0103449,0.299696,1.0079
507,1202,3.31215,-0.0103678,0.300104,1.00768
509,1200,3.31169,-0.0109749,0.300112,1.00732
511,1198,3.31134,-0.0110109,0.300525,1.00711
513,1196,3.31193,-0.0111016,0.300106,1.00725
515,1194,3.31198,-0.010973,0.300111,1.00598
517,1192,3.31147,-0.0115039,0.300116,1.00704
519,1190,3.31128,-0.0115254,0.300544,1.00686
521,1188,3.31171,-0.0121428,0.300542,1.00678
523,1186,3.31169,-0.0120948,0.300547,1.00655
525,1184,3.31139,-0.0120494,0.300117,1.00674
527,1182,3.31039,-0.012252,0.301106,1.00622
529,1180,3.31108,-0.0122358,0.300534,1.00643
531,1178,3.31085,-0.0128678,0.300959,1.00589
533,1176,3.31055,-0.0127908,0.300686,1.00612
535,1174,3.31021,-0.0128307,0.300955,1.0059
537,1172,3.31288,-0.0097649,0.299306,1.00587
539,1170,3.31277,-0.0104025,0.299732,1.00533
541,1168,3.31215,-0.0103039,0.299743,1.00542
543,1166,3.31171,-0.0108399,0.300162,1.00491
545,1164,3.31182,-0.0108921,0.300169,1.00489
547,1162,3.31189,-0.0108983,0.300171,1.0049
549,1160,3.31127,-0.0108905,0.300168,1.00491
551,1158,3.31088,-0.0115887,0.300595,1.00433
553,1156,3.31178,-0.0115446,0.30017,1.00453
555,1154,3.31136,-0.0115668,0.300591,1.00433
557,1152,3.31099,-0.0121525,0.300595,1.00401
559,1150,3.31083,-0.0121234,0.300592,1.004
561,1148,3.31079,-0.0120996,0.300598,1.00404
563,1146,3.3107,-0.0128473,0.301028,1.00344
565,1144,3.31018,-0.0128084,0.301024,1.00346
567,1142,3.31,-0.012837,0.301022,1.00343
569,1140,3.31105,-0.0126661,0.300603,1.00374
571,1138,3.31242,-0.0103348,0.299794,1.00287
573,1136,3.31174,-0.0102517,0.299795,1.00294
575,1134,3.31151,-0.010903,0.30022,1.00237
577,1132,3.31154,-0.0109424,0.300221,1.00236
579,1130,3.31141,-0.0109211,0.300221,1.00236
581,1128,3.31123,-0.0108936,0.299796,1.00258
583,1126,3.31081,-0.0115786,0.300647,1.00182
585,1124,3.31134,-0.0115446,0.300763,1.00203
587,1122,3.31137,-0.0115718,0.300222,1.00202
589,1120,3.31045,-0.012206,0.301193,1.00144
591,1118,3.31026,-0.0121571,0.300647,1.00148
593,1116,3.31051,-0.012315,0.300651,1.0014
595,1114,3.31039,-0.012201,0.300643,1.00145
597,1112,3.31008,-0.0128444,0.30065,1.00109
599,1110,3.30964,-0.01294,0.301076,1.00085
601,1108,3.31049,-0.0129464,0.300647,1.00104
603,1106,3.31179,-0.010351,0.299832,1.0001
605,1104,3.31118,-0.0104769,0.299838,1.00024
607,1102,3.31127,-0.0103613,0.299838,1.00031
609,1100,3.3113,-0.0105345,0.299838,1.00021
611,1098,3.31105,-0.0110408,0.299834,0.999911
613,1096,3.31067,-0.0110602,0.29998,0.999916
615,1094,3.31089,-0.0110071,0.299837,0.999941
617,1092,3.31149,-0.0116908,0.299835,0.999548
619,1090,3.31055,-0.0115682,0.300262,0.999443
621,1088,3.31063,-0.0116263,0.299639,0.999587
623,1086,3.31086,-0.0115633,0.299836,0.999621
625,1084,3.3101,-0.0124516,0.300686,0.99873
627,1082,3.30981,-0.0123139,0.30041,0.998996
629,1080,3.30956,-0.0130324,0.300687,0.998414
631,1078,3.31043,-0.0129664,0.300257,0.998644
633,1076,3.31038,-0.0129365,0.300257,0.998641
635,1074,3.31157,-0.00984027,0.299563,0.998385
637,1072,3.3112,-0.0105511,0.299596,0.996335
639,1070,3.31152,-0.0104624,0.299444,0.997848
641,1068,3.31115,-0.010428,0.299447,0.997875
643,1066,3.31029,-0.0111765,0.299872,0.997255
645,1064,3.31064,-0.0109924,0.299871,0.997348
647,1062,3.3115,-0.0111268,0.299444,0.997468
649,1060,3.31057,-0.011645,0.299874,0.996993
651,1058,3.31024,-0.0117178,0.300426,0.996946
653,1056,3.31036,-0.0116758,0.299868,0.99723
655,1054,3.31039,-0.012435,0.300305,0.996356
657,1052,3.30996,-0.0123783,0.299877,0.996573
659,1050,3.30973,-0.012992,0.300298,0.99603
661,1048,3.31015,-0.0130347,0.300079,0.996001
663,1046,3.30987,-0.0129938,0.300309,0.996055
665,1044,3.31131,-0.0103908,0.299063,0.995515
667,1042,3.3111,-0.0103704,0.299498,0.995331
669,1040,3.31108,-0.0104481,0.299494,0.995294
671,1038,3.31036,-0.0110977,0.299925,0.994727
673,1036,3.31013,-0.0111501,0.299931,0.994722
675,1034,3.31078,-0.0110707,0.299502,0.99496
677,1032,3.3106,-0.0117581,0.299932,0.994136
679,1030,3.3101,-0.0116443,0.299493,0.994622
681,1028,3.30947,-0.0123781,0.300359,0.993839
683,1026,3.30992,-0.0124673,0.299923,0.993953
685,1024,3.30955,-0.0123114,0.299921,0.994047
687,1022,3.30915,-0.0124724,0.299916,0.993941
689,1020,3.30967,-0.0130657,0.29992,0.993603
691,1018,3.30969,-0.0131672,0.300471,0.993537
693,1016,3.31093,-0.00994008,0.298672,0.993366
695,1014,3.31002,-0.01071,0.29942,0.992552
697,1012,3.31076,-0.0106117,0.299114,0.992809
699,1010,3.31033,-0.0112102,0.299543,0.99229
701,1008,3.30967,-0.0112731,0.299539,0.99224
703,1006,3.31,-0.0117164,0.299542,0.991982
705,1004,3.31028,-0.0118692,0.29954,0.991909
707,1002,3.30958,-0.0118631,0.299541,0.991905
709,1000,3.30912,-0.0125652,0.300068,0.991345
711,998,3.30969,-0.0125365,0.299536,0.991318
713,996,3.30925,-0.0126301,0.299971,0.991289
715,994,3.30881,-0.0131642,0.299979,0.991
717,992,3.30906,-0.0130852,0.299973,0.991023
719,990,3.31119,-0.0100867,0.298737,0.99072
721,988,3.31079,-0.0106221,0.298945,0.990413
723,986,3.30999,-0.0105773,0.29917,0.990258
725,984,3.31029,-0.0112448,0.299165,0.989886
727,982,3.31032,-0.0112148,0.299164,0.98988
729,980,3.30986,-0.0112594,0.299165,0.989861
731,978,3.30972,-0.0118864,0.299602,0.989329
733,976,3.30982,-0.0120028,0.299598,0.989254
735,974,3.30984,-0.0118647,0.299243,0.989494
737,972,3.30843,-0.012684,0.300028,0.988654
739,970,3.30919,-0.0127352,0.299595,0.98909
741,968,3.3087,-0.013219,0.300023,0.988362
743,966,3.30833,-0.0132991,0.300027,0.988321
745,964,3.31088,-0.0100075,0.298428,0.988361
747,962,3.31058,-0.0106826,0.298787,0.987779
749,960,3.30975,-0.0106828,0.298788,0.987785
751,958,3.30942,-0.0113029,0.299217,0.987224
753,956,3.31008,-0.0113297,0.298775,0.987392
755,954,3.30969,-0.0113577,0.298774,0.987366
757,952,3.30925,-0.0120394,0.299206,0.986791
759,950,3.30981,-0.0119722,0.298767,0.987002
761,948,3.30926,-0.012086,0.29921,0.986763
763,946,3.30825,-0.0127759,0.300206,0.986211
765,944,3.30861,-0.0132225,0.299652,0.98597
767,942,3.30899,-0.0132341,0.299651,0.985968
769,940,3.31024,-0.0100946,0.298405,0.985701
771,938,3.30992,-0.0106142,0.298919,0.985207
773,936,3.30995,-0.0108049,0.298837,0.985093
775,934,3.30985,-0.0106795,0.298398,0.985334
777,932,3.30923,-0.0113956,0.298835,0.984981
779,930,3.30966,-0.0114953,0.29883,0.98468
781,928,3.30956,-0.0120417,0.29883,0.984371
783,926,3.30885,-0.012055,0.298825,0.984365
785,924,3.30916,-0.0120539,0.298827,0.98437
787,922,3.30885,-0.0125979,0.299261,0.983872
789,920,3.3083,-0.0127248,0.29982,0.983813
791,918,3.30818,-0.0132556,0.299712,0.983347
793,916,3.31069,-0.010087,0.298023,0.983267
795,914,3.30958,-0.0106772,0.298468,0.982776
797,912,3.30912,-0.0107366,0.298907,0.982549
799,910,3.30982,-0.0113678,0.298674,0.982366
801,908,3.3091,-0.0113833,0.298902,0.982185
803,906,3.3089,-0.0114167,0.298903,0.98216
805,904,3.30966,-0.0120258,0.298459,0.981999
807,902,3.30883,-0.0120271,0.298901,0.981803
809,900,3.30784,-0.0127014,0.299888,0.981232
811,898,3.30855,-0.012596,0.298894,0.981488
813,896,3.30847,-0.0133383,0.299343,0.98089
815,894,3.30972,-0.0100943,0.2981,0.980702
817,892,3.30996,-0.0105688,0.298094,0.980428
819,890,3.30959,-0.0108009,0.298538,0.980104
821,888,3.3087,-0.0107545,0.298535,0.980139
823,886,3.30865,-0.0113912,0.298982,0.979608
825,884,3.3094,-0.0113964,0.298533,0.980032
827,882,3.30876,-0.0119626,0.298534,0.979469
829,880,3.30805,-0.0120317,0.298979,0.979232
831,878,3.30848,-0.0128349,0.29897,0.978769
833,876,3.30784,-0.0127037,0.298977,0.978853
835,874,3.30746,-0.0128195,0.299414,0.978602
837,872,3.30777,-0.0136275,0.299215,0.978166
839,870,3.30964,-0.0100929,0.29772,0.978266
841,868,3.30873,-0.010844,0.298163,0.977664
843,866,3.30915,-0.0108371,0.298166,0.97768
845,864,3.30903,-0.0107349,0.298172,0.977751
847,862,3.30818,-0.0116011,0.298619,0.977087
849,860,3.30846,-0.0122221,0.29862,0.976759
851,858,3.3076,-0.0122236,0.299059,0.976541
853,856,3.30719,-0.0128636,0.299058,0.9762
855,854,3.3081,-0.0127939,0.298608,0.976407
857,852,3.30787,-0.0128381,0.298615,0.976389
859,850,3.3069,-0.0135973,0.299621,0.975789
861,848,3.3069,-0.0135231,0.299049,0.975815
863,846,3.30896,-0.0108825,0.297796,0.975232
865,844,3.30783,-0.011175,0.298243,0.974884
867,842,3.30871,-0.011452,0.29788,0.974939
869,840,3.3083,-0.0116261,0.298249,0.974667
871,838,3.30707,-0.0124232,0.29869,0.974017
873,836,3.30786,-0.0122532,0.298249,0.972842
875,834,3.3078,-0.0129363,0.298686,0.973727
877,832,3.30684,-0.0129305,0.298685,0.973734
879,830,3.30708,-0.0128568,0.298684,0.973782
881,828,3.30661,-0.0136964,0.299216,0.973117
883,826,3.30839,-0.0102909,0.297433,0.973156
885,824,3.30844,-0.0110097,0.297879,0.972572
887,822,3.30846,-0.0110262,0.297871,0.972538
889,820,3.30722,-0.0117348,0.298322,0.971715
891,818,3.30791,-0.011627,0.29788,0.972234
893,816,3.30775,-0.0122691,0.298336,0.971704
895,814,3.30684,-0.0129729,0.298786,0.971151
897,812,3.30748,-0.0127852,0.298329,0.971427
899,810,3.30688,-0.0130131,0.298784,0.971113
901,808,3.30608,-0.0136384,0.299337,0.970745
903,806,3.30652,-0.0135842,0.298777,0.970795
905,804,3.30811,-0.0110494,0.297968,0.969934
907,802,3.30735,-0.0111654,0.297966,0.96987
909,800,3.30765,-0.011695,0.297961,0.969591
911,798,3.3074,-0.0117591,0.297964,0.969533
913,796,3.30702,-0.0123892,0.297963,0.969199
915,794,3.30732,-0.0123663,0.297962,0.968971
917,792,3.30685,-0.0131572,0.298411,0.968585
919,790,3.30631,-0.0130996,0.298414,0.968637
921,788,3.30657,-0.0136602,0.298412,0.968333
923,786,3.30588,-0.0137721,0.299432,0.968093
925,784,3.30774,-0.01105,0.297604,0.967514
927,782,3.30789,-0.0111086,0.297605,0.96749
929,780,3.30695,-0.0117782,0.298049,0.966904
931,778,3.3065,-0.0118009,0.298046,0.966889
933,776,3.30705,-0.0125158,0.298049,0.966509
935,774,3.30654,-0.0123951,0.298043,0.966561
937,772,3.30588,-0.0131409,0.298495,0.965958
939,770,3.30667,-0.0131787,0.298598,0.966117
941,768,3.30531,-0.0136926,0.298488,0.96556
943,766,3.30511,-0.0139167,0.299514,0.965333
945,764,3.30758,-0.0113,0.297689,0.964733
947,762,3.3073,-0.0111327,0.297234,0.965017
949,760,3.30673,-0.0118564,0.297689,0.964417
951,758,3.30683,-0.0119039,0.29784,0.964197
953,756,3.30573,-0.0125786,0.298147,0.963868
955,754,3.30625,-0.0131758,0.298149,0.963553
957,752,3.30597,-0.0131351,0.298148,0.963563
959,750,3.30488,-0.0139052,0.298601,0.96294
961,748,3.30558,-0.0138832,0.298151,0.963159
963,746,3.30701,-0.0111515,0.297415,0.962393
965,744,3.30672,-0.0111101,0.297333,0.96241
967,742,3.30722,-0.0119371,0.297345,0.962008
969,740,3.306,-0.0119311,0.297796,0.9618
971,738,3.30587,-0.0124583,0.297803,0.961525
973,736,3.30628,-0.0125333,0.297797,0.961484
975,734,3.30519,-0.0132716,0.298263,0.960919
977,732,3.30532,-0.0138266,0.298115,0.960616
979,730,3.30516,-0.0138603,0.298257,0.960563
981,728,3.30603,-0.0112367,0.297445,0.959736
983,726,3.30688,-0.0111295,0.296987,0.959987
985,724,3.30669,-0.0111505,0.296988,0.959983
987,722,3.30579,-0.0119553,0.297444,0.959353
989,720,3.30572,-0.0127689,0.297899,0.958718
991,718,3.3053,-0.0124115,0.297438,0.959087
993,716,3.30456,-0.0133874,0.298362,0.9582
995,714,3.30505,-0.0140986,0.298364,0.957827
997,712,3.30664,-0.0105423,0.296637,0.957887
999,710,3.30642,-0.0112019,0.297099,0.957351
1001,708,3.30574,-0.0119235,0.297556,0.956748
1003,706,3.30529,-0.0119676,0.29756,0.95674
1005,704,3.30588,-0.0123144,0.297557,0.956544
1007,702,3.30515,-0.0126169,0.297549,0.956361
1009,700,3.30466,-0.013323,0.298003,0.955785
1011,698,3.30473,-0.013528,0.298014,0.955681
1013,696,3.30435,-0.0134136,0.297547,0.955928
1015,694,3.30475,-0.0140581,0.297547,0.955585
1017,692,3.3063,-0.0113734,0.296733,0.954766
1019,690,3.30557,-0.0114036,0.296737,0.954749
1021,688,3.30547,-0.0122432,0.297192,0.954094
1023,686,3.3049,-0.0121807,0.297194,0.954141
1025,684,3.30453,-0.0128095,0.297661,0.953616
1027,682,3.30497,-0.0135756,0.297656,0.953205
1029,680,3.30383,-0.0134423,0.298219,0.953257
1031,678,3.30411,-0.014244,0.297663,0.952643
1033,676,3.30321,-0.0143022,0.298122,0.95262
1035,674,3.3052,-0.011492,0.296842,0.952052
1037,672,3.30599,-0.0116012,0.296378,0.952178
1039,670,3.30474,-0.0122346,0.296836,0.951633
1041,668,3.30462,-0.0121334,0.296829,0.951666
1043,666,3.30432,-0.0130147,0.297303,0.951029
1045,664,3.30386,-0.0136563,0.297301,0.950678
1047,662,3.30424,-0.0136761,0.297294,0.95066
1049,660,3.30353,-0.0142544,0.297302,0.950373
1051,658,3.30449,-0.0116053,0.297116,0.949346
1053,656,3.30486,-0.0123216,0.296967,0.948974
1055,654,3.30424,-0.0121629,0.296957,0.949042
1057,652,3.30474,-0.012903,0.296964,0.948666
1059,650,3.30419,-0.0128368,0.296959,0.948677
1061,648,3.30338,-0.0136556,0.297431,0.948047
1063,646,3.30351,-0.0137584,0.297425,0.947988
1065,644,3.30289,-0.0144428,0.297426,0.947628
1067,642,3.30538,-0.0115201,0.296134,0.947099
1069,640,3.30484,-0.0115235,0.296142,0.947101
1071,638,3.30368,-0.0123093,0.297078,0.946298
1073,636,3.3043,-0.0124321,0.296609,0.946438
1075,634,3.30329,-0.0131062,0.297082,0.945886
1077,632,3.30384,-0.0136598,0.297088,0.945612
1079,630,3.30295,-0.0143863,0.297564,0.945043
1081,628,3.30242,-0.0143258,0.297564,0.945071
1083,626,3.30422,-0.0117532,0.296755,0.944169
1085,624,3.30398,-0.0116173,0.296283,0.944431
1087,622,3.30454,-0.0122414,0.296277,0.944113
1089,620,3.30358,-0.0129953,0.296752,0.943513
1091,618,3.3027,-0.0130844,0.297222,0.943255
1093,616,3.30282,-0.0138736,0.297219,0.942852
1095,614,3.30197,-0.013849,0.297219,0.942868
1097,612,3.30263,-0.014671,0.297225,0.942689
1099,610,3.30408,-0.0116747,0.295937,0.941932
1101,608,3.30298,-0.0124765,0.29688,0.941116
1103,606,3.3029,-0.0125605,0.296885,0.941072
1105,604,3.30235,-0.0132515,0.296887,0.940715
1107,602,3.30329,-0.0132204,0.296406,0.940921
1109,600,3.30222,-0.0138935,0.296889,0.940401
1111,598,3.30222,-0.0144605,0.296884,0.940102
1113,596,3.30301,-0.0119129,0.296561,0.938969
1115,594,3.303005,-0.0117432,0.296069,0.939232
1117,592,3.30319,-0.0126339,0.296556,0.938595
1119,590,3.30234,-0.0132803,0.296557,0.938251
1121,588,3.30266,-0.0132742,0.296555,0.938271
1123,586,3.30152,-0.0139504,0.297032,0.937712
1125,584,3.30135,-0.0146437,0.297034,0.937347
1127,582,3.30365,-0.0111156,0.295746,0.937112
1129,580,3.30265,-0.0119139,0.296447,0.936511
1131,578,3.303,-0.0126672,0.296228,0.936121
1133,576,3.30187,-0.0125357,0.296229,0.93618
1135,574,3.30232,-0.0132101,0.296231,0.935843
1137,572,3.30146,-0.0138972,0.296707,0.935286
1139,570,3.30099,-0.0146827,0.297188,0.934682
1141,568,3.30324,-0.0118455,0.2959,0.934072
1143,566,3.30234,-0.0118395,0.2959,0.934074
1145,564,3.302175,-0.0127584,0.296383,0.933416
1147,562,3.3019,-0.012589,0.295898,0.933676
1149,560,3.30197,-0.0133685,0.296378,0.933099
1151,558,3.30127,-0.0139719,0.296381,0.932787
1153,556,3.30067,-0.0147274,0.296864,0.932194
1155,554,3.3026,-0.0111952,0.295567,0.931924
1157,552,3.30162,-0.0119774,0.296049,0.931329
1159,550,3.30218,-0.012794,0.296049,0.930894
1161,548,3.30125,-0.0133536,0.296055,0.930639
1163,546,3.3012,-0.0141908,0.296542,0.930024
1165,544,3.30015,-0.0141044,0.296543,0.930052
1167,542,3.30046,-0.0147609,0.296543,0.929727
1169,540,3.30196,-0.0119561,0.295736,0.928886
1171,538,3.30126,-0.0127079,0.296799,0.9283
1173,536,3.30119,-0.0127994,0.296217,0.928239
1175,534,3.30041,-0.0134157,0.29621,0.927901
1177,532,3.30093,-0.0143181,0.296442,0.927469
1179,530,3.29953,-0.0143096,0.296702,0.927267
1181,528,3.30216,-0.0113855,0.295401,0.926658
1183,526,3.30145,-0.0119554,0.295399,0.926374
1185,524,3.30101,-0.0127783,0.295891,0.925769
1187,522,3.3005,-0.0134327,0.29589,0.925413
1189,520,3.30051,-0.0134319,0.295892,0.925431
1191,518,3.29981,-0.0142368,0.296382,0.925063
1193,516,3.29868,-0.0149158,0.29688,0.924292
1195,514,3.30123,-0.0121594,0.295581,0.923601
1197,512,3.2999,-0.0128712,0.296067,0.923023
1199,510,3.30087,-0.0129658,0.295579,0.923182
1201,508,3.29972,-0.0136748,0.29607,0.922625
1203,506,3.30009,-0.0143617,0.296066,0.92227
1205,504,3.29851,-0.0151459,0.296566,0.92176
1207,502,3.30088,-0.0121311,0.295257,0.92112
1209,500,3.30014,-0.0121285,0.295256,0.921116
1211,498,3.30042,-0.0128144,0.29525,0.920752
1213,496,3.29936,-0.0136449,0.295745,0.920131
1215,494,3.29927,-0.0142923,0.295745,0.920051
1217,492,3.29795,-0.0152625,0.296747,0.918931
1219,490,3.29957,-0.0122666,0.295437,0.918321
1221,488,3.30027,-0.0122799,0.295519,0.91851
1223,486,3.2993,-0.0129909,0.295431,0.917958
1225,484,3.29966,-0.013885,0.295435,0.917525
1227,482,3.29818,-0.0145196,0.295927,0.916995
1229,480,3.29782,-0.0154579,0.296432,0.916331
1231,478,3.29914,-0.0124315,0.295118,0.915738
1233,476,3.29964,-0.0132708,0.295113,0.915291
1235,474,3.29825,-0.0139534,0.295606,0.91475
1237,472,3.29893,-0.0129321,0.295109,0.914233
1239,470,3.29712,-0.015515,0.296107,0.913753
1241,468,3.30025,-0.00988314,0.293792,0.913635
1243,466,3.29918,-0.0106334,0.294298,0.913064
1245,464,3.29962,-0.0169943,0.293796,0.912599
1247,462,3.29787,-0.019627,0.294804,0.912408
1249,460,3.29842,-0.0183375,0.294295,0.911751
1251,458,3.29897,-0.017309,0.293984,0.91099
1253,456,3.29965,-0.0161344,0.293488,0.910562
1255,454,3.29876,-0.0149996,0.293485,0.909873
1257,452,3.29966,-0.0137674,0.292486,0.909654
1259,450,3.29779,-0.0146685,0.29348,0.908795
1261,448,3.2979,-0.0135981,0.292975,0.908277
1263,446,3.29939,-0.0124439,0.292162,0.907775
1265,444,3.29937,-0.0181527,0.291662,0.90765
1267,442,3.2985,-0.018946,0.292155,0.907061
1269,440,3.29842,-0.0177549,0.291716,0.906586
1271,438,3.29732,-0.0185955,0.292156,0.90598
1273,436,3.29857,-0.0175484,0.29184,0.905247
1275,434,3.29877,-0.0164432,0.291345,0.904767
1277,432,3.29874,-0.0151404,0.29142,0.904355
1279,430,3.29837,-0.0141179,0.290831,0.903628
1281,428,3.29746,-0.0166492,0.291337,0.90341
1283,426,3.29772,-0.015531,0.290839,0.902939
1285,424,3.29911,-0.0125649,0.290026,0.902089
1287,422,3.29934,-0.0114978,0.289529,0.901585
1289,420,3.29804,-0.0121574,0.290013,0.901033
1291,418,3.29764,-0.0205719,0.290016,0.90063
1293,416,3.29661,-0.013763,0.290507,0.900034
1295,414,3.29933,-0.0165002,0.288693,0.899289
1297,412,3.2982,-0.019046,0.289194,0.899083
1299,410,3.2982,-0.0161698,0.288696,0.898205
1301,408,3.29645,-0.0188343,0.289688,0.897751
1303,406,3.29934,-0.0139472,0.287879,0.897018
1305,404,3.29857,-0.0145806,0.287876,0.896692
1307,402,3.299,-0.0123662,0.287382,0.895506
1309,400,3.29708,-0.0150593,0.288376,0.895027
1311,398,3.29772,-0.013939,0.287882,0.89455
1313,396,3.29866,-0.0108171,0.28707,0.893785
1315,394,3.29901,-0.0173176,0.286426,0.893298
1317,392,3.29717,-0.0199627,0.287702,0.89286
1319,390,3.29786,-0.0169604,0.28656,0.892221
1321,388,3.29635,-0.0214847,0.287553,0.892095
1323,386,3.29913,-0.0147753,0.285745,0.891235
1325,384,3.29789,-0.0173297,0.286239,0.890786
1327,382,3.29895,-0.0123314,0.284752,0.890105
1329,380,3.29655,-0.0169758,0.286243,0.889719
1331,378,3.29987,-0.0100767,0.283938,0.888913
1333,376,3.29855,-0.0107881,0.284427,0.888364
1335,374,3.29874,-0.0199524,0.284435,0.887655
1337,372,3.29734,-0.0123346,0.284927,0.887413
1339,370,3.29682,-0.0216368,0.285427,0.886466
1341,368,3.29842,-0.0184585,0.284111,0.885898
1343,366,3.29881,-0.0154566,0.283625,0.885098
1345,364,3.2972,-0.0199803,0.284614,0.884985
1347,362,3.29735,-0.0170792,0.284113,0.884102
1349,360,3.29612,-0.0196447,0.284612,0.883913
1351,358,3.29938,-0.0127237,0.282302,0.883062
1353,356,3.29769,-0.0154323,0.283301,0.882612
1355,354,3.29845,-0.0123548,0.2823,0.881997
1357,352,3.29629,-0.017008,0.283921,0.881638
1359,350,3.29941,-0.0100152,0.281476,0.880827
1361,348,3.29797,-0.0107983,0.281977,0.880253
1363,346,3.2981,-0.0200536,0.281974,0.879544
1365,344,3.2965,-0.0208054,0.282476,0.878996
1367,342,3.29637,-0.0198134,0.283057,0.878238
1369,340,3.29799,-0.0165868,0.281159,0.877678
1371,338,3.2988,-0.0134282,0.280172,0.877109
1373,336,3.29732,-0.016909,0.281162,0.876308
1375,334,3.29721,-0.0138297,0.280673,0.875508
1377,332,3.29783,-0.0127219,0.280345,0.874785
1379,330,3.2982,-0.0116085,0.279853,0.874281
1381,328,3.29753,-0.0122518,0.279848,0.873949
1383,326,3.29696,-0.0209035,0.279897,0.87355
1385,324,3.2985,-0.0158104,0.278541,0.872666
1387,322,3.29785,-0.0186344,0.279026,0.872343
1389,320,3.29812,-0.0173024,0.278529,0.871946
1391,318,3.29741,-0.0170032,0.278539,0.871111
1393,316,3.29931,-0.0119709,0.277216,0.86991
1395,314,3.2983,-0.0127407,0.27722,0.868208
1397,312,3.29799,-0.0135577,0.277849,0.868984
1399,310,3.29723,-0.0143086,0.277721,0.868629
1401,308,3.29906,-0.017836,0.276409,0.867382
1403,306,3.29751,-0.0186553,0.276896,0.866774
1405,304,3.29788,-0.017449,0.276402,0.866301
1407,302,3.29712,-0.0122856,0.276892,0.866051
1409,300,3.29724,-0.0171048,0.276397,0.865225
1411,298,3.29743,-0.0187885,0.27657,0.864233
1413,296,3.29824,-0.0156322,0.275573,0.86362
1415,294,3.29635,-0.0182951,0.276557,0.863209
1417,292,3.29722,-0.0152506,0.275572,0.862556
1419,290,3.29824,-0.0128083,0.274749,0.861401
1421,288,3.2981,-0.0195228,0.274255,0.860924
1423,286,3.29676,-0.020233,0.274747,0.860412
1425,284,3.29627,-0.0210916,0.274751,0.860021
1427,282,3.29832,-0.0167077,0.273438,0.858753
1429,280,3.29805,-0.0155382,0.272943,0.858245
1431,278,3.2979,-0.0162354,0.272953,0.857943
1433,276,3.29902,-0.0117275,0.271639,0.856719
1435,274,3.29864,-0.0128343,0.272254,0.856011
1437,272,3.29757,-0.0155668,0.272817,0.855717
1439,270,3.29784,-0.0126983,0.272109,0.854788
1441,268,3.29617,-0.0173416,0.273087,0.854696
1443,266,3.29769,-0.0191911,0.271787,0.853019
1445,264,3.29698,-0.0118134,0.271772,0.852699
1447,262,3.29716,-0.0185795,0.271282,0.852232
1449,260,3.29592,-0.0193727,0.271768,0.851657
1451,258,3.29814,-0.0142322,0.270091,0.850919
1453,256,3.2975,-0.0137813,0.26996,0.849867
1455,254,3.29636,-0.0186902,0.270951,0.849717
1457,252,3.29743,-0.0134988,0.269602,0.848976
1459,250,3.29804,-0.0122343,0.269153,0.848367
1461,248,3.29808,-0.0119441,0.269152,0.84725
1463,246,3.29617,-0.0147783,0.270132,0.846778
1465,244,3.29641,-0.0215505,0.269638,0.846324
1467,242,3.29782,-0.018179,0.268318,0.845779
1469,240,3.29748,-0.0179211,0.26831,0.844647
1471,238,3.2965,-0.0166667,0.268312,0.843972
1473,236,3.29592,-0.0175367,0.26831,0.843569
1475,234,3.29839,-0.0143541,0.266998,0.842961
1477,232,3.29704,-0.0152536,0.267482,0.842352
1479,230,3.29753,-0.01482,0.267565,0.841505
1481,228,3.29567,-0.0176069,0.267969,0.841066
1483,226,3.29768,-0.0125557,0.266654,0.840065
1485,224,3.29673,-0.0119999,0.266655,0.839076
1487,222,3.29656,-0.0188831,0.266162,0.838568
1489,220,3.29606,-0.0195767,0.266165,0.83827
1491,218,3.29753,-0.0172068,0.26535,0.837106
1493,216,3.29747,-0.0180203,0.26535,0.836745
1495,214,3.29563,-0.0208863,0.266325,0.8363
1497,212,3.29653,-0.0176234,0.265347,0.83567
1499,210,3.29752,-0.0151113,0.264524,0.834558
1501,208,3.2974,-0.0119623,0.26415,0.833685
1503,206,3.29612,-0.0135317,0.264513,0.832756
1505,204,3.29573,-0.0143852,0.264511,0.832378
1507,202,3.29819,-0.017227,0.262707,0.831649
1509,200,3.29644,-0.0202288,0.263687,0.831181
1511,198,3.29637,-0.0198916,0.263684,0.830075
1513,196,3.29456,-0.0145356,0.264661,0.829635
1515,194,3.297,-0.0175235,0.262894,0.828884
1517,192,3.29659,-0.0160574,0.262369,0.828491
1519,190,3.29608,-0.0155632,0.262368,0.827468
1521,188,3.29615,-0.0143844,0.261891,0.826964
1523,186,3.29688,-0.0132716,0.261538,0.826478
1525,184,3.29707,-0.0141307,0.261539,0.825843
1527,182,3.29564,-0.0150004,0.262029,0.825255
1529,180,3.29502,-0.022861,0.262026,0.824199
1531,178,3.29682,-0.0193241,0.260711,0.823707
1533,176,3.29605,-0.0162433,0.260226,0.8228
1535,174,3.29618,-0.0178926,0.260229,0.822068
1537,172,3.29435,-0.02085,0.26123,0.821604
1539,170,3.29743,-0.015747,0.259395,0.820743
1541,168,3.29653,-0.0141466,0.258905,0.820415
1543,166,3.29513,-0.0221647,0.259388,0.819077
1545,164,3.29727,-0.0188381,0.258079,0.818526
1547,162,3.29652,-0.0196817,0.258078,0.818141
1549,160,3.29656,-0.0192846,0.25807,0.817054
1551,158,3.29547,-0.0138696,0.258555,0.81683
1553,156,3.29783,-0.0127575,0.256273,0.815573
1555,154,3.29702,-0.0134438,0.256269,0.815269
1557,152,3.29626,-0.0163712,0.25675,0.815025
1559,150,3.29659,-0.0139498,0.256267,0.813799
1561,148,3.29701,-0.0127481,0.255915,0.813114
1563,146,3.29737,-0.0115544,0.25543,0.812599
1565,144,3.29534,-0.0131405,0.256406,0.811516
1567,142,3.29529,-0.0221712,0.255915,0.811409
1569,140,3.29753,-0.0168376,0.254599,0.810439
1571,138,3.29641,-0.0198384,0.255091,0.810189
1573,136,3.29665,-0.0173891,0.254807,0.808982
1575,134,3.29483,-0.0180707,0.255078,0.808462
1577,132,3.29676,-0.013648,0.253768,0.807091
1579,130,3.29672,-0.0144273,0.253768,0.806763
1581,128,3.29544,-0.0153448,0.25425,0.806158
1583,126,3.29587,-0.0141084,0.253765,0.805649
1585,124,3.29665,-0.0115143,0.252929,0.804509
1587,122,3.29641,-0.0186204,0.252446,0.804031
1589,120,3.29613,-0.0192863,0.252448,0.803752
1591,118,3.29458,-0.022395,0.253614,0.803282
1593,116,3.29731,-0.015776,0.251616,0.801777
1595,114,3.29628,-0.016465,0.251621,0.801494
1597,112,3.2961,-0.0139803,0.251131,0.800244
1599,110,3.29495,-0.0232235,0.251602,0.799696
1601,108,3.29665,-0.0135922,0.250793,0.799199
1603,106,3.29715,-0.0124254,0.250298,0.798668
1605,104,3.29551,-0.0132369,0.250769,0.798108
1607,102,3.29464,-0.0212786,0.250769,0.797058
1609,100,3.29714,-0.0178196,0.249453,0.796487
1611,98,3.29498,-0.0209658,0.250415,0.795998
1613,96,3.29514,-0.0206361,0.250413,0.794891
1615,94,3.2943,-0.0191362,0.249931,0.794476
1617,92,3.29696,-0.0136351,0.248136,0.793739
1619,90,3.29719,-0.0123519,0.24766,0.793248
1621,88,3.2948,-0.0163018,0.249098,0.792207
1623,86,3.29751,-0.0108361,0.2473,0.791434
1625,84,3.29607,-0.0200855,0.247782,0.790965
1627,82,3.29557,-0.0210444,0.247782,0.79056
1629,80,3.29544,-0.0206142,0.247783,0.7895
1631,78,3.2966,-0.0193014,0.247054,0.789056
1633,76,3.2962,-0.0159534,0.246462,0.788161
1635,74,3.29552,-0.0176033,0.246938,0.787272
1637,72,3.29439,-0.020629,0.247421,0.787037
1639,70,3.29719,-0.0130931,0.245625,0.78589
1641,68,3.29595,-0.0124286,0.245621,0.784921
1643,66,3.2957,-0.0133801,0.245625,0.784526
1645,64,3.29548,-0.0228045,0.245624,0.784184
1647,62,3.29627,-0.0130182,0.245266,0.783474
1649,60,3.29635,-0.020355,0.244889,0.782975
1651,58,3.29551,-0.018938,0.244322,0.782336
1653,56,3.29475,-0.0205741,0.244784,0.781645
1655,54,3.29688,-0.0151319,0.243465,0.78064
1657,52,3.29542,-0.016786,0.243943,0.779738
1659,50,3.29559,-0.0146784,0.242976,0.779743
1661,48,3.29505,-0.0230249,0.243078,0.778615
1663,46,3.29624,-0.0110752,0.242131,0.777751
1665,44,3.29655,-0.016955,0.241186,0.776815
1667,42,3.29588,-0.0156116,0.241183,0.776131
1669,40,3.29462,-0.018649,0.241655,0.775909
1671,38,3.29679,-0.0162592,0.240816,0.774672
1673,36,3.29542,-0.0148986,0.240815,0.773999
1675,34,3.29535,-0.0135798,0.240339,0.773497
1677,32,3.29517,-0.0230489,0.240338,0.773166
1679,30,3.29608,-0.0139819,0.239967,0.772124
1681,28,3.29547,-0.019307,0.239593,0.771221
1683,26,3.29541,-0.0179212,0.239017,0.770741
1685,24,3.29408,-0.0230729,0.239959,0.770716
1687,22,3.29682,-0.0163584,0.238173,0.769151
1689,20,3.29563,-0.014929,0.238172,0.768495
1691,18,3.29522,-0.0158701,0.238171,0.768112
1693,16,3.29498,-0.0154319,0.23817,0.76703
1695,14,3.29608,-0.0140466,0.237328,0.766627
1697,12,3.29555,-0.0128103,0.237326,0.76589
1699,10,3.29533,-0.0223646,0.237324,0.765558
1701,8,3.29473,-0.0144575,0.237324,0.765206
1703,6,3.2968,-0.0162333,0.235542,0.763738
1705,4,3.29681,-0.0147562,0.23562,0.763291
1706,3,3.2957,-0.0158571,0.235389,0.762628