File: hust_correlation_analysis/matrices/HUST_7-1_cycle_feature_matrix.csv
cycle_number,rul,voltage,current,capacity,charge_capacity
1,1692,3.3245,-0.0172629,0.273351,0.997298
3,1690,3.31198,-0.0205829,0.27913,0.992229
5,1688,3.31063,-0.0221257,0.280044,0.991049
7,1686,3.3126,-0.0193549,0.278536,0.990395
9,1684,3.31237,-0.0199887,0.278537,0.990148
11,1682,3.3125,-0.0205667,0.278075,0.990166
13,1680,3.31258,-0.0212798,0.278071,0.98986
15,1678,3.31203,-0.0222059,0.278529,0.989223
17,1676,3.31286,-0.0221485,0.278076,0.989531
19,1674,3.31462,-0.0192428,0.276562,0.988928
21,1672,3.31459,-0.0199199,0.276563,0.988647
23,1670,3.31464,-0.0206658,0.27657,0.988363
25,1668,3.31397,-0.0206032,0.276566,0.988383
27,1666,3.31434,-0.0213729,0.276569,0.988066
29,1664,3.3136,-0.0214255,0.276568,0.988062
31,1662,3.31369,-0.0220778,0.277044,0.987756
33,1660,3.31315,-0.0220721,0.276551,0.987733
35,1658,3.31363,-0.0227147,0.276539,0.987423
37,1656,3.31305,-0.0228041,0.276148,0.987395
39,1654,3.3157,-0.0192913,0.275523,0.987073
41,1652,3.31561,-0.0199549,0.275034,0.986784
43,1650,3.31536,-0.019928,0.275029,0.986778
45,1648,3.31574,-0.0205972,0.27503,0.986507
47,1646,3.31463,-0.0205671,0.275027,0.986511
49,1644,3.31523,-0.0205734,0.275024,0.986494
51,1642,3.31451,-0.0213371,0.275023,0.98617
53,1640,3.31462,-0.0213024,0.275022,0.986176
55,1638,3.31433,-0.0221155,0.275474,0.985798
57,1636,3.31497,-0.0221888,0.275029,0.985827
59,1634,3.31443,-0.021988,0.275025,0.98591
61,1632,3.31415,-0.0230408,0.27596,0.985183
63,1630,3.31388,-0.0228388,0.275473,0.985285
65,1628,3.31594,-0.0200114,0.273969,0.984668
67,1626,3.31583,-0.0199414,0.273971,0.984713
69,1624,3.31638,-0.01993,0.273511,0.98494
71,1622,3.31524,-0.0207041,0.273965,0.984369
73,1620,3.31538,-0.0206664,0.273965,0.984363
75,1618,3.31535,-0.0207468,0.274069,0.984342
77,1616,3.31523,-0.0214645,0.274416,0.983777
79,1614,3.31535,-0.0214111,0.273967,0.984078
81,1612,3.3157,-0.0213412,0.273962,0.984085
83,1610,3.31486,-0.0222594,0.274696,0.98367
85,1608,3.31522,-0.0221864,0.273973,0.983768
87,1606,3.3147,-0.0223517,0.273966,0.983693
89,1604,3.31473,-0.0228877,0.273968,0.98348
91,1602,3.31436,-0.0228094,0.273972,0.983528
93,1600,3.31605,-0.0200818,0.272915,0.982586
95,1598,3.31548,-0.0200683,0.273362,0.982312
97,1596,3.31633,-0.0201297,0.272914,0.982566
99,1594,3.31629,-0.0207435,0.273391,0.982299
101,1592,3.31645,-0.0207518,0.272911,0.982309
103,1590,3.31624,-0.0207415,0.272912,0.982312
105,1588,3.31631,-0.0207438,0.27291,0.982296
107,1586,3.31594,-0.021511,0.272908,0.98198
109,1584,3.3154,-0.0215261,0.273356,0.981694
111,1582,3.31548,-0.021579,0.272916,0.981977
113,1580,3.31533,-0.0222867,0.273364,0.981402
115,1578,3.3151,-0.0221534,0.272918,0.981741
117,1576,3.31488,-0.0223199,0.273797,0.981416
119,1574,3.31487,-0.0230394,0.27337,0.981115
121,1572,3.31475,-0.0230638,0.273373,0.981122
123,1570,3.3148,-0.0230516,0.273374,0.981115
125,1568,3.31712,-0.0200864,0.271858,0.980516
127,1566,3.31712,-0.0200363,0.271862,0.980543
129,1564,3.31694,-0.0201278,0.271401,0.980506
131,1562,3.31668,-0.0201018,0.272275,0.980509
133,1560,3.31693,-0.0209099,0.271863,0.980185
135,1558,3.31642,-0.0209406,0.271853,0.980146
137,1556,3.31594,-0.0208867,0.272302,0.979905
139,1554,3.31529,-0.0208849,0.272301,0.979902
141,1552,3.31561,-0.0218349,0.272759,0.979236
143,1550,3.31545,-0.0216776,0.272308,0.979589
145,1548,3.31588,-0.0215688,0.272729,0.979636
147,1546,3.31589,-0.0217492,0.272311,0.979575
149,1544,3.31597,-0.0223569,0.272307,0.979316
151,1542,3.3158,-0.0223833,0.272312,0.97931
153,1540,3.31558,-0.022278,0.272305,0.979347
155,1538,3.31608,-0.0229052,0.272789,0.979079
157,1536,3.31541,-0.0230862,0.272303,0.978986
159,1534,3.31542,-0.0230493,0.272305,0.979015
161,1532,3.31485,-0.0231087,0.272306,0.978984
163,1530,3.31711,-0.0194971,0.270792,0.978672
165,1528,3.31671,-0.0201553,0.271714,0.978098
167,1526,3.31626,-0.0202464,0.271237,0.978081
169,1524,3.31649,-0.020241,0.27124,0.978088
171,1522,3.31577,-0.0210742,0.271697,0.977489
173,1520,3.31713,-0.0209854,0.271245,0.977808
175,1518,3.31608,-0.0210892,0.271246,0.977753
177,1516,3.31685,-0.0209541,0.271244,0.977807
179,1514,3.31629,-0.0218152,0.271973,0.977156
181,1512,3.31585,-0.0217819,0.271698,0.977196
183,1510,3.31678,-0.021626,0.271247,0.977531
185,1508,3.31608,-0.0216613,0.271244,0.977525
187,1506,3.31666,-0.0224939,0.271239,0.977154
189,1504,3.31548,-0.0225281,0.271685,0.976875
191,1502,3.31552,-0.0226199,0.271689,0.976835
193,1500,3.31508,-0.0223943,0.271689,0.976918
195,1498,3.31531,-0.023181,0.271695,0.976603
197,1496,3.31513,-0.0230832,0.27169,0.976647
199,1494,3.31424,-0.0232782,0.272149,0.976305
201,1492,3.31466,-0.0234167,0.272149,0.976249
203,1490,3.31658,-0.0204035,0.270632,0.975674
205,1488,3.31701,-0.0204591,0.270634,0.975653
207,1486,3.31668,-0.0203382,0.270906,0.975708
209,1484,3.31654,-0.0203436,0.270635,0.975706
211,1482,3.31725,-0.021093,0.270631,0.975389
213,1480,3.31683,-0.0209939,0.270624,0.975416
215,1478,3.31691,-0.0211458,0.270627,0.975354
217,1476,3.31644,-0.0210789,0.270624,0.975377
219,1474,3.31708,-0.0210908,0.270656,0.975638
221,1472,3.31658,-0.0217476,0.270624,0.975095
223,1470,3.31638,-0.0218443,0.270618,0.975044
225,1468,3.31592,-0.0217584,0.270621,0.975072
227,1466,3.31611,-0.0218894,0.27062,0.975039
229,1464,3.31602,-0.0218117,0.270614,0.975044
231,1462,3.31547,-0.022528,0.271075,0.974502
233,1460,3.31545,-0.0224296,0.271066,0.974505
235,1458,3.31567,-0.0224779,0.271155,0.97446
237,1456,3.31512,-0.0226933,0.271064,0.974394
239,1454,3.31577,-0.0233054,0.27107,0.974157
241,1452,3.31539,-0.0233511,0.271071,0.974148
243,1450,3.31537,-0.0233171,0.27107,0.974157
245,1448,3.31533,-0.0232395,0.271067,0.974176
247,1446,3.31496,-0.0232691,0.271066,0.97417
249,1444,3.31794,-0.0203907,0.269548,0.973526
251,1442,3.31726,-0.0204667,0.269557,0.973525
253,1440,3.31724,-0.020377,0.269542,0.973535
255,1438,3.31705,-0.0204457,0.269548,0.97351
257,1436,3.31649,-0.0212101,0.270093,0.972908
259,1434,3.31723,-0.0211498,0.269555,0.973245
261,1432,3.3161,-0.0211936,0.270002,0.972954
263,1430,3.31687,-0.0212245,0.269553,0.973215
265,1428,3.31598,-0.0211771,0.269623,0.973196
267,1426,3.31631,-0.0219015,0.270003,0.972655
269,1424,3.31556,-0.0219914,0.270456,0.972341
271,1422,3.31606,-0.0218632,0.270002,0.972659
273,1420,3.31607,-0.0218843,0.270003,0.972645
275,1418,3.31603,-0.021844,0.26999,0.972641
277,1416,3.31605,-0.0218039,0.269986,0.972648
279,1414,3.31591,-0.0225478,0.270442,0.972052
281,1412,3.31551,-0.0226914,0.270439,0.971988
283,1410,3.31572,-0.0226549,0.270432,0.971987
285,1408,3.31514,-0.022621,0.270433,0.971973
287,1406,3.31538,-0.0227401,0.270433,0.971941
289,1404,3.31507,-0.0225803,0.270421,0.971947
291,1402,3.31485,-0.0228932,0.27043,0.971851
293,1400,3.31554,-0.0232628,0.270412,0.971663
295,1398,3.31459,-0.0234026,0.270429,0.971659
297,1396,3.31735,-0.0204588,0.269387,0.971034
299,1394,3.31683,-0.0204329,0.268904,0.971046
301,1392,3.31625,-0.0205792,0.269306,0.970716
303,1390,3.31623,-0.0205385,0.269842,0.970741
305,1388,3.3161,-0.0211666,0.269357,0.970469
307,1386,3.31656,-0.0212659,0.269361,0.970432
309,1384,3.3155,-0.0211871,0.269357,0.970455
311,1382,3.31619,-0.0213392,0.269356,0.970395
313,1380,3.31508,-0.0212821,0.269811,0.970146
315,1378,3.31555,-0.0221528,0.269824,0.969826
317,1376,3.31596,-0.0219172,0.269797,0.970211
319,1374,3.31614,-0.022164,0.269366,0.970107
321,1372,3.316,-0.0227914,0.269374,0.969862
323,1370,3.31552,-0.0228806,0.26986,0.96956
325,1368,3.3155,-0.0226457,0.269366,0.969917
327,1366,3.31633,-0.0227008,0.269371,0.96988
329,1364,3.31512,-0.0235726,0.269828,0.96927
331,1362,3.31529,-0.0235784,0.269824,0.969256
333,1360,3.31501,-0.0235637,0.269824,0.969259
335,1358,3.31703,-0.019881,0.268295,0.968947
337,1356,3.31735,-0.0205631,0.268297,0.968908
339,1354,3.31694,-0.0206608,0.268295,0.96862
341,1352,3.31672,-0.0206882,0.268294,0.968618
343,1350,3.31681,-0.0206508,0.268297,0.968644
345,1348,3.31657,-0.0213913,0.268307,0.968349
347,1346,3.31652,-0.021329,0.268304,0.968629
349,1344,3.31649,-0.0213119,0.268307,0.96839
351,1342,3.31653,-0.0220802,0.268305,0.968079
353,1340,3.31593,-0.0220388,0.268761,0.967816
355,1338,3.31556,-0.0222409,0.268756,0.967732
357,1336,3.31576,-0.0221351,0.269031,0.967765
359,1334,3.3157,-0.0222274,0.268752,0.967712
361,1332,3.31582,-0.0228744,0.268753,0.96745
363,1330,3.31509,-0.0229938,0.269207,0.96712
365,1328,3.31559,-0.0228444,0.268749,0.967694
367,1326,3.31571,-0.0229049,0.268754,0.967439
369,1324,3.31517,-0.0228954,0.268755,0.967444
371,1322,3.31576,-0.0237801,0.268755,0.967071
373,1320,3.31451,-0.0236388,0.269216,0.966872
375,1318,3.31797,-0.0200419,0.267234,0.967051
377,1316,3.31731,-0.020618,0.26768,0.966298
379,1314,3.3177,-0.0206441,0.267239,0.966581
381,1312,3.31738,-0.0206315,0.267226,0.966567
383,1310,3.31674,-0.020728,0.267676,0.966228
385,1308,3.31692,-0.0215125,0.267687,0.965937
387,1306,3.31701,-0.0214026,0.267677,0.965966
389,1304,3.31626,-0.0214719,0.267683,0.965723
391,1302,3.31665,-0.0215168,0.267678,0.965909
393,1300,3.31586,-0.0222839,0.268134,0.965323
395,1298,3.31599,-0.0222779,0.268129,0.965322
397,1296,3.31634,-0.0222125,0.26778,0.96562
399,1294,3.31518,-0.0222913,0.268134,0.965324
401,1292,3.31573,-0.0222489,0.268134,0.965336
403,1290,3.31474,-0.023142,0.268595,0.964713
405,1288,3.31549,-0.0230542,0.268143,0.965042
407,1286,3.31536,-0.0230674,0.268146,0.965045
409,1284,3.31493,-0.0238152,0.268602,0.964455
411,1282,3.31545,-0.0237982,0.26814,0.9645
413,1280,3.3155,-0.0237646,0.268143,0.964743
415,1278,3.31495,-0.0237704,0.268138,0.964729
417,1276,3.3179,-0.0200852,0.266609,0.964418
419,1274,3.31677,-0.0208718,0.267061,0.963802
421,1272,3.31765,-0.0206887,0.266604,0.964152
423,1270,3.31714,-0.0206888,0.266601,0.964136
425,1268,3.31699,-0.020814,0.267058,0.963813
427,1266,3.31702,-0.0216929,0.267052,0.963434
429,1264,3.3168,-0.0215614,0.267056,0.963518
431,1262,3.31642,-0.021596,0.267061,0.96351
433,1260,3.31777,-0.0215028,0.26661,0.96384
435,1258,3.31627,-0.0222733,0.267061,0.963255
437,1256,3.31675,-0.0223244,0.267066,0.963234
439,1254,3.31608,-0.0222362,0.267068,0.963287
441,1252,3.31649,-0.0230854,0.267061,0.962911
443,1250,3.31629,-0.0231349,0.267063,0.962906
445,1248,3.31596,-0.0230541,0.267061,0.962931
447,1246,3.31569,-0.0231318,0.267063,0.962904
449,1244,3.31539,-0.0231185,0.267522,0.962884
451,1242,3.31502,-0.0239073,0.267524,0.962318
453,1240,3.31531,-0.0238723,0.267522,0.962329
455,1238,3.31468,-0.0238657,0.267518,0.962335
457,1236,3.31723,-0.0201626,0.265985,0.961999
459,1234,3.31655,-0.0209553,0.266715,0.959965
461,1232,3.31693,-0.0207638,0.265987,0.961757
463,1230,3.31704,-0.0209397,0.265986,0.961693
465,1228,3.31662,-0.0217271,0.266443,0.961102
467,1226,3.31643,-0.0218758,0.266445,0.961028
469,1224,3.31679,-0.0217993,0.266443,0.961068
471,1222,3.31676,-0.0217528,0.265989,0.961361
473,1220,3.31656,-0.0224573,0.266442,0.960787
475,1218,3.31661,-0.0224949,0.266451,0.960788
477,1216,3.3162,-0.022466,0.266437,0.96073
479,1214,3.31648,-0.022466,0.266441,0.960777
481,1212,3.31636,-0.0232067,0.266439,0.960458
483,1210,3.31619,-0.0232037,0.266435,0.96046
485,1208,3.31631,-0.0232031,0.266435,0.960456
487,1206,3.31589,-0.0232139,0.266434,0.960454
489,1204,3.31553,-0.0240486,0.266895,0.959864
491,1202,3.31547,-0.0240743,0.266903,0.95986
493,1200,3.31775,-0.0201954,0.264903,0.959884
495,1198,3.31787,-0.0210309,0.26536,0.95926
497,1196,3.31701,-0.0209845,0.265356,0.959284
499,1194,3.31723,-0.0210348,0.264941,0.959253
501,1192,3.31732,-0.0217294,0.265777,0.958982
503,1190,3.3169,-0.0215616,0.265361,0.95905
505,1188,3.3171,-0.0218066,0.26536,0.958956
507,1186,3.31617,-0.0218232,0.265815,0.95866
509,1184,3.31615,-0.0226901,0.266305,0.958314
511,1182,3.31662,-0.0225874,0.265819,0.958357
513,1180,3.31544,-0.0224973,0.265813,0.958383
515,1178,3.31619,-0.0226056,0.26581,0.958328
517,1176,3.31508,-0.0234024,0.266268,0.957725
519,1174,3.31561,-0.0229215,0.265812,0.958187
521,1172,3.3156,-0.0233991,0.265813,0.95825
523,1170,3.31554,-0.0232733,0.265808,0.958058
525,1168,3.31492,-0.0241958,0.266274,0.957409
527,1166,3.31519,-0.0242276,0.266284,0.957437
529,1164,3.31453,-0.0242145,0.266282,0.957427
531,1162,3.3174,-0.0204572,0.264728,0.957071
533,1160,3.31686,-0.0211222,0.264727,0.95679
535,1158,3.31738,-0.0212285,0.26472,0.956747
537,1156,3.31693,-0.0212582,0.265142,0.956739
539,1154,3.31672,-0.0220112,0.265183,0.956142
541,1152,3.31671,-0.0218362,0.264714,0.956463
543,1150,3.31722,-0.0218824,0.264715,0.95646
545,1148,3.31671,-0.0220113,0.264715,0.956399
547,1146,3.31652,-0.022756,0.26517,0.955814
549,1144,3.31628,-0.0226739,0.26518,0.95587
551,1142,3.31659,-0.0226308,0.264716,0.956157
553,1140,3.31608,-0.0234961,0.265167,0.95551
555,1138,3.31626,-0.0233966,0.265173,0.95557
557,1136,3.31541,-0.0234785,0.265171,0.955528
559,1134,3.31666,-0.0233561,0.264713,0.955848
561,1132,3.31509,-0.0241261,0.265169,0.955262
563,1130,3.31552,-0.0242087,0.265168,0.955222
565,1128,3.31773,-0.0203646,0.263624,0.954925
567,1126,3.31742,-0.0211739,0.263622,0.954596
569,1124,3.317504,-0.0211858,0.263622,0.954597
571,1122,3.31723,-0.0212158,0.263622,0.954581
573,1120,3.31661,-0.0220112,0.264082,0.953982
575,1118,3.3169,-0.0220234,0.26408,0.953976
577,1116,3.31625,-0.0219839,0.264078,0.953989
579,1114,3.31664,-0.0228146,0.26408,0.953651
581,1112,3.31632,-0.0226757,0.264085,0.953739
583,1110,3.31601,-0.0228165,0.264091,0.953692
585,1108,3.31575,-0.0236504,0.264554,0.953084
587,1106,3.31546,-0.0235345,0.265034,0.953133
589,1104,3.31513,-0.0236559,0.264552,0.953082
591,1102,3.31549,-0.0243492,0.264545,0.952785
593,1100,3.31519,-0.0243659,0.264548,0.952774
595,1098,3.31479,-0.0243883,0.264543,0.952769
597,1096,3.31739,-0.0206154,0.262994,0.952419
599,1094,3.31685,-0.0214436,0.263457,0.95182
601,1092,3.31698,-0.0213652,0.262992,0.95212
603,1090,3.31737,-0.0212633,0.262991,0.952157
605,1088,3.31652,-0.0221517,0.263455,0.951545
607,1086,3.31711,-0.0221607,0.262998,0.95182
609,1084,3.31639,-0.0228852,0.263554,0.951256
611,1082,3.31642,-0.0229487,0.263461,0.951233
613,1080,3.31642,-0.0229898,0.263463,0.951235
615,1078,3.31601,-0.0237612,0.263918,0.950634
617,1076,3.3159,-0.0236321,0.263455,0.950958
619,1074,3.31649,-0.0236433,0.263458,0.950956
621,1072,3.31527,-0.024405,0.263916,0.950375
623,1070,3.31583,-0.0243589,0.263453,0.950654
625,1068,3.31769,-0.0206944,0.262845,0.950008
627,1066,3.31751,-0.0214016,0.262358,0.949698
629,1064,3.31729,-0.0214038,0.262356,0.949701
631,1062,3.31798,-0.0212857,0.262316,0.950019
633,1060,3.3169,-0.0220943,0.262353,0.949415
635,1058,3.31712,-0.0222287,0.262355,0.949358
637,1056,3.31666,-0.0221041,0.262358,0.949415
639,1054,3.31679,-0.0230206,0.262361,0.949055
641,1052,3.31664,-0.0230515,0.262363,0.949048
643,1050,3.31588,-0.0238365,0.262831,0.948482
645,1048,3.31574,-0.0237942,0.262827,0.948497
647,1046,3.3157,-0.0246091,0.262829,0.948161
649,1044,3.31569,-0.0244919,0.262823,0.948208
651,1042,3.31487,-0.0245975,0.262826,0.948152
653,1040,3.31755,-0.0215164,0.261732,0.947261
655,1038,3.31656,-0.0215535,0.261727,0.947238
657,1036,3.31688,-0.0215894,0.261722,0.945946
659,1034,3.31683,-0.0222327,0.261726,0.946955
661,1032,3.31649,-0.0222021,0.261722,0.946963
663,1030,3.31633,-0.0222875,0.26172,0.946919
665,1028,3.3162,-0.0231536,0.262178,0.946528
667,1026,3.31544,-0.0231265,0.262194,0.946328
669,1024,3.31622,-0.0233726,0.262188,0.946223
671,1022,3.31501,-0.0239866,0.262656,0.945723
673,1020,3.31578,-0.0239743,0.26219,0.946001
675,1018,3.31502,-0.02483,0.26266,0.945395
677,1016,3.31728,-0.0209503,0.261092,0.945076
679,1014,3.31716,-0.0216885,0.261364,0.94477
681,1012,3.31711,-0.0217436,0.261092,0.944743
683,1010,3.31726,-0.0223543,0.261093,0.944506
685,1008,3.31676,-0.0224265,0.26109,0.944467
687,1006,3.31748,-0.02245,0.260649,0.944461
689,1004,3.31643,-0.0232291,0.261091,0.944144
691,1002,3.31698,-0.0231866,0.261085,0.944143
693,1000,3.31593,-0.0240146,0.26155,0.943541
695,998,3.3162,-0.0240745,0.261549,0.943519
697,996,3.31532,-0.0240137,0.261545,0.943529
699,994,3.31604,-0.0248641,0.261553,0.943197
701,992,3.31522,-0.0248701,0.261553,0.943198
703,990,3.31734,-0.0210636,0.259982,0.942859
705,988,3.31714,-0.0218092,0.260539,0.942278
707,986,3.31705,-0.0217571,0.259987,0.942576
709,984,3.31684,-0.0225115,0.260447,0.942001
711,982,3.31659,-0.0225406,0.260443,0.941971
713,980,3.31639,-0.0225522,0.260444,0.941974
715,978,3.31615,-0.0234308,0.260536,0.941616
717,976,3.31643,-0.02331,0.260445,0.94166
719,974,3.31504,-0.0241991,0.26091,0.941043
721,972,3.31557,-0.0242278,0.260908,0.94102
723,970,3.31509,-0.0241643,0.260903,0.94103
725,968,3.31497,-0.0249816,0.260903,0.940704
727,966,3.31479,-0.0249485,0.26091,0.940733
729,964,3.31682,-0.0220362,0.259797,0.93971
731,962,3.31638,-0.0218319,0.259804,0.939822
733,960,3.31726,-0.0219319,0.259331,0.940037
735,958,3.31631,-0.0226907,0.2598,0.939449
737,956,3.31646,-0.0226725,0.259792,0.939457
739,954,3.31673,-0.0235207,0.259799,0.939126
741,952,3.31599,-0.0235065,0.259795,0.939354
743,950,3.31657,-0.0242283,0.259797,0.938841
745,948,3.31592,-0.0242913,0.259794,0.938809
747,946,3.31565,-0.0243959,0.260258,0.938483
749,944,3.31518,-0.0249457,0.260259,0.938266
751,942,3.31775,-0.0212199,0.25868,0.937862
753,940,3.31705,-0.0220282,0.259147,0.937254
755,938,3.31718,-0.0219375,0.258682,0.937574
757,936,3.31753,-0.0226885,0.25868,0.937268
759,934,3.31693,-0.0226471,0.258684,0.937288
761,932,3.31702,-0.0227576,0.258685,0.937257
763,930,3.31612,-0.023694,0.259146,0.936603
765,928,3.31636,-0.0236601,0.25941,0.936614
767,926,3.31567,-0.0243666,0.259148,0.93633
769,924,3.31596,-0.0244923,0.25915,0.936285
771,922,3.31506,-0.0252199,0.259617,0.935721
773,920,3.31522,-0.0252089,0.259145,0.935998
775,918,3.31716,-0.0214362,0.258038,0.935338
777,916,3.31687,-0.0220429,0.258034,0.935082
779,914,3.3166,-0.0220943,0.258044,0.935079
781,912,3.31664,-0.0229339,0.258038,0.934735
783,910,3.31686,-0.0228069,0.258036,0.934779
785,908,3.31613,-0.0228924,0.258035,0.934743
787,906,3.31604,-0.0238148,0.258502,0.934106
789,904,3.31587,-0.0237946,0.258506,0.934128
791,902,3.31572,-0.0245417,0.258501,0.933814
793,900,3.31577,-0.0245523,0.258505,0.933825
795,898,3.31548,-0.0253373,0.258507,0.933516
797,896,3.31811,-0.0214503,0.257415,0.933164
799,894,3.31693,-0.0222927,0.257397,0.932561
801,892,3.3175,-0.0221918,0.257401,0.932619
803,890,3.31693,-0.0230986,0.257402,0.93226
805,888,3.31694,-0.0229816,0.257394,0.932294
807,886,3.31699,-0.0237481,0.257396,0.931989
809,884,3.31669,-0.0238452,0.257403,0.931965
811,882,3.3163,-0.0238532,0.257396,0.931956
813,880,3.31629,-0.0246152,0.257658,0.931654
815,878,3.31569,-0.0246768,0.257865,0.931354
817,876,3.31496,-0.0254923,0.257866,0.931032
819,874,3.31542,-0.0255418,0.25787,0.931026
821,872,3.31663,-0.0223347,0.256749,0.930095
823,870,3.31738,-0.0221891,0.256278,0.9302
825,868,3.31656,-0.023183,0.256763,0.929796
827,866,3.31644,-0.0231364,0.256761,0.929813
829,864,3.31572,-0.0240574,0.257222,0.929394
831,862,3.31593,-0.0239758,0.256757,0.929486
833,860,3.31568,-0.02411,0.25722,0.929131
835,858,3.31504,-0.0248221,0.257217,0.930259
837,856,3.31539,-0.0249422,0.257223,0.928817
839,854,3.31507,-0.0256842,0.257232,0.928543
841,852,3.31772,-0.022433,0.25564,0.927919
843,850,3.31666,-0.0225271,0.256101,0.927578
845,848,3.31762,-0.0224516,0.255637,0.92791
847,846,3.3166,-0.0232494,0.256103,0.927296
849,844,3.31666,-0.0232787,0.256104,0.927286
851,842,3.31666,-0.024093,0.256097,0.926956
853,840,3.31645,-0.0241167,0.256102,0.926936
855,838,3.31654,-0.0239069,0.255617,0.927266
857,836,3.31613,-0.024891,0.256084,0.926597
859,834,3.31595,-0.0248732,0.256092,0.926622
861,832,3.31517,-0.0257664,0.256555,0.92598
863,830,3.31488,-0.0256379,0.256079,0.926288
865,828,3.3175,-0.0225058,0.254962,0.925351
867,826,3.31671,-0.0225847,0.254969,0.925344
869,824,3.31614,-0.0235942,0.255446,0.924674
871,822,3.31699,-0.023366,0.254977,0.92505
873,820,3.31521,-0.0243314,0.255917,0.92411
875,818,3.31571,-0.0242386,0.255443,0.924424
877,816,3.31499,-0.025105,0.255919,0.923817
879,814,3.31581,-0.024922,0.255441,0.924147
881,812,3.31505,-0.0250243,0.255438,0.924111
883,810,3.3156,-0.0259171,0.255439,0.92375
885,808,3.31779,-0.0218767,0.253845,0.923426
887,806,3.31706,-0.0227667,0.254312,0.922772
889,804,3.31693,-0.0226878,0.254311,0.922817
891,802,3.31741,-0.0234204,0.254317,0.92254
893,800,3.31629,-0.0243878,0.254788,0.921879
895,798,3.31682,-0.0242944,0.254315,0.92221
897,796,3.31656,-0.024301,0.254309,0.922194
899,794,3.31604,-0.0252189,0.255279,0.921585
901,792,3.31527,-0.0260025,0.254791,0.921273
903,790,3.31528,-0.0260172,0.254793,0.921265
905,788,3.31778,-0.0226406,0.253194,0.920691
907,786,3.31689,-0.0227846,0.253671,0.92036
909,784,3.31646,-0.0235809,0.253668,0.920045
911,782,3.31663,-0.02365,0.253665,0.92001
913,780,3.31589,-0.0244673,0.254138,0.919407
915,778,3.31516,-0.0244427,0.254138,0.919408
917,776,3.31571,-0.0253974,0.254142,0.919049
919,774,3.3155,-0.025132,0.254136,0.919142
921,772,3.31477,-0.0262877,0.25461,0.918411
923,770,3.31492,-0.0261051,0.254621,0.918763
925,768,3.31737,-0.022982,0.253008,0.917792
927,766,3.31674,-0.0228271,0.253003,0.917843
929,764,3.31699,-0.0237287,0.253005,0.917506
931,762,3.31678,-0.0238397,0.253008,0.917468
933,760,3.31703,-0.0245621,0.253006,0.917176
935,758,3.31599,-0.0245619,0.253007,0.917175
937,756,3.31629,-0.0253972,0.253004,0.916856
939,754,3.31591,-0.0253171,0.253,0.916869
941,752,3.31526,-0.0263137,0.253476,0.916205
943,750,3.31458,-0.0263652,0.253479,0.916194
945,748,3.31689,-0.0232177,0.252348,0.915215
947,746,3.31619,-0.0230239,0.252349,0.915294
949,744,3.31646,-0.0239329,0.252345,0.914924
951,742,3.3157,-0.0238239,0.252349,0.916361
953,740,3.31645,-0.0247218,0.252349,0.914635
955,738,3.31516,-0.0248502,0.252837,0.914344
957,736,3.31539,-0.0257821,0.252841,0.913997
959,734,3.31513,-0.0265705,0.252838,0.91369
961,732,3.31539,-0.026477,0.252838,0.913724
963,730,3.31698,-0.0232208,0.251701,0.912573
965,728,3.31747,-0.0231862,0.251225,0.913074
967,726,3.31671,-0.0240744,0.251702,0.912449
969,724,3.31739,-0.0238618,0.251219,0.9128
971,722,3.31592,-0.0247672,0.251693,0.912262
973,720,3.31603,-0.0249707,0.251694,0.912091
975,718,3.31599,-0.0256587,0.251775,0.911815
977,716,3.31485,-0.0266219,0.252171,0.911163
979,714,3.31442,-0.0265666,0.252168,0.911185
981,712,3.31658,-0.0233751,0.251037,0.910213
983,710,3.31622,-0.0233516,0.250672,0.910233
985,708,3.31618,-0.0242073,0.251036,0.909894
987,706,3.31575,-0.0243061,0.251041,0.90988
989,704,3.3165,-0.0250253,0.251035,0.909587
991,702,3.31526,-0.0259044,0.251525,0.908999
993,700,3.31582,-0.0259186,0.251037,0.90926
995,698,3.31504,-0.0267549,0.251514,0.908632
997,696,3.3178,-0.0233959,0.249906,0.908028
999,694,3.31699,-0.0233555,0.250393,0.908046
1001,692,3.31662,-0.0243733,0.25038,0.907375
1003,690,3.31658,-0.0242867,0.249895,0.907689
1005,688,3.31629,-0.0251373,0.250382,0.907079
1007,686,3.31528,-0.0250818,0.250372,0.907086
1009,684,3.31541,-0.0259822,0.250373,0.90698
1011,682,3.31474,-0.0268401,0.250856,0.906135
1013,680,3.31382,-0.0270701,0.25134,0.905769
1015,678,3.31651,-0.0235211,0.249712,0.905189
1017,676,3.31608,-0.0238869,0.249718,0.90506
1019,674,3.31645,-0.0244875,0.249719,0.904847
1021,672,3.31585,-0.025326,0.250197,0.904231
1023,670,3.31506,-0.0253572,0.250201,0.904229
1025,668,3.31534,-0.0262815,0.250195,0.903864
1027,666,3.31524,-0.0260811,0.250682,0.903933
1029,664,3.31422,-0.0270653,0.250189,0.903559
1031,662,3.31705,-0.0235829,0.248973,0.902956
1033,660,3.3165,-0.0236775,0.248559,0.90291
1035,658,3.31635,-0.0246822,0.24905,0.902236
1037,656,3.31535,-0.0245027,0.249044,0.902307
1039,654,3.31538,-0.0254368,0.249043,0.901943
1041,652,3.31508,-0.0264027,0.249524,0.901299
1043,650,3.31488,-0.0263105,0.249522,0.901319
1045,648,3.31406,-0.0272179,0.24952,0.900975
1047,646,3.31689,-0.023842,0.248369,0.900029
1049,644,3.31665,-0.023767,0.247967,0.900337
1051,642,3.31655,-0.0248112,0.248369,0.899654
1053,640,3.31548,-0.0245485,0.248441,0.899743
1055,638,3.31523,-0.0256749,0.248366,0.89933
1057,636,3.31484,-0.026571,0.248853,0.898686
1059,634,3.31428,-0.0264135,0.248851,0.898759
1061,632,3.3131,-0.0273881,0.249336,0.898094
1063,630,3.31618,-0.0240229,0.247692,0.897408
1065,628,3.31529,-0.0247794,0.248188,0.896862
1067,626,3.31587,-0.0249239,0.247687,0.897047
1069,624,3.3154,-0.0257764,0.248677,0.896476
1071,622,3.31509,-0.0257174,0.247687,0.896767
1073,620,3.31519,-0.0267374,0.248171,0.896092
1075,618,3.31503,-0.0264045,0.24768,0.896487
1077,616,3.31384,-0.0275853,0.248174,0.895767
1079,614,3.31647,-0.0240685,0.246525,0.895143
1081,612,3.31545,-0.0241654,0.247013,0.894808
1083,610,3.31529,-0.0249709,0.247013,0.894499
1085,608,3.31547,-0.0248858,0.247086,0.894522
1087,606,3.31387,-0.0260449,0.247499,0.893802
1089,604,3.3147,-0.0269013,0.247494,0.89349
1091,602,3.31403,-0.0277668,0.247999,0.892907
1093,600,3.31649,-0.0232714,0.245859,0.892933
1095,598,3.31586,-0.0242979,0.246342,0.892241
1097,596,3.31566,-0.0252513,0.246344,0.891895
1099,594,3.31489,-0.026141,0.247329,0.891287
1101,592,3.31427,-0.0261272,0.24683,0.891264
1103,590,3.31381,-0.026892,0.246831,0.890989
1105,588,3.31333,-0.0269768,0.246824,0.890936
1107,586,3.31696,-0.0234923,0.245174,0.890523
1109,584,3.31543,-0.0243284,0.245663,0.889685
1111,582,3.31542,-0.0253017,0.245668,0.889332
1113,580,3.31538,-0.0252016,0.245658,0.889357
1115,578,3.31528,-0.0263063,0.245665,0.888957
1117,576,3.31426,-0.0270836,0.24616,0.888369
1119,574,3.31366,-0.0271905,0.246153,0.888335
1121,572,3.31527,-0.0236769,0.244987,0.887401
1123,570,3.31526,-0.0246264,0.244988,0.887278
1125,568,3.31494,-0.0255719,0.24549,0.88643
1127,566,3.31439,-0.0262765,0.245485,0.88617
1129,564,3.31429,-0.0265386,0.245482,0.886064
1131,562,3.31418,-0.027299,0.245484,0.885589
1133,560,3.31354,-0.0282503,0.24605,0.885122
1135,558,3.31574,-0.023854,0.244312,0.884805
1137,556,3.31502,-0.0247864,0.244308,0.884437
1139,554,3.31427,-0.0257091,0.244804,0.883806
1141,552,3.31416,-0.0265744,0.244802,0.883486
1143,550,3.31394,-0.0265461,0.244801,0.883752
1145,548,3.3131,-0.0276046,0.245305,0.882826
1147,546,3.31312,-0.0284293,0.245294,0.882499
1149,544,3.31553,-0.0249199,0.243698,0.881826
1151,542,3.31529,-0.0249655,0.243619,0.881799
1153,540,3.31498,-0.0256376,0.243608,0.88035
1155,538,3.31378,-0.0267459,0.24461,0.88084
1157,536,3.31293,-0.0276897,0.244618,0.880221
1159,534,3.31273,-0.0278499,0.244621,0.880177
1161,532,3.31553,-0.0241512,0.24294,0.879555
1163,530,3.31574,-0.0250223,0.242941,0.87923
1165,528,3.3145,-0.025945,0.243439,0.878597
1167,526,3.31408,-0.0269346,0.243437,0.878236
1169,524,3.31365,-0.0269168,0.243441,0.878263
1171,522,3.31299,-0.0279828,0.243939,0.877577
1173,520,3.31258,-0.0284579,0.243939,0.877386
1175,518,3.3141,-0.0253041,0.242755,0.876269
1177,516,3.31449,-0.0262557,0.242759,0.875931
1179,514,3.31397,-0.0261659,0.242757,0.875958
1181,512,3.31427,-0.027168,0.242755,0.8756
1183,510,3.31312,-0.0279573,0.243255,0.875006
1185,508,3.31214,-0.0288445,0.243326,0.874677
1187,506,3.31464,-0.0243987,0.241558,0.874298
1189,504,3.3138,-0.0254292,0.242063,0.873631
1191,502,3.3143,-0.0264242,0.242064,0.87327
1193,500,3.31336,-0.0271629,0.242566,0.872701
1195,498,3.31283,-0.0280622,0.242571,0.872396
1197,496,3.3118,-0.0291532,0.243071,0.871927
1199,494,3.31401,-0.0255332,0.241372,0.871004
1201,492,3.31389,-0.0255864,0.241373,0.870989
1203,490,3.3131,-0.0267075,0.241881,0.870292
1205,488,3.3133,-0.0274758,0.242378,0.870015
1207,486,3.31197,-0.0284202,0.242388,0.869378
1209,484,3.31239,-0.0292343,0.241874,0.869372
1211,482,3.31448,-0.025765,0.240678,0.86832
1213,480,3.31281,-0.0267099,0.241182,0.867685
1215,478,3.31309,-0.0268516,0.241182,0.867648
1217,476,3.31283,-0.0276103,0.241424,0.867355
1219,474,3.31192,-0.0287195,0.241697,0.866672
1221,472,3.31171,-0.0295686,0.241697,0.866378
1223,470,3.31324,-0.0260212,0.240498,0.86534
1225,468,3.31326,-0.0270076,0.240495,0.864981
1227,466,3.31224,-0.0278755,0.241076,0.864382
1229,464,3.31187,-0.027991,0.241008,0.864345
1231,462,3.31178,-0.0289157,0.241004,0.864011
1233,460,3.31417,-0.025084,0.239289,0.863367
1235,458,3.31377,-0.026011,0.239288,0.863037
1237,456,3.31294,-0.0271371,0.239802,0.862328
1239,454,3.31234,-0.0256847,0.239797,0.861692
1241,452,3.31191,-0.0358152,0.240294,0.861443
1243,450,3.31077,-0.0276575,0.24031,0.860674
1245,448,3.31353,-0.0333162,0.238587,0.860032
1247,446,3.31265,-0.0333682,0.238587,0.860027
1249,444,3.31214,-0.0342468,0.238582,0.859702
1251,442,3.31164,-0.0328803,0.238581,0.859029
1253,440,3.31223,-0.0313341,0.238066,0.858709
1255,438,3.3109,-0.0323871,0.238579,0.858039
1257,436,3.31331,-0.0285255,0.236848,0.857379
1259,434,3.31326,-0.0271692,0.23634,0.856996
1261,432,3.3124,-0.0282495,0.236853,0.856342
1263,430,3.31123,-0.0291852,0.237361,0.855702
1265,428,3.31144,-0.0278081,0.23686,0.855352
1267,426,3.31402,-0.033342,0.235132,0.85476
1269,424,3.3137,-0.034385,0.235134,0.854397
1271,422,3.31318,-0.0248667,0.235133,0.854392
1273,420,3.31216,-0.0259933,0.235705,0.853686
1275,418,3.31116,-0.0340692,0.235703,0.853042
1277,416,3.31415,-0.030394,0.233914,0.852335
1279,414,3.3139,-0.0311358,0.233907,0.852066
1281,412,3.31328,-0.0298491,0.233903,0.85136
1283,410,3.31273,-0.0306758,0.233901,0.851055
1285,408,3.3112,-0.0342245,0.235149,0.850375
1287,406,3.31047,-0.0317111,0.234405,0.850385
1289,404,3.31385,-0.0257042,0.232165,0.849622
1291,402,3.31412,-0.0335739,0.231663,0.849359
1293,400,3.31377,-0.0344174,0.23166,0.849067
1295,398,3.31242,-0.0354773,0.23216,0.848393
1297,396,3.31145,-0.0269404,0.232662,0.847702
1299,394,3.31061,-0.0376033,0.232667,0.84735
1301,392,3.31399,-0.0312797,0.23043,0.846686
1303,390,3.31328,-0.0300238,0.230429,0.845972
1305,388,3.31334,-0.0308,0.230919,0.84571
1307,386,3.31311,-0.0318477,0.230431,0.845358
1309,384,3.31169,-0.0326488,0.23093,0.844757
1311,382,3.31361,-0.028054,0.229195,0.844349
1313,380,3.31433,-0.0265196,0.228691,0.844023
1315,378,3.3136,-0.0251381,0.228693,0.843358
1317,376,3.31344,-0.0260034,0.228692,0.843051
1319,374,3.3119,-0.0271461,0.229681,0.842354
1321,372,3.31177,-0.0280185,0.229187,0.842044
1323,370,3.31367,-0.0339492,0.227956,0.841057
1325,368,3.31254,-0.0350441,0.228455,0.840383
1327,366,3.31249,-0.0336015,0.227956,0.840014
1329,364,3.3133,-0.0318359,0.226956,0.840049
1331,362,3.31166,-0.0353938,0.227946,0.839375
1333,360,3.31384,-0.030667,0.226213,0.839014
1335,358,3.3135,-0.0291992,0.22621,0.838359
1337,356,3.31387,-0.0277813,0.225711,0.837985
1339,354,3.31431,-0.0261415,0.225225,0.83771
1341,352,3.31218,-0.0295717,0.226214,0.837089
1343,350,3.31348,-0.0285041,0.225469,0.836013
1345,348,3.31413,-0.0244049,0.224475,0.83571
1347,346,3.31294,-0.0254789,0.224976,0.83504
1349,344,3.31267,-0.0362849,0.224974,0.834693
1351,342,3.31239,-0.0370366,0.224971,0.834436
1353,340,3.31252,-0.0355658,0.224473,0.834076
1355,338,3.31425,-0.0318444,0.223227,0.83304
1357,336,3.31252,-0.0352604,0.224707,0.832441
1359,334,3.31163,-0.0340521,0.224214,0.831688
1361,332,3.31301,-0.0314149,0.22322,0.83202
1363,330,3.31209,-0.0307888,0.223221,0.831078
1365,328,3.31444,-0.0261023,0.221478,0.830674
1367,326,3.31315,-0.029633,0.222461,0.83004
1369,324,3.31313,-0.0280057,0.221968,0.829729
1371,322,3.31364,-0.0264947,0.221682,0.829363
1373,320,3.31265,-0.0274816,0.221959,0.828728
1375,318,3.31462,-0.0234946,0.220222,0.828095
1377,316,3.31394,-0.024833,0.220709,0.827341
1379,314,3.31306,-0.0354549,0.220708,0.82709
1381,312,3.31186,-0.0365502,0.221571,0.826422
1383,310,3.31222,-0.0350935,0.220705,0.826052
1385,308,3.31126,-0.0361868,0.221199,0.825386
1387,306,3.31438,-0.0298173,0.218956,0.824689
1389,304,3.31341,-0.030797,0.219446,0.822548
1391,302,3.31146,-0.0343206,0.22043,0.823399
1393,300,3.31161,-0.0329324,0.21994,0.823035
1395,298,3.31167,-0.0312465,0.21944,0.822731
1397,296,3.31452,-0.0246384,0.217405,0.822089
1399,294,3.31422,-0.0257699,0.217192,0.821706
1401,292,3.31197,-0.0295227,0.218666,0.820707
1403,290,3.31263,-0.0268003,0.217733,0.821051
1405,288,3.31194,-0.0379593,0.218171,0.820357
1407,286,3.31463,-0.0313388,0.215925,0.81971
1409,284,3.31292,-0.0349795,0.216901,0.819067
1411,282,3.31263,-0.03604,0.216896,0.818705
1413,280,3.31141,-0.0370549,0.217387,0.816887
1415,278,3.31135,-0.0354562,0.217379,0.817722
1417,276,3.31421,-0.0292146,0.215132,0.816653
1419,274,3.31398,-0.0275507,0.214642,0.816335
1421,272,3.31362,-0.0285005,0.214643,0.816031
1423,270,3.31253,-0.0296031,0.215132,0.815379
1425,268,3.31137,-0.0305991,0.215616,0.814714
1427,266,3.31153,-0.0291678,0.215131,0.814358
1429,264,3.31344,-0.0252695,0.213848,0.813321
1431,262,3.31269,-0.0362611,0.213846,0.813027
1433,260,3.31225,-0.0371033,0.213845,0.81275
1435,258,3.311,-0.0383475,0.214695,0.812058
1437,256,3.31041,-0.0393371,0.214334,0.811722
1439,254,3.31336,-0.0329978,0.212563,0.810649
1441,252,3.31351,-0.0313836,0.212077,0.810326
1443,250,3.31302,-0.0322464,0.212076,0.810034
1445,248,3.31206,-0.0333324,0.212556,0.809371
1447,246,3.31131,-0.0340532,0.212558,0.809141
1449,244,3.3139,-0.0278251,0.210784,0.808014
1451,242,3.31289,-0.0290128,0.211269,0.807334
1453,240,3.31283,-0.0273654,0.210785,0.807019
1455,238,3.31201,-0.0283985,0.210784,0.806685
1457,236,3.311,-0.0295691,0.211265,0.805995
1459,234,3.31331,-0.0356452,0.209538,0.805356
1461,232,3.31265,-0.0368083,0.209978,0.804687
1463,230,3.31318,-0.0325229,0.209005,0.804332
1465,228,3.31214,-0.0360268,0.209485,0.804059
1467,226,3.31103,-0.0373569,0.209969,0.803114
1469,224,3.3141,-0.0304907,0.207706,0.802696
1471,222,3.31317,-0.0316701,0.208187,0.802004
1473,220,3.31218,-0.0302976,0.20819,0.801296
1475,218,3.3118,-0.0312058,0.208186,0.801005
1477,216,3.31143,-0.0322211,0.208183,0.799508
1479,214,3.31316,-0.0282508,0.206882,0.799659
1481,212,3.31339,-0.0265498,0.206401,0.799354
1483,210,3.313,-0.026732,0.206403,0.799303
1485,208,3.31164,-0.0390757,0.206876,0.798329
1487,206,3.31217,-0.0362042,0.205918,0.79869
1489,204,3.3137,-0.0349327,0.205282,0.797685
1491,202,3.31323,-0.0335405,0.205093,0.796968
1493,200,3.31356,-0.0318008,0.204955,0.79666
1495,198,3.31236,-0.0329169,0.205093,0.796006
1497,196,3.31131,-0.0351083,0.205573,0.795021
1499,194,3.31361,-0.031025,0.203823,0.794333
1501,192,3.31295,-0.0310122,0.203784,0.794357
1503,190,3.31238,-0.0297218,0.20378,0.793591
1505,188,3.31263,-0.0288957,0.203304,0.793008
1507,186,3.31197,-0.0401458,0.203298,0.792719
1509,184,3.313732,-0.0364429,0.201989,0.791624
1511,182,3.31309,-0.0271583,0.202458,0.790945
1513,180,3.31228,-0.0383828,0.202459,0.790704
1515,178,3.31155,-0.0370186,0.202458,0.789976
1517,176,3.31193,-0.0349452,0.201984,0.789771
1519,174,3.31419,-0.0338139,0.200666,0.789011
1521,172,3.31308,-0.0349677,0.201135,0.788332
1523,170,3.31202,-0.0333379,0.201136,0.787693
1525,168,3.31146,-0.0344517,0.20113,0.787327
1527,166,3.31167,-0.0328548,0.200654,0.786987
1529,164,3.31388,-0.0287876,0.199335,0.785975
1531,162,3.31295,-0.0299429,0.199514,0.785614
1533,160,3.31206,-0.030987,0.199806,0.784988
1535,158,3.31189,-0.0292416,0.199328,0.78468
1537,156,3.31442,-0.035711,0.197525,0.783955
1539,154,3.31348,-0.0368133,0.197999,0.783316
1541,152,3.31279,-0.0379172,0.197997,0.782985
1543,150,3.31222,-0.0388743,0.197991,0.782679
1545,148,3.31167,-0.0373417,0.197995,0.782238
1547,146,3.31505,-0.0305776,0.195723,0.781279
1549,144,3.31461,-0.0299455,0.195721,0.780301
1551,142,3.31404,-0.0309646,0.195716,0.78
1553,140,3.3124,-0.0347338,0.196655,0.779369
1555,138,3.31124,-0.0331901,0.196652,0.778684
1557,136,3.31408,-0.029158,0.194841,0.777956
1559,134,3.31343,-0.0275804,0.194838,0.77727
1561,132,3.31307,-0.0286859,0.194838,0.776943
1563,130,3.31231,-0.0296687,0.194874,0.776659
1565,128,3.31076,-0.0413036,0.195301,0.776022
1567,126,3.3139,-0.0372725,0.193492,0.775311
1569,124,3.31377,-0.0354783,0.193018,0.774982
1571,122,3.31338,-0.0365753,0.193014,0.774877
1573,120,3.3126,-0.0351289,0.192727,0.773946
1575,118,3.31438,-0.0308833,0.191664,0.772943
1577,116,3.31409,-0.0318634,0.192131,0.772641
1579,114,3.31415,-0.0301766,0.191193,0.772297
1581,112,3.31385,-0.0312376,0.191196,0.771981
1583,110,3.3127,-0.0335618,0.191658,0.770971
1585,108,3.31526,-0.0266951,0.18984,0.769926
1587,106,3.31503,-0.0267115,0.189842,0.769936
1589,104,3.31382,-0.0287961,0.190303,0.768992
1591,102,3.31274,-0.0405571,0.190299,0.768689
1593,100,3.31229,-0.0416332,0.190292,0.768346
1595,98,3.31415,-0.037499,0.188931,0.767313
1597,96,3.3129,-0.0387986,0.189392,0.76662
1599,94,3.31343,-0.0370818,0.189112,0.766288
1601,92,3.31312,-0.0352352,0.188467,0.765998
1603,90,3.3152,-0.0341438,0.187097,0.765442
1605,88,3.31423,-0.0323684,0.187095,0.76458
1607,86,3.31441,-0.0305864,0.186638,0.764275
1609,84,3.31405,-0.0301207,0.186639,0.763258
1611,82,3.31357,-0.0311475,0.186635,0.762949
1613,80,3.31556,-0.0269819,0.185263,0.761921
1615,78,3.31442,-0.0309436,0.185302,0.761607
1617,76,3.31323,-0.0401377,0.185721,0.760971
1619,74,3.31322,-0.041223,0.185721,0.760647
1621,72,3.31651,-0.0341229,0.183437,0.759952
1623,70,3.31627,-0.0350806,0.183463,0.759692
1625,68,3.3141,-0.0376395,0.184345,0.758297
1627,66,3.31345,-0.0385589,0.184342,0.758032
1629,64,3.31339,-0.0368727,0.183886,0.757692
1631,62,3.31706,-0.029759,0.181602,0.75697
1633,60,3.31635,-0.0282623,0.181596,0.756265
1635,58,3.31528,-0.031961,0.182043,0.756014
1637,56,3.31378,-0.0331676,0.182494,0.755331
1639,54,3.31656,-0.0288115,0.180961,0.754659
1641,52,3.31551,-0.0392994,0.180652,0.753656
1643,50,3.31499,-0.0403985,0.180652,0.753348
1645,48,3.31477,-0.0415162,0.180654,0.753022
1647,46,3.31682,-0.0372469,0.179249,0.751989
1649,44,3.31607,-0.0382395,0.179247,0.751688
1651,42,3.315185,-0.0367892,0.179251,0.750965
1653,40,3.31513,-0.0388565,0.179398,0.750354
1655,38,3.31396,-0.0372856,0.179244,0.749659
1657,36,3.31664,-0.0330706,0.177401,0.748943
1659,34,3.31697,-0.0312434,0.176952,0.748636
1661,32,3.31724,-0.0294448,0.176964,0.748323
1663,30,3.31494,-0.0317951,0.177395,0.747026
1665,28,3.3177,-0.0276911,0.175551,0.746256
1667,26,3.31706,-0.02874,0.175547,0.745957
1669,24,3.3163,-0.040842,0.175546,0.745676
1671,22,3.3154,-0.0421403,0.175988,0.744992
1673,20,3.31928,-0.0331162,0.173263,0.743976
1675,18,3.3181,-0.0342477,0.173695,0.743336
1677,16,3.31672,-0.0381674,0.174131,0.743035
1679,14,3.31538,-0.039537,0.174568,0.742341
1681,12,3.31874,-0.0321467,0.17227,0.741661
1683,10,3.3181,-0.0317657,0.172272,0.740623
1685,8,3.31812,-0.0299953,0.171834,0.740289
1687,6,3.31718,-0.0339496,0.172268,0.740002
1689,4,3.31947,-0.0267203,0.17042,0.738966
1690,3,3.31888,-0.0278394,0.170413,0.738643