File: hust_correlation_analysis/matrices/HUST_8-4_cycle_feature_matrix.csv
cycle_number,rul,voltage,current,capacity,charge_capacity
1,1887,3.31914,-0.0120911,0.281361,1.01154
3,1885,3.30558,-0.0122337,0.286727,1.00589
5,1883,3.3058,-0.0133983,0.286728,1.00534
7,1881,3.30556,-0.0140391,0.286733,1.00505
9,1879,3.3081,-0.0113428,0.284931,1.00468
11,1877,3.30799,-0.0113334,0.284936,1.0047
13,1875,3.30801,-0.0119915,0.284938,1.00438
15,1873,3.30829,-0.0127195,0.284937,1.00403
17,1871,3.30835,-0.0126127,0.284502,1.0043
19,1869,3.3082,-0.0132538,0.284509,1.00399
21,1867,3.30807,-0.0132777,0.284508,1.00399
23,1865,3.30798,-0.0139446,0.284507,1.00365
25,1863,3.30967,-0.0106448,0.283154,1.00341
27,1861,3.30939,-0.0113177,0.283151,1.00306
29,1859,3.30953,-0.011382,0.283147,1.00303
31,1857,3.31038,-0.0113425,0.282726,1.00329
33,1855,3.31024,-0.0118224,0.282719,1.00302
35,1853,3.30987,-0.0120262,0.282723,1.00292
37,1851,3.30981,-0.0119825,0.282717,1.00296
39,1849,3.30948,-0.0126375,0.283135,1.00239
41,1847,3.30933,-0.0126839,0.283223,1.00234
43,1845,3.30913,-0.0127142,0.283129,1.00234
45,1843,3.30933,-0.0133933,0.283129,1.00198
47,1841,3.30908,-0.0132536,0.283129,1.00206
49,1839,3.30906,-0.0134024,0.283127,1.00198
51,1837,3.30902,-0.0139906,0.283122,1.00168
53,1835,3.30868,-0.014105,0.283126,1.00162
55,1833,3.30898,-0.0139346,0.283119,1.00168
57,1831,3.31101,-0.0114326,0.281765,1.00104
59,1829,3.31141,-0.0113385,0.28135,1.00132
61,1827,3.31084,-0.011372,0.281351,1.00132
63,1825,3.3108,-0.0120887,0.281777,1.00074
65,1823,3.31064,-0.0120334,0.281767,1.00074
67,1821,3.31066,-0.0121114,0.281762,1.0007
69,1819,3.31025,-0.0120614,0.281764,1.00073
71,1817,3.31039,-0.0127563,0.281764,1.00038
73,1815,3.31023,-0.0126948,0.28176,1.0004
75,1813,3.31013,-0.0127643,0.281759,1.00038
77,1811,3.30988,-0.0134686,0.282179,0.999797
79,1809,3.3098,-0.0133038,0.28176,1.00008
81,1807,3.31002,-0.0133991,0.281768,1.00008
83,1805,3.31033,-0.0140367,0.282067,0.999762
85,1803,3.3101,-0.0139853,0.281768,0.99979
87,1801,3.30971,-0.0140538,0.281773,0.99977
89,1799,3.31156,-0.0107871,0.280413,0.999482
91,1797,3.31114,-0.0114021,0.280833,0.998948
93,1795,3.31178,-0.0113435,0.280411,0.999196
95,1793,3.31167,-0.0113749,0.280414,0.999183
97,1791,3.31128,-0.0113839,0.280599,0.999175
99,1789,3.31117,-0.0121054,0.280832,0.998594
101,1787,3.31159,-0.0121483,0.280411,0.998789
103,1785,3.31129,-0.0120894,0.280417,0.998837
105,1783,3.31134,-0.0121284,0.280411,0.998815
107,1781,3.31091,-0.0127689,0.280834,0.998278
109,1779,3.31142,-0.0126807,0.280412,0.998533
111,1777,3.31161,-0.0126494,0.280174,0.998568
113,1775,3.31075,-0.0134418,0.280829,0.997943
115,1773,3.31048,-0.0134689,0.280828,0.997913
117,1771,3.3106,-0.013368,0.28083,0.997972
119,1769,3.31116,-0.0133829,0.280409,0.99817
121,1767,3.31078,-0.0134443,0.280832,0.997932
123,1765,3.31079,-0.0140935,0.280829,0.997598
125,1763,3.31042,-0.0140037,0.280823,0.997632
127,1761,3.31025,-0.0141175,0.280827,0.997585
129,1759,3.31007,-0.0140642,0.280827,0.997612
131,1757,3.31214,-0.0114576,0.279471,0.997013
133,1755,3.3122,-0.0114153,0.279473,0.997035
135,1753,3.31225,-0.0114366,0.279483,0.997054
137,1751,3.31221,-0.0114418,0.279479,0.997043
139,1749,3.3118,-0.011502,0.279472,0.997001
141,1747,3.31202,-0.012052,0.279469,0.996714
143,1745,3.31176,-0.0121113,0.279891,0.99646
145,1743,3.31218,-0.0120748,0.279473,0.996691
147,1741,3.31188,-0.0120497,0.279472,0.996717
149,1739,3.31148,-0.0120718,0.279473,0.996702
151,1737,3.31153,-0.0120355,0.279471,0.996721
153,1735,3.31208,-0.0127916,0.279414,0.996348
155,1733,3.31167,-0.0127608,0.279472,0.996347
157,1731,3.31145,-0.0127836,0.279476,0.996351
159,1729,3.31124,-0.0134555,0.279904,0.995823
161,1727,3.31183,-0.0133081,0.279481,0.996104
163,1725,3.31179,-0.0133542,0.279474,0.99609
165,1723,3.3114,-0.0133811,0.279478,0.996067
167,1721,3.31105,-0.013375,0.279476,0.996077
169,1719,3.31097,-0.0140827,0.2799,0.995499
171,1717,3.31122,-0.0141355,0.280305,0.995473
173,1715,3.31088,-0.0141139,0.279899,0.995495
175,1713,3.31078,-0.014134,0.279898,0.995471
177,1711,3.31049,-0.0141105,0.279894,0.995474
179,1709,3.31264,-0.0108802,0.278279,0.995192
181,1707,3.31264,-0.0113856,0.278549,0.995196
183,1705,3.31226,-0.011414,0.278544,0.994941
185,1703,3.31276,-0.0114183,0.278546,0.994946
187,1701,3.31258,-0.0115296,0.278548,0.994895
189,1699,3.31314,-0.0120606,0.278148,0.994623
191,1697,3.31214,-0.0121532,0.278553,0.994592
193,1695,3.3122,-0.0121008,0.278548,0.994601
195,1693,3.31242,-0.0117977,0.278543,0.99475
197,1691,3.31232,-0.0121572,0.278548,0.994572
199,1689,3.31235,-0.0121202,0.278551,0.994607
201,1687,3.31242,-0.0127602,0.27855,0.994294
203,1685,3.31192,-0.0127535,0.278965,0.994036
205,1683,3.31239,-0.0127575,0.278542,0.994252
207,1681,3.3121,-0.0127653,0.278536,0.994241
209,1679,3.31179,-0.0127679,0.278543,0.994256
211,1677,3.31171,-0.0126518,0.278537,0.9943
213,1675,3.31246,-0.0127553,0.278528,0.994226
215,1673,3.31214,-0.0128822,0.278538,0.994173
217,1671,3.31167,-0.0134704,0.278956,0.993664
219,1669,3.31139,-0.013558,0.278965,0.993638
221,1667,3.31191,-0.0134245,0.27854,0.993917
223,1665,3.31144,-0.0135438,0.278957,0.993637
225,1663,3.31157,-0.0133757,0.278523,0.993906
227,1661,3.31197,-0.0134589,0.278533,0.993877
229,1659,3.31166,-0.0141335,0.278956,0.993333
231,1657,3.31147,-0.014205,0.278955,0.993287
233,1655,3.31089,-0.0141961,0.278954,0.993295
235,1653,3.31083,-0.0142061,0.278958,0.993297
237,1651,3.31085,-0.0141938,0.279365,0.993313
239,1649,3.31342,-0.0115292,0.277603,0.992732
241,1647,3.31338,-0.0115343,0.277604,0.992735
243,1645,3.31283,-0.0115031,0.277596,0.992736
245,1643,3.31285,-0.0114355,0.277776,0.992742
247,1641,3.31345,-0.0114234,0.277179,0.992991
249,1639,3.31305,-0.0114812,0.27759,0.992718
251,1637,3.31272,-0.0115251,0.278,0.992705
253,1635,3.31269,-0.0115164,0.27759,0.992678
255,1633,3.31297,-0.0115222,0.27759,0.992685
257,1631,3.31297,-0.0115369,0.277585,0.99266
259,1629,3.31204,-0.0117211,0.278005,0.992328
261,1627,3.31275,-0.0115092,0.277577,0.992641
263,1625,3.31242,-0.0116798,0.27799,0.992316
265,1623,3.31275,-0.0116167,0.277577,0.992585
267,1621,3.31197,-0.0118468,0.277998,0.992244
269,1619,3.31212,-0.0123271,0.277996,0.992004
271,1617,3.31207,-0.0122671,0.278003,0.992309
273,1615,3.31278,-0.0122547,0.277578,0.992275
275,1613,3.31262,-0.0122107,0.277575,0.992295
277,1611,3.31231,-0.0122933,0.277671,0.992273
279,1609,3.31194,-0.0129326,0.277993,0.991692
281,1607,3.31204,-0.0128715,0.277988,0.991725
283,1605,3.31216,-0.0129024,0.277985,0.991697
285,1603,3.3122,-0.0129307,0.277574,0.991924
287,1601,3.31237,-0.0128845,0.277582,0.991972
289,1599,3.31241,-0.0134778,0.277576,0.991672
291,1597,3.31227,-0.0135306,0.27758,0.991908
293,1595,3.31195,-0.0135662,0.27728,0.991637
295,1593,3.3118,-0.0135898,0.277576,0.991617
297,1591,3.31208,-0.0135333,0.277581,0.991648
299,1589,3.31216,-0.0135497,0.277574,0.991642
301,1587,3.31221,-0.0141284,0.277576,0.99134
303,1585,3.31194,-0.0141968,0.277577,0.991305
305,1583,3.31198,-0.0141516,0.277579,0.99133
307,1581,3.31191,-0.0142603,0.277573,0.99127
309,1579,3.31168,-0.0141899,0.277575,0.991314
311,1577,3.31355,-0.0109684,0.276222,0.991027
313,1575,3.31303,-0.0116199,0.276648,0.990496
315,1573,3.31379,-0.0115441,0.276228,0.990757
317,1571,3.31375,-0.0115502,0.276226,0.990753
319,1569,3.31409,-0.0115033,0.275809,0.990999
321,1567,3.31368,-0.0121575,0.276223,0.990442
323,1565,3.31366,-0.0121859,0.276222,0.990418
325,1563,3.31364,-0.0121584,0.276216,0.990422
327,1561,3.31334,-0.0122264,0.276217,0.99038
329,1559,3.31327,-0.0121935,0.276217,0.99038
331,1557,3.31345,-0.0121898,0.276215,0.99038
333,1555,3.31353,-0.0122815,0.276222,0.990355
335,1553,3.31325,-0.012195,0.276219,0.990395
337,1551,3.31329,-0.0128836,0.276229,0.99007
339,1549,3.31325,-0.0129123,0.27623,0.990056
341,1547,3.31317,-0.0129745,0.276228,0.990038
343,1545,3.31307,-0.0128636,0.276224,0.990095
345,1543,3.31309,-0.0135342,0.275983,0.989745
347,1541,3.31317,-0.0135304,0.276228,0.989757
349,1539,3.31322,-0.0135753,0.276226,0.989738
351,1537,3.31325,-0.0135341,0.276228,0.98976
353,1535,3.31276,-0.013593,0.276232,0.989743
355,1533,3.31245,-0.0135271,0.276226,0.989745
357,1531,3.31266,-0.0136024,0.276225,0.989721
359,1529,3.31294,-0.014154,0.276221,0.989427
361,1527,3.31268,-0.0142083,0.276224,0.989407
363,1525,3.31188,-0.0142746,0.276637,0.989146
365,1523,3.31263,-0.0142357,0.276231,0.989422
367,1521,3.31485,-0.0115442,0.275166,0.988834
369,1519,3.31457,-0.0115274,0.274872,0.988842
371,1517,3.31422,-0.0115627,0.274843,0.988827
373,1515,3.31433,-0.0114997,0.274873,0.988854
375,1513,3.31426,-0.0115605,0.274872,0.988827
377,1511,3.31414,-0.0115274,0.274872,0.988856
379,1509,3.31423,-0.0115976,0.274871,0.988809
381,1507,3.31462,-0.0122086,0.275059,0.9885
383,1505,3.31467,-0.012224,0.274872,0.988486
385,1503,3.31411,-0.0121867,0.274866,0.988493
387,1501,3.31399,-0.0122231,0.274862,0.988466
389,1499,3.31403,-0.0122201,0.274869,0.98849
391,1497,3.31408,-0.0128392,0.274877,0.988197
393,1495,3.31368,-0.0129479,0.275302,0.987942
395,1493,3.31381,-0.0129085,0.274879,0.988174
397,1491,3.31348,-0.0129008,0.275296,0.987957
399,1489,3.31438,-0.0135636,0.274875,0.987832
401,1487,3.31414,-0.0134387,0.274862,0.987867
403,1485,3.31308,-0.013667,0.275291,0.987568
405,1483,3.31298,-0.0135682,0.275288,0.987612
407,1481,3.31387,-0.0135955,0.274872,0.987813
409,1479,3.31365,-0.013487,0.27487,0.987854
411,1477,3.31334,-0.0136008,0.274872,0.987804
413,1475,3.313,-0.0142364,0.275283,0.98726
415,1473,3.31375,-0.0141896,0.274868,0.9875
417,1471,3.31371,-0.0141732,0.274871,0.987513
419,1469,3.31504,-0.0116108,0.27393,0.986662
421,1467,3.31485,-0.0115907,0.273938,0.986697
423,1465,3.31521,-0.0115442,0.273522,0.986926
425,1463,3.31494,-0.0116136,0.273937,0.986675
427,1461,3.315,-0.0115588,0.273524,0.986927
429,1459,3.31521,-0.0115308,0.27381,0.986929
431,1457,3.31497,-0.0122484,0.273937,0.986354
433,1455,3.31494,-0.0122174,0.273935,0.986365
435,1453,3.31484,-0.0121704,0.273509,0.98658
437,1451,3.31431,-0.0122102,0.273925,0.986343
439,1449,3.31454,-0.0123288,0.273931,0.986298
441,1447,3.31456,-0.0129383,0.273933,0.985999
443,1445,3.3143,-0.0129466,0.273933,0.985997
445,1443,3.31416,-0.0129622,0.273938,0.986002
447,1441,3.31448,-0.0129056,0.273939,0.986044
449,1439,3.3147,-0.0135254,0.274025,0.985712
451,1437,3.31429,-0.013548,0.273938,0.985719
453,1435,3.31397,-0.0136267,0.273939,0.98568
455,1433,3.31403,-0.0135179,0.273937,0.985719
457,1431,3.31403,-0.0136178,0.273936,0.985675
459,1429,3.31395,-0.0141848,0.27393,0.985378
461,1427,3.31402,-0.0143047,0.273941,0.985323
463,1425,3.31398,-0.0141938,0.273929,0.985376
465,1423,3.31404,-0.0142307,0.273931,0.985344
467,1421,3.31389,-0.0142178,0.273936,0.985378
469,1419,3.31583,-0.01093,0.272586,0.985108
471,1417,3.3158,-0.0114818,0.27258,0.98482
473,1415,3.31561,-0.0116601,0.272593,0.984759
475,1413,3.31544,-0.0115763,0.272587,0.984792
477,1411,3.3152,-0.0116625,0.272588,0.984754
479,1409,3.31538,-0.0115525,0.272582,0.984774
481,1407,3.31615,-0.0115222,0.27234,0.984992
483,1405,3.31579,-0.012156,0.272568,0.984216
485,1403,3.3153,-0.0122592,0.272575,0.98441
487,1401,3.31512,-0.0121121,0.272574,0.984468
489,1399,3.31531,-0.0122847,0.272577,0.984403
491,1397,3.31517,-0.0122352,0.272573,0.984412
493,1395,3.31505,-0.0122644,0.272566,0.982975
495,1393,3.31443,-0.0129407,0.272995,0.983858
497,1391,3.31532,-0.0129437,0.272571,0.984051
499,1389,3.31522,-0.0128891,0.272573,0.984085
501,1387,3.31504,-0.0129885,0.272572,0.984029
503,1385,3.31519,-0.0135547,0.272571,0.983734
505,1383,3.31511,-0.0135655,0.272577,0.983741
507,1381,3.3151,-0.0135502,0.272568,0.98373
509,1379,3.3144,-0.0135368,0.272561,0.983688
511,1377,3.31458,-0.0136031,0.272571,0.983708
513,1375,3.31477,-0.0135645,0.272568,0.983722
515,1373,3.31463,-0.0142188,0.272979,0.983173
517,1371,3.31454,-0.0143161,0.272567,0.983339
519,1369,3.31412,-0.0145028,0.273273,0.982843
521,1367,3.31466,-0.014288,0.272568,0.983363
523,1365,3.31657,-0.0109663,0.271214,0.983117
525,1363,3.31635,-0.0116064,0.271218,0.9828
527,1361,3.3161,-0.011585,0.271217,0.982824
529,1359,3.31621,-0.011524,0.271212,0.982824
531,1357,3.31613,-0.0116462,0.271212,0.982757
533,1355,3.3162,-0.0116791,0.271219,0.98276
535,1353,3.31583,-0.0124212,0.271482,0.982404
537,1351,3.31575,-0.0123373,0.271623,0.982192
539,1349,3.31628,-0.0123289,0.271205,0.982399
541,1347,3.31599,-0.012244,0.271213,0.982455
543,1345,3.31595,-0.0123675,0.271213,0.982391
545,1343,3.31543,-0.0130247,0.271627,0.981849
547,1341,3.31597,-0.0129228,0.271214,0.982114
549,1339,3.31565,-0.0129123,0.271216,0.982134
551,1337,3.31578,-0.0130239,0.271219,0.982098
553,1335,3.31537,-0.0136864,0.271632,0.981532
555,1333,3.31579,-0.0136237,0.271217,0.981776
557,1331,3.31588,-0.0135431,0.27121,0.981801
559,1329,3.31535,-0.013616,0.271207,0.981754
561,1327,3.31546,-0.0135407,0.271205,0.98178
563,1325,3.31557,-0.0136325,0.271204,0.981746
565,1323,3.31514,-0.0143953,0.271622,0.981148
567,1321,3.31514,-0.0143058,0.271205,0.981387
569,1319,3.31464,-0.0142894,0.271614,0.981189
571,1317,3.31522,-0.0142948,0.271169,0.981395
573,1315,3.31684,-0.0117004,0.270357,0.98057
575,1313,3.31724,-0.0116257,0.269857,0.980823
577,1311,3.3166,-0.0116437,0.270272,0.980624
579,1309,3.31676,-0.0122615,0.270271,0.980316
581,1307,3.31671,-0.0123851,0.27028,0.980266
583,1305,3.31694,-0.0121944,0.269851,0.980531
585,1303,3.31624,-0.012443,0.270271,0.980209
587,1301,3.31627,-0.0123205,0.270261,0.980508
589,1299,3.31699,-0.0123564,0.269854,0.980459
591,1297,3.31641,-0.0128847,0.270262,0.979971
593,1295,3.31626,-0.0130357,0.270262,0.979883
595,1293,3.31629,-0.0129798,0.270266,0.979917
597,1291,3.31696,-0.0129616,0.269855,0.980155
599,1289,3.31652,-0.0128877,0.269858,0.980208
601,1287,3.31573,-0.013673,0.270277,0.979602
603,1285,3.31606,-0.0136515,0.270276,0.979609
605,1283,3.31614,-0.0136922,0.270273,0.979608
607,1281,3.31561,-0.0143706,0.270697,0.979053
609,1279,3.31559,-0.0143402,0.270276,0.97927
611,1277,3.3156,-0.0143158,0.270275,0.979285
613,1275,3.31573,-0.0143057,0.270277,0.979289
615,1273,3.31799,-0.011626,0.268921,0.978692
617,1271,3.31768,-0.0117195,0.268921,0.978657
619,1269,3.31738,-0.0115681,0.268917,0.978726
621,1267,3.31739,-0.0116793,0.268916,0.978664
623,1265,3.31734,-0.0116099,0.268915,0.978693
625,1263,3.31719,-0.0117624,0.268927,0.97865
627,1261,3.31672,-0.0123252,0.269335,0.978143
629,1259,3.31737,-0.0122843,0.268916,0.978362
631,1257,3.31744,-0.0123607,0.268921,0.97834
633,1255,3.31718,-0.0123127,0.268919,0.978355
635,1253,3.31658,-0.0130177,0.269332,0.977783
637,1251,3.31714,-0.012942,0.269104,0.978036
639,1249,3.31774,-0.0129238,0.268506,0.978254
641,1247,3.31679,-0.0129807,0.268924,0.977781
643,1245,3.31635,-0.0137461,0.269335,0.977427
645,1243,3.31628,-0.013701,0.269335,0.977445
647,1241,3.31637,-0.0137761,0.269334,0.977401
649,1239,3.31665,-0.0136608,0.268919,0.977658
651,1237,3.3166,-0.0144106,0.268926,0.977291
653,1235,3.3161,-0.0143238,0.26933,0.977128
655,1233,3.31604,-0.0143922,0.269613,0.977083
657,1231,3.31671,-0.0142895,0.26892,0.977351
659,1229,3.31825,-0.0109876,0.267559,0.977064
661,1227,3.3177,-0.0117043,0.267974,0.977971
663,1225,3.31827,-0.0117174,0.267561,0.97668
665,1223,3.31831,-0.0116211,0.26764,0.97672
667,1221,3.31787,-0.011647,0.267229,0.976718
669,1219,3.31753,-0.0117198,0.267973,0.976485
671,1217,3.31795,-0.0123799,0.267969,0.97614
673,1215,3.31744,-0.0123525,0.267967,0.976156
675,1213,3.31802,-0.0122968,0.267555,0.976371
677,1211,3.31737,-0.0123917,0.267575,0.976391
679,1209,3.31772,-0.0130006,0.267967,0.975807
681,1207,3.31754,-0.013084,0.267973,0.975778
683,1205,3.31731,-0.0130711,0.267971,0.975795
685,1203,3.31671,-0.0131296,0.267968,0.975749
687,1201,3.31722,-0.0136445,0.268053,0.975449
689,1199,3.31739,-0.0136992,0.267969,0.975457
691,1197,3.31693,-0.0137124,0.267966,0.97545
693,1195,3.31699,-0.0137774,0.26797,0.975442
695,1193,3.31646,-0.0144271,0.268382,0.975132
697,1191,3.31722,-0.0143925,0.267964,0.975099
699,1189,3.31719,-0.0143765,0.267967,0.975106
701,1187,3.3166,-0.0145093,0.267963,0.975045
703,1185,3.31656,-0.0144198,0.267959,0.975057
705,1183,3.3185,-0.0118548,0.267019,0.97421
707,1181,3.31866,-0.0116537,0.266604,0.974518
709,1179,3.31861,-0.0116836,0.266608,0.974506
711,1177,3.31814,-0.0117676,0.267204,0.974282
713,1175,3.31785,-0.012448,0.26702,0.973913
715,1173,3.31867,-0.0124165,0.266615,0.974158
717,1171,3.31831,-0.0123665,0.266608,0.974161
719,1169,3.31809,-0.0130413,0.267021,0.97387
721,1167,3.31782,-0.013028,0.267023,0.973637
723,1165,3.31773,-0.0131968,0.267024,0.973545
725,1163,3.31806,-0.0131012,0.266613,0.973788
727,1161,3.31728,-0.0137898,0.267019,0.973483
729,1159,3.31685,-0.0137958,0.267429,0.973013
731,1157,3.31773,-0.0138051,0.267024,0.973232
733,1155,3.3173,-0.0144794,0.267442,0.972702
735,1153,3.31725,-0.0144877,0.267206,0.972876
737,1151,3.31724,-0.0143988,0.267023,0.972932
739,1149,3.31731,-0.0143839,0.267023,0.972935
741,1147,3.31901,-0.0117173,0.266071,0.972117
743,1145,3.31914,-0.0116804,0.265662,0.972333
745,1143,3.31864,-0.0117418,0.265662,0.972316
747,1141,3.31841,-0.0123408,0.266258,0.971567
749,1139,3.31848,-0.0124338,0.266071,0.971751
751,1137,3.31842,-0.012434,0.266078,0.971757
753,1135,3.31808,-0.0125019,0.266082,0.971731
755,1133,3.31824,-0.0124195,0.266078,0.971774
757,1131,3.31855,-0.013085,0.266067,0.971396
759,1129,3.31831,-0.0130534,0.266148,0.971397
761,1127,3.31802,-0.0130886,0.266068,0.971399
763,1125,3.3178,-0.013165,0.266069,0.971364
765,1123,3.318,-0.0131607,0.266152,0.971354
767,1121,3.31744,-0.013946,0.266484,0.970531
769,1119,3.31758,-0.0138216,0.266074,0.971044
771,1117,3.31701,-0.0144338,0.266484,0.970509
773,1115,3.31723,-0.0145123,0.266488,0.970486
775,1113,3.31782,-0.0145171,0.266069,0.970671
777,1111,3.31737,-0.0144705,0.266077,0.970711
779,1109,3.31935,-0.0111699,0.264708,0.970402
781,1107,3.31887,-0.0117385,0.265117,0.969887
783,1105,3.31964,-0.011821,0.264662,0.970049
785,1103,3.31876,-0.0118266,0.265114,0.969829
787,1101,3.31865,-0.0119041,0.265117,0.969806
789,1099,3.3186,-0.0124325,0.265118,0.969542
791,1097,3.31868,-0.0125685,0.265204,0.969472
793,1095,3.31859,-0.0126042,0.265118,0.969453
795,1093,3.31851,-0.0131674,0.265127,0.969181
797,1091,3.31827,-0.0132072,0.265112,0.969131
799,1089,3.31869,-0.0137592,0.265121,0.968875
801,1087,3.3187,-0.0138705,0.265122,0.968806
803,1085,3.31829,-0.013809,0.265117,0.96908
805,1083,3.31808,-0.0138692,0.265118,0.968825
807,1081,3.3174,-0.0145903,0.26553,0.968238
809,1079,3.3177,-0.0146163,0.265536,0.968241
811,1077,3.31763,-0.0145323,0.265524,0.968259
813,1075,3.31926,-0.0111872,0.264244,0.967968
815,1073,3.31926,-0.0118828,0.264165,0.967616
817,1071,3.31928,-0.0117804,0.264169,0.967685
819,1069,3.31968,-0.0119131,0.264165,0.967607
821,1067,3.31948,-0.0124345,0.26417,0.967338
823,1065,3.31911,-0.0125978,0.264164,0.967245
825,1063,3.31883,-0.0124618,0.264167,0.967317
827,1061,3.31908,-0.0125057,0.264159,0.967289
829,1059,3.31872,-0.0133146,0.264565,0.966643
831,1057,3.31814,-0.0133029,0.264566,0.966654
833,1055,3.31854,-0.0132338,0.26415,0.966891
835,1053,3.31779,-0.0139191,0.264972,0.966114
837,1051,3.31822,-0.0140414,0.264567,0.966275
839,1049,3.31822,-0.0139735,0.264569,0.966317
841,1047,3.31807,-0.0146455,0.264571,0.965986
843,1045,3.31781,-0.0146376,0.26458,0.966012
845,1043,3.31981,-0.011862,0.263621,0.965219
847,1041,3.32009,-0.011921,0.262825,0.965393
849,1039,3.3197,-0.0118445,0.263209,0.965428
851,1037,3.31942,-0.0119392,0.263206,0.965389
853,1035,3.31898,-0.0125369,0.264021,0.964841
855,1033,3.31964,-0.0125549,0.263204,0.965051
857,1031,3.31962,-0.0124711,0.263201,0.96535
859,1029,3.31894,-0.0132911,0.263612,0.964466
861,1027,3.31875,-0.0132942,0.263612,0.96446
863,1025,3.3189,-0.0131906,0.263611,0.964507
865,1023,3.31847,-0.014078,0.264031,0.963873
867,1021,3.31862,-0.0139959,0.263622,0.964129
869,1019,3.31777,-0.0147649,0.264038,0.963533
871,1017,3.31757,-0.0147022,0.264039,0.96357
873,1015,3.31788,-0.0146916,0.264039,0.963587
875,1013,3.31996,-0.0119976,0.262674,0.962943
877,1011,3.31964,-0.0119854,0.262678,0.962963
879,1009,3.3194,-0.012719,0.26309,0.962395
881,1007,3.31941,-0.0126507,0.263087,0.962449
883,1005,3.3195,-0.0125458,0.262748,0.962652
885,1003,3.31941,-0.013322,0.263082,0.962064
887,1001,3.31884,-0.0134364,0.26308,0.962004
889,999,3.31878,-0.0132928,0.263082,0.962081
891,997,3.31915,-0.0133276,0.262666,0.962179
893,995,3.31873,-0.0139489,0.263078,0.961746
895,993,3.31826,-0.0140423,0.263079,0.961687
897,991,3.31785,-0.0147572,0.263499,0.961131
899,989,3.31848,-0.0146319,0.263078,0.961397
901,987,3.32052,-0.0112266,0.26209,0.961141
903,985,3.31994,-0.0120012,0.262129,0.960537
905,983,3.31955,-0.0120029,0.262129,0.960542
907,981,3.31959,-0.0118968,0.262529,0.960593
909,979,3.31951,-0.012717,0.262128,0.960164
911,977,3.31944,-0.0126415,0.26213,0.960443
913,975,3.31916,-0.0128024,0.262129,0.960129
915,973,3.31853,-0.0133669,0.26254,0.959626
917,971,3.31905,-0.0133639,0.262121,0.95983
919,969,3.31887,-0.0140726,0.262537,0.959247
921,967,3.31853,-0.0141282,0.262538,0.959228
923,965,3.31831,-0.0140961,0.262811,0.959259
925,963,3.31791,-0.0147764,0.262952,0.958701
927,961,3.31838,-0.0148217,0.262538,0.958884
929,959,3.31791,-0.0147973,0.262532,0.958883
931,957,3.31926,-0.012189,0.261587,0.958025
933,955,3.31936,-0.01202,0.261991,0.958093
935,953,3.31989,-0.0120635,0.261173,0.958287
937,951,3.31932,-0.0127093,0.261575,0.957737
939,949,3.31908,-0.0128357,0.261586,0.957679
941,947,3.31867,-0.0134639,0.261994,0.957141
943,945,3.3192,-0.0134641,0.261582,0.95735
945,943,3.31911,-0.0134574,0.261573,0.957338
947,941,3.31863,-0.0135286,0.261571,0.957287
949,939,3.31818,-0.0142862,0.261986,0.956711
951,937,3.31792,-0.014225,0.261989,0.956756
953,935,3.31834,-0.0148829,0.261987,0.956409
955,933,3.31799,-0.0148635,0.261994,0.956433
957,931,3.32009,-0.0113235,0.260614,0.956204
959,929,3.31957,-0.0121013,0.261034,0.955599
961,927,3.32027,-0.0121145,0.260617,0.955814
963,925,3.3195,-0.0128079,0.261212,0.955246
965,923,3.31961,-0.0128137,0.260617,0.955453
967,921,3.319,-0.0128279,0.261029,0.955227
969,919,3.31944,-0.0128584,0.260621,0.955433
971,917,3.31912,-0.0135394,0.261024,0.954857
973,915,3.31848,-0.0135261,0.261026,0.954858
975,913,3.31828,-0.0143051,0.261447,0.954289
977,911,3.3186,-0.0141631,0.261037,0.954581
979,909,3.31855,-0.0150353,0.261726,0.953956
981,907,3.31838,-0.0148613,0.261036,0.954225
983,905,3.31996,-0.0121266,0.26008,0.953389
985,903,3.31998,-0.0121398,0.260081,0.953385
987,901,3.32004,-0.0121739,0.260078,0.953363
989,899,3.31951,-0.0127926,0.260081,0.953054
991,897,3.31946,-0.0127564,0.260072,0.953054
993,895,3.3195,-0.0127545,0.260067,0.953038
995,893,3.3191,-0.0136762,0.260486,0.952383
997,891,3.31932,-0.0134898,0.260071,0.952676
999,889,3.31872,-0.0143049,0.260563,0.952049
1001,887,3.31892,-0.0141549,0.260478,0.952104
1003,885,3.31848,-0.0143754,0.260484,0.952021
1005,883,3.3181,-0.0151229,0.261314,0.951454
1007,881,3.31746,-0.0151214,0.260898,0.951438
1009,879,3.31929,-0.0123134,0.259947,0.950644
1011,877,3.31978,-0.0122963,0.25953,0.950861
1013,875,3.31998,-0.0129022,0.259709,0.950546
1015,873,3.3194,-0.0129836,0.259526,0.950489
1017,871,3.31941,-0.0128426,0.259525,0.950566
1019,869,3.31974,-0.0136498,0.259531,0.950165
1021,867,3.31938,-0.0136116,0.259704,0.950183
1023,865,3.31911,-0.0136256,0.259522,0.950165
1025,863,3.31854,-0.0142995,0.259938,0.94962
1027,861,3.31865,-0.0143075,0.25994,0.949613
1029,859,3.31832,-0.0143323,0.259929,0.949581
1031,857,3.31821,-0.0150103,0.260113,0.94925
1033,855,3.31764,-0.015091,0.260349,0.949009
1035,853,3.31999,-0.0125509,0.258983,0.948294
1037,851,3.32033,-0.0121961,0.258646,0.948667
1039,849,3.31917,-0.0130286,0.258983,0.948028
1041,847,3.31912,-0.0129979,0.258985,0.94806
1043,845,3.31877,-0.0136721,0.259399,0.947509
1045,843,3.31886,-0.0137829,0.259399,0.947458
1047,841,3.31904,-0.0136946,0.25898,0.947707
1049,839,3.31825,-0.0144584,0.259396,0.947113
1051,837,3.3185,-0.0143474,0.259656,0.947175
1053,835,3.3187,-0.0151105,0.259399,0.946788
1055,833,3.31823,-0.0151068,0.259406,0.946815
1057,831,3.31973,-0.0123676,0.258436,0.945938
1059,829,3.31953,-0.0122978,0.25844,0.945983
1061,827,3.31971,-0.0130657,0.258514,0.945591
1063,825,3.31912,-0.0129703,0.258442,0.945645
1065,823,3.31884,-0.0138072,0.258855,0.945022
1067,821,3.31864,-0.0137809,0.258857,0.945009
1069,819,3.31939,-0.013797,0.258437,0.945221
1071,817,3.3188,-0.0144222,0.258855,0.944706
1073,815,3.31783,-0.014513,0.258859,0.944656
1075,813,3.31875,-0.0143901,0.258431,0.94492
1077,811,3.31813,-0.0152593,0.259122,0.944284
1079,809,3.31797,-0.0152227,0.258855,0.9443
1081,807,3.31922,-0.0125709,0.257892,0.943385
1083,805,3.31947,-0.0124127,0.257895,0.943485
1085,803,3.31954,-0.0131266,0.257884,0.943102
1087,801,3.31929,-0.0131839,0.25789,0.943073
1089,799,3.31898,-0.0137307,0.257889,0.9428
1091,797,3.31894,-0.0137674,0.257893,0.942806
1093,795,3.31846,-0.0146456,0.258388,0.942163
1095,793,3.31821,-0.0145597,0.258572,0.942188
1097,791,3.31792,-0.0145552,0.25831,0.942198
1099,789,3.31822,-0.0151554,0.258305,0.941884
1101,787,3.31978,-0.0117968,0.25734,0.94132
1103,785,3.32023,-0.0124158,0.256921,0.941211
1105,783,3.3192,-0.0124843,0.257416,0.940974
1107,781,3.31934,-0.0130725,0.257341,0.940676
1109,779,3.31966,-0.0131938,0.25692,0.940814
1111,777,3.31892,-0.0132504,0.257338,0.940571
1113,775,3.31819,-0.0140572,0.257761,0.939971
1115,773,3.31814,-0.0139876,0.257756,0.940001
1117,771,3.31823,-0.0147346,0.257757,0.939637
1119,769,3.31862,-0.014521,0.257332,0.939936
1121,767,3.31791,-0.0154406,0.257759,0.939279
1123,765,3.31765,-0.015216,0.257762,0.939397
1125,763,3.31945,-0.0126271,0.256968,0.938434
1127,761,3.31964,-0.012476,0.256365,0.938702
1129,759,3.31879,-0.013295,0.256788,0.938093
1131,757,3.31892,-0.0131419,0.257191,0.938149
1133,755,3.31908,-0.0133722,0.256781,0.938042
1135,753,3.31886,-0.013953,0.256788,0.937757
1137,751,3.31858,-0.0139813,0.256785,0.937749
1139,749,3.31813,-0.0146601,0.257207,0.937206
1141,747,3.3178,-0.0147978,0.257283,0.937144
1143,745,3.31757,-0.0154637,0.257208,0.936809
1145,743,3.31919,-0.012713,0.256248,0.935941
1147,741,3.31912,-0.0125779,0.256243,0.935999
1149,739,3.3193,-0.0134044,0.256245,0.935588
1151,737,3.31891,-0.0132933,0.256245,0.934182
1153,735,3.31823,-0.0141019,0.256664,0.935023
1155,733,3.31863,-0.0139373,0.256242,0.93532
1157,731,3.31818,-0.0148602,0.256665,0.934653
1159,729,3.31764,-0.014845,0.256663,0.934658
1161,727,3.31714,-0.0155988,0.257088,0.934084
1163,725,3.31756,-0.0154679,0.256841,0.934351
1165,723,3.31933,-0.0126969,0.255692,0.933473
1167,721,3.31908,-0.0126744,0.255689,0.93348
1169,719,3.31858,-0.0134529,0.256119,0.932888
1171,717,3.31885,-0.0133818,0.255695,0.933139
1173,715,3.31817,-0.014139,0.256117,0.93279
1175,713,3.31817,-0.0140993,0.255695,0.932778
1177,711,3.316982,-0.0149268,0.256547,0.931963
1179,709,3.31748,-0.0156558,0.256544,0.931601
1181,707,3.3174,-0.0156682,0.256544,0.931843
1183,705,3.31918,-0.0127687,0.255143,0.930951
1185,703,3.31884,-0.0127105,0.25515,0.931003
1187,701,3.31828,-0.013521,0.255981,0.930382
1189,699,3.31877,-0.0134269,0.255145,0.930627
1191,697,3.31788,-0.014245,0.255566,0.930009
1193,695,3.31787,-0.0123334,0.255403,0.929933
1195,693,3.31795,-0.0130555,0.255133,0.929565
1197,691,3.3174,-0.0138271,0.255185,0.929002
1199,689,3.31695,-0.0138448,0.25557,0.928988
1201,687,3.3185,-0.0110341,0.254599,0.928096
1203,685,3.31913,-0.0110009,0.25417,0.928332
1205,683,3.318,-0.0190626,0.254773,0.927796
1207,681,3.31806,-0.0117014,0.254592,0.927774
1209,679,3.31763,-0.0196922,0.25458,0.927462
1211,677,3.31764,-0.0187972,0.254594,0.926939
1213,675,3.31756,-0.018567,0.254165,0.92699
1215,673,3.31684,-0.0213558,0.255022,0.926472
1217,671,3.31888,-0.0156583,0.253187,0.926166
1219,669,3.31877,-0.0147779,0.253183,0.925354
1221,667,3.31869,-0.0145196,0.252761,0.92569
1223,665,3.31786,-0.0172825,0.253618,0.925166
1225,663,3.3179,-0.0142702,0.253368,0.924369
1227,661,3.31847,-0.0142959,0.252767,0.92457
1229,659,3.31796,-0.0149102,0.252769,0.924276
1231,657,3.31708,-0.0157205,0.253188,0.92367
1233,655,3.31919,-0.0119542,0.251788,0.923462
1235,653,3.31906,-0.0110277,0.251969,0.922683
1237,651,3.31906,-0.010849,0.251541,0.922765
1239,649,3.3184,-0.0116787,0.251788,0.92235
1241,647,3.31769,-0.0198015,0.252213,0.921824
1243,645,3.31797,-0.0187231,0.251786,0.921309
1245,643,3.31768,-0.0204433,0.251786,0.9217
1247,641,3.31668,-0.014064,0.252638,0.920778
1249,639,3.31653,-0.0212354,0.252207,0.921101
1251,637,3.3187,-0.0166541,0.250808,0.920293
1253,635,3.319,-0.0163926,0.250376,0.920375
1255,633,3.3184,-0.0172871,0.250803,0.919731
1257,631,3.31803,-0.016161,0.250808,0.919055
1259,629,3.31824,-0.0150251,0.250386,0.918587
1261,627,3.31743,-0.0168655,0.250809,0.918724
1263,625,3.31726,-0.0176603,0.250809,0.918338
1265,623,3.31874,-0.0120418,0.249406,0.917781
1267,621,3.31923,-0.0110354,0.249231,0.917229
1269,619,3.31903,-0.0116248,0.248983,0.916958
1271,617,3.31858,-0.0135643,0.249403,0.917034
1273,615,3.31834,-0.0124537,0.249294,0.916346
1275,613,3.31874,-0.0124264,0.248986,0.916559
1277,611,3.31785,-0.0131665,0.249408,0.915998
1279,609,3.31677,-0.0159489,0.25025,0.915469
1281,607,3.31883,-0.0101671,0.248419,0.91517
1283,605,3.3188,-0.0185249,0.248422,0.914767
1285,603,3.31848,-0.0174146,0.24842,0.914063
1287,601,3.3182,-0.0192327,0.248423,0.914672
1289,599,3.31809,-0.0161512,0.247999,0.913618
1291,597,3.31805,-0.0169777,0.248002,0.913249
1293,595,3.31737,-0.0177909,0.248423,0.912641
1295,593,3.31654,-0.0196744,0.248843,0.912753
1297,591,3.31846,-0.014821,0.247442,0.911819
1299,589,3.31896,-0.0147316,0.247014,0.912064
1301,587,3.31859,-0.0136569,0.247016,0.911342
1303,585,3.318275,-0.0143988,0.247017,0.911001
1305,583,3.31762,-0.0151606,0.247434,0.910407
1307,581,3.31727,-0.0151334,0.247434,0.910424
1309,579,3.31728,-0.0159455,0.247434,0.910035
1311,577,3.31908,-0.0102745,0.24561,0.909689
1313,575,3.31862,-0.0110998,0.246321,0.90908
1315,573,3.31802,-0.011874,0.24645,0.908487
1317,571,3.31791,-0.0201079,0.246451,0.908157
1319,569,3.31796,-0.0200283,0.246431,0.908385
1321,567,3.31717,-0.0209058,0.246449,0.907773
1323,565,3.31679,-0.0208414,0.246446,0.9078
1325,563,3.31892,-0.0160929,0.245043,0.906802
1327,561,3.31855,-0.0167862,0.245037,0.906446
1329,559,3.31779,-0.0176251,0.24545,0.905834
1331,557,3.31783,-0.0156427,0.245036,0.905757
1333,555,3.31798,-0.0164201,0.245035,0.905387
1335,553,3.31718,-0.0171732,0.24546,0.904823
1337,551,3.31728,-0.0171106,0.245032,0.905039
1339,549,3.31637,-0.0179558,0.245454,0.904431
1341,547,3.31886,-0.0130013,0.243629,0.903721
1343,545,3.31842,-0.0119286,0.243632,0.902768
1345,543,3.31831,-0.0119192,0.24363,0.903253
1347,541,3.3177,-0.0145059,0.244053,0.902816
1349,539,3.31741,-0.0133032,0.244053,0.902157
1351,537,3.31718,-0.0217289,0.24405,0.901745
1353,535,3.31872,-0.0112045,0.243064,0.900893
1355,533,3.31873,-0.0111372,0.242644,0.901135
1357,531,3.31761,-0.0176277,0.243062,0.900205
1359,529,3.31748,-0.0184698,0.243056,0.899798
1361,527,3.31735,-0.0183998,0.243053,0.899823
1363,525,3.31698,-0.0191442,0.24305,0.899463
1365,523,3.31671,-0.0197952,0.243046,0.899128
1367,521,3.31909,-0.0140755,0.241226,0.89878
1369,519,3.31827,-0.0169369,0.242053,0.898237
1371,517,3.3172,-0.0176884,0.242473,0.897672
1373,515,3.31744,-0.0165624,0.242052,0.897164
1375,513,3.31745,-0.0146294,0.24181,0.89706
1377,511,3.31676,-0.0154397,0.242055,0.896471
1379,509,3.31911,-0.0104584,0.240231,0.895754
1381,507,3.31854,-0.0131131,0.240655,0.895541
1383,505,3.31792,-0.0119263,0.240656,0.894873
1385,503,3.31765,-0.0203979,0.240648,0.894469
1387,501,3.31704,-0.0211755,0.241065,0.893909
1389,499,3.31658,-0.0135649,0.24106,0.893852
1391,497,3.31585,-0.0220027,0.241483,0.8933
1393,495,3.31834,-0.0170204,0.239653,0.892553
1395,493,3.31775,-0.0177667,0.240059,0.891985
1397,491,3.3175,-0.0176976,0.239647,0.89222
1399,489,3.31665,-0.018564,0.240059,0.89161
1401,487,3.31608,-0.0173682,0.24006,0.890926
1403,485,3.31655,-0.0162636,0.239645,0.890403
1405,483,3.31839,-0.0131956,0.238235,0.889814
1407,481,3.31778,-0.0140216,0.23866,0.889235
1409,479,3.31753,-0.0139318,0.238646,0.889262
1411,477,3.31771,-0.0128494,0.238469,0.888753
1413,475,3.31679,-0.0135971,0.238652,0.88819
1415,473,3.31609,-0.0162939,0.239474,0.887952
1417,471,3.31761,-0.0190577,0.237662,0.887005
1419,469,3.31781,-0.0197214,0.237651,0.886681
1421,467,3.31735,-0.0197655,0.237648,0.886653
1423,465,3.31739,-0.0185809,0.237238,0.886177
1425,463,3.31641,-0.0193992,0.237655,0.885592
1427,461,3.3156,-0.0201799,0.238065,0.885016
1429,459,3.31738,-0.0173114,0.237076,0.884105
1431,457,3.31772,-0.0159168,0.236236,0.883915
1433,455,3.31663,-0.0187109,0.237072,0.883468
1435,453,3.31669,-0.0156946,0.236656,0.882405
1437,451,3.31667,-0.0163386,0.236654,0.882295
1439,449,3.31855,-0.0124762,0.235245,0.882059
1441,447,3.31798,-0.0133462,0.235254,0.881671
1443,445,3.31718,-0.0140826,0.235662,0.881107
1445,443,3.31704,-0.0148688,0.235665,0.880758
1447,441,3.31642,-0.02151,0.235661,0.880026
1449,439,3.31631,-0.0145258,0.235666,0.87967
1451,437,3.31756,-0.019168,0.234661,0.878866
1453,435,3.31712,-0.0200741,0.235076,0.878258
1455,433,3.31676,-0.0208295,0.235482,0.877897
1457,431,3.31632,-0.0131194,0.235078,0.877851
1459,429,3.31533,-0.0216243,0.235488,0.87732
1461,427,3.31536,-0.0203789,0.235078,0.876871
1463,425,3.31731,-0.0153964,0.233663,0.875667
1465,423,3.31745,-0.0140326,0.233244,0.875471
1467,421,3.31629,-0.0169582,0.234068,0.874956
1469,419,3.3156,-0.0158516,0.234071,0.874224
1471,417,3.31537,-0.0166178,0.234074,0.873883
1473,415,3.31776,-0.0113616,0.232242,0.873229
1475,413,3.31659,-0.0143115,0.233066,0.872681
1477,411,3.3168,-0.0130048,0.232651,0.872233
1479,409,3.31654,-0.0138001,0.232645,0.871879
1481,407,3.31553,-0.0224471,0.233067,0.871332
1483,405,3.3174,-0.0107745,0.23165,0.871028
1485,403,3.31636,-0.0194859,0.232062,0.870439
1487,401,3.31639,-0.0202086,0.232056,0.870105
1489,399,3.31656,-0.018943,0.231639,0.869636
1491,397,3.31543,-0.0219005,0.232476,0.869133
1493,395,3.31704,-0.0167709,0.231034,0.868172
1495,393,3.31707,-0.0154758,0.230637,0.867735
1497,391,3.31623,-0.0163768,0.231049,0.867119
1499,389,3.31576,-0.0171573,0.23105,0.866782
1501,387,3.31511,-0.015848,0.231056,0.866142
1503,385,3.31524,-0.0168182,0.23106,0.865727
1505,383,3.3173,-0.0114795,0.229214,0.865027
1507,381,3.31665,-0.012403,0.229623,0.864404
1509,379,3.31609,-0.0131333,0.229791,0.864074
1511,377,3.31553,-0.0139754,0.230033,0.863482
1513,375,3.31445,-0.0227932,0.230445,0.86289
1515,373,3.31643,-0.0196908,0.229035,0.862274
1517,371,3.3159,-0.0183227,0.229027,0.861635
1519,369,3.31616,-0.0192404,0.229028,0.861229
1521,367,3.31546,-0.0199372,0.229029,0.860909
1523,365,3.31415,-0.0221377,0.230062,0.860737
1525,363,3.31655,-0.0168431,0.228184,0.85857
1527,361,3.3164,-0.0164555,0.22801,0.858987
1529,359,3.31621,-0.015196,0.227595,0.858518
1531,357,3.31516,-0.0161046,0.228013,0.85793
1533,355,3.31504,-0.0147027,0.227596,0.857503
1535,353,3.31672,-0.0116927,0.226576,0.856584
1537,351,3.31591,-0.0138845,0.226992,0.856636
1539,349,3.31536,-0.0125642,0.226986,0.855962
1541,347,3.31533,-0.0133894,0.227032,0.855604
1543,345,3.3143,-0.0222707,0.227397,0.855023
1545,343,3.31614,-0.0190238,0.225972,0.854429
1547,341,3.31528,-0.0198363,0.226378,0.853852
1549,339,3.31544,-0.0187044,0.225967,0.853329
1551,337,3.31443,-0.0194428,0.226374,0.85278
1553,335,3.31422,-0.0203592,0.226373,0.852372
1555,333,3.31608,-0.0150588,0.224944,0.851449
1557,331,3.31601,-0.0158621,0.224944,0.851085
1559,329,3.31449,-0.0187767,0.225775,0.850644
1561,327,3.31438,-0.0174814,0.225356,0.850168
1563,325,3.31406,-0.0163759,0.225358,0.849423
1565,323,3.3163,-0.0110254,0.223513,0.848723
1567,321,3.31556,-0.0118374,0.223915,0.848131
1569,319,3.31521,-0.0126312,0.223919,0.847783
1571,317,3.31472,-0.0215094,0.223913,0.847451
1573,315,3.31394,-0.0142942,0.224329,0.846842
1575,313,3.31541,-0.0192219,0.223307,0.846012
1577,311,3.31523,-0.0200551,0.223298,0.845646
1579,309,3.31486,-0.0208754,0.223303,0.845293
1581,307,3.31385,-0.0216718,0.223721,0.844728
1583,305,3.31304,-0.0227748,0.224139,0.844059
1585,303,3.31543,-0.0172853,0.222276,0.843371
1587,301,3.31443,-0.0181338,0.222695,0.842798
1589,299,3.31457,-0.0190111,0.222698,0.842438
1591,297,3.31397,-0.0184639,0.22269,0.84142
1593,295,3.31295,-0.019473,0.223162,0.840787
1595,293,3.31516,-0.0140361,0.221254,0.840072
1597,291,3.3152,-0.0149842,0.221441,0.839491
1599,289,3.31411,-0.0156143,0.221672,0.839202
1601,287,3.31412,-0.0144343,0.221257,0.838683
1603,285,3.31326,-0.0152321,0.221665,0.838107
1605,283,3.31456,-0.0121065,0.220639,0.837212
1607,281,3.31416,-0.0210674,0.220637,0.836935
1609,279,3.31386,-0.0218922,0.22063,0.836565
1611,277,3.31314,-0.0207593,0.220636,0.835828
1613,275,3.31536,-0.0174118,0.219195,0.835233
1615,273,3.31454,-0.0183549,0.219607,0.834627
1617,271,3.31377,-0.0191485,0.219603,0.834268
1619,269,3.31326,-0.0179485,0.219601,0.833536
1621,267,3.313,-0.0187284,0.2196,0.833223
1623,265,3.31435,-0.0154125,0.218569,0.832379
1625,263,3.31475,-0.0141812,0.218151,0.831885
1627,261,3.31328,-0.015074,0.21861,0.831298
1629,259,3.31327,-0.0137557,0.218153,0.830829
1631,257,3.31284,-0.0154103,0.218564,0.829905
1633,255,3.31401,-0.020612,0.217534,0.829021
1635,253,3.31362,-0.021342,0.217534,0.828975
1637,251,3.31276,-0.0223494,0.217941,0.828068
1639,249,3.31247,-0.0230755,0.217941,0.827766
1641,247,3.31152,-0.0239385,0.218354,0.827178
1643,245,3.3144,-0.0186494,0.216489,0.826372
1645,243,3.31332,-0.0194375,0.216898,0.825812
1647,241,3.31221,-0.020328,0.217317,0.825236
1649,239,3.31208,-0.0212105,0.217499,0.824856
1651,237,3.31107,-0.0221005,0.217726,0.824272
1653,235,3.31354,-0.0164263,0.215855,0.823363
1655,233,3.31272,-0.0174544,0.216273,0.822969
1657,231,3.31231,-0.0182603,0.216269,0.822632
1659,229,3.31149,-0.0170215,0.216267,0.821894
1661,227,3.31403,-0.0137114,0.214813,0.821255
1663,225,3.3136,-0.0144671,0.215218,0.82094
1665,223,3.31285,-0.013149,0.214505,0.820255
1667,221,3.3127,-0.0140954,0.214818,0.819868
1669,219,3.31143,-0.0149286,0.215628,0.819299
1671,217,3.31292,-0.0209626,0.214183,0.818108
1673,215,3.31318,-0.0196241,0.213765,0.81763
1675,213,3.31213,-0.0205374,0.214183,0.817051
1677,211,3.31154,-0.0213548,0.21418,0.816698
1679,209,3.31084,-0.0223174,0.214598,0.816097
1681,207,3.31334,-0.0168006,0.212721,0.81534
1683,205,3.31239,-0.017631,0.213131,0.814774
1685,203,3.31244,-0.0184733,0.213288,0.814424
1687,201,3.31112,-0.0193784,0.213541,0.813825
1689,199,3.31312,-0.0159359,0.21208,0.813473
1691,197,3.31308,-0.0125965,0.21167,0.812355
1693,195,3.31273,-0.0133398,0.211666,0.812053
1695,193,3.31187,-0.0150494,0.212077,0.811121
1697,191,3.31116,-0.0245356,0.212078,0.810781
1699,189,3.31274,-0.0211983,0.21118,0.808506
1701,187,3.31277,-0.0198332,0.210612,0.809454
1703,185,3.31205,-0.0208335,0.211024,0.808835
1705,183,3.31153,-0.0216296,0.211025,0.808503
1707,181,3.31028,-0.0225867,0.21144,0.807903
1709,179,3.31281,-0.0191649,0.209978,0.807275
1711,177,3.31296,-0.0178039,0.209961,0.806814
1713,175,3.31154,-0.0208713,0.210389,0.806383
1715,173,3.31147,-0.0194467,0.209966,0.805926
1717,171,3.3134,-0.0140007,0.208505,0.804894
1719,169,3.31205,-0.0170593,0.209326,0.804443
1721,167,3.31222,-0.0156249,0.208908,0.804007
1723,165,3.31237,-0.0151479,0.208499,0.803184
1725,163,3.3107,-0.0182757,0.209317,0.80271
1727,161,3.31231,-0.0214298,0.207859,0.801739
1729,159,3.31232,-0.0222393,0.207876,0.801397
1731,157,3.31182,-0.0231672,0.207858,0.801054
1733,155,3.31126,-0.021766,0.207846,0.800345
1735,153,3.31076,-0.0227181,0.207849,0.799968
1737,151,3.31236,-0.0193495,0.206793,0.799103
1739,149,3.31261,-0.0178893,0.206374,0.798668
1741,147,3.3123,-0.0189467,0.206565,0.798061
1743,145,3.31113,-0.019736,0.206784,0.797717
1745,143,3.31256,-0.0163576,0.205727,0.796833
1747,141,3.31299,-0.0149426,0.205316,0.79639
1749,139,3.31261,-0.0157986,0.205311,0.796044
1751,137,3.31146,-0.0174764,0.20572,0.795148
1753,135,3.31076,-0.0186739,0.206128,0.794443
1755,133,3.31332,-0.0127331,0.204249,0.793792
1757,131,3.31197,-0.0225626,0.204653,0.793191
1759,129,3.31192,-0.0233645,0.204655,0.793117
1761,127,3.31107,-0.0154807,0.205062,0.79225
1763,125,3.30997,-0.0164778,0.205473,0.791617
1765,123,3.3132,-0.0193764,0.203169,0.791172
1767,121,3.31235,-0.0204859,0.203579,0.790336
1769,119,3.31062,-0.0237648,0.204407,0.790034
1771,117,3.31096,-0.0199167,0.203603,0.78952
1773,115,3.31102,-0.0207857,0.203574,0.789172
1775,113,3.31274,-0.0174517,0.202503,0.788257
1777,111,3.31196,-0.018172,0.202506,0.787967
1779,109,3.31181,-0.0171293,0.202506,0.787164
1781,107,3.31134,-0.0178617,0.202502,0.786867
1783,105,3.31308,-0.0143171,0.201437,0.786029
1785,103,3.31274,-0.0152243,0.201428,0.785661
1787,101,3.31256,-0.0161115,0.201428,0.785314
1789,99,3.31143,-0.0168991,0.201826,0.784743
1791,97,3.31161,-0.0155323,0.20141,0.784248
1793,95,3.31321,-0.0121132,0.20034,0.783383
1795,93,3.3126,-0.0130666,0.200346,0.78301
1797,91,3.31149,-0.0229791,0.20076,0.782468
1799,89,3.31202,-0.0224933,0.200354,0.781657
1801,87,3.31055,-0.0233518,0.200758,0.781091
1803,85,3.31285,-0.0198267,0.199271,0.780455
1805,83,3.31215,-0.0208764,0.19968,0.779822
1807,81,3.31264,-0.0171272,0.198863,0.779259
1809,79,3.31147,-0.0203053,0.199273,0.779038
1811,77,3.31058,-0.0212029,0.199672,0.77707
1813,75,3.31376,-0.0153501,0.197782,0.77772
1815,73,3.31237,-0.0186481,0.198592,0.777211
1817,71,3.31197,-0.0171217,0.198179,0.77678
1819,69,3.31143,-0.0182131,0.198732,0.776145
1821,67,3.31412,-0.0122118,0.196687,0.775444
1823,65,3.31373,-0.0130948,0.196697,0.775107
1825,63,3.31268,-0.0141278,0.1971,0.774497
1827,61,3.3122,-0.0240495,0.1971,0.774181
1829,59,3.31218,-0.0158894,0.197096,0.773809
1831,57,3.31336,-0.0214476,0.196018,0.772967
1833,55,3.3132,-0.0223296,0.196009,0.772615
1835,53,3.31288,-0.0218556,0.196006,0.771812
1837,51,3.31197,-0.0229118,0.196421,0.770964
1839,49,3.31115,-0.0238019,0.196422,0.770619
1841,47,3.31374,-0.0179848,0.194928,0.769601
1843,45,3.31325,-0.0188433,0.194943,0.769279
1845,43,3.31265,-0.0219944,0.195331,0.769065
1847,41,3.31183,-0.0207025,0.195327,0.768338
1849,39,3.31188,-0.0215661,0.195327,0.768011
1851,37,3.31425,-0.0155068,0.193428,0.767296
1853,35,3.31325,-0.016475,0.193978,0.766717
1855,33,3.31313,-0.0174607,0.193828,0.766338
1857,31,3.31236,-0.0185147,0.194232,0.765708
1859,29,3.31199,-0.0169781,0.193828,0.76529
1861,27,3.31344,-0.0158574,0.193137,0.764476
1863,25,3.31345,-0.0235701,0.192731,0.764077
1865,23,3.31368,-0.0152883,0.192731,0.7637
1867,21,3.31238,-0.0162811,0.193139,0.763113
1869,19,3.31372,-0.021907,0.192046,0.76227
1871,17,3.31484,-0.0203935,0.191231,0.762054
1873,15,3.31388,-0.022186,0.19163,0.761155
1875,13,3.31289,-0.0246184,0.19204,0.761251
1877,11,3.31225,-0.0232865,0.19203,0.760496
1879,9,3.31568,-0.0180994,0.190124,0.759442
1881,7,3.31435,-0.0191687,0.19053,0.758822
1883,5,3.31273,-0.0225076,0.191341,0.758601
1885,3,3.31361,-0.0200187,0.190525,0.758497