File: hust_correlation_analysis/matrices/HUST_2-6_cycle_feature_matrix.csv
cycle_number,rul,voltage,current,capacity,charge_capacity
1,1574,3.32588,0.026388,0.265684,1.02413
3,1572,3.30434,-0.0227105,0.2859,0.989185
5,1570,3.30671,-0.0232464,0.285363,0.992176
7,1568,3.30842,-0.023029,0.284274,0.995446
9,1566,3.30964,-0.0234726,0.28348,0.998379
11,1564,3.31043,-0.0240132,0.283144,1.00096
13,1562,3.31083,-0.0246009,0.282828,1.00354
15,1560,3.31296,-0.0216531,0.281087,1.00588
17,1558,3.31293,-0.023547,0.28122,1.00759
19,1556,3.31405,-0.0221735,0.280958,1.00875
21,1554,3.3155,-0.0206381,0.27909,1.0102
23,1552,3.31415,-0.0232952,0.280084,1.01104
25,1550,3.31518,-0.0225295,0.27924,1.0119
27,1548,3.31644,-0.0216893,0.278403,1.01279
29,1546,3.31658,-0.0211009,0.277983,1.01332
31,1544,3.31718,-0.0209732,0.277144,1.01384
33,1542,3.31712,-0.0210308,0.277129,1.01377
35,1540,3.31747,-0.0210181,0.276711,1.014
37,1538,3.31793,-0.020931,0.276289,1.01426
39,1536,3.31826,-0.0208935,0.275869,1.01449
41,1534,3.31861,-0.0202356,0.275457,1.01504
43,1532,3.31857,-0.0202356,0.275454,1.01504
45,1530,3.31892,-0.0201848,0.275622,1.01529
47,1528,3.31879,-0.0202914,0.275038,1.01523
49,1526,3.31878,-0.0202445,0.275028,1.0152
51,1524,3.31906,-0.0202034,0.274617,1.01545
53,1522,3.31918,-0.0208159,0.274615,1.01515
55,1520,3.3188,-0.0208565,0.274619,1.01515
57,1518,3.31841,-0.0223885,0.275021,1.01539
59,1516,3.31896,-0.0215707,0.274616,1.01479
61,1514,3.31922,-0.0214028,0.27373,1.01509
63,1512,3.31886,-0.0214379,0.274202,1.01507
65,1510,3.31885,-0.0220604,0.274199,1.01476
67,1508,3.31884,-0.0238091,0.274599,1.01492
69,1506,3.31908,-0.0236961,0.274189,1.01519
71,1504,3.32088,-0.0204916,0.27279,1.01489
73,1502,3.32081,-0.0210726,0.272788,1.01485
75,1500,3.32075,-0.0211361,0.272788,1.01457
77,1498,3.32061,-0.0212515,0.272787,1.01451
79,1496,3.32046,-0.0218329,0.272791,1.01425
81,1494,3.32043,-0.0220268,0.272795,1.01416
83,1492,3.32064,-0.0208487,0.272402,1.01374
85,1490,3.32043,-0.0207779,0.272397,1.01376
87,1488,3.32002,-0.0214916,0.272802,1.01295
89,1486,3.31993,-0.0214916,0.272798,1.01318
91,1484,3.31996,-0.0238119,0.273199,1.01305
93,1482,3.31961,-0.0238364,0.273196,1.01304
95,1480,3.31944,-0.0237905,0.27319,1.01304
97,1478,3.32138,-0.0212213,0.271793,1.01244
99,1476,3.3212,-0.0211918,0.271791,1.01245
101,1474,3.32105,-0.0211823,0.272058,1.01245
103,1472,3.32065,-0.0219411,0.272201,1.01164
105,1470,3.32106,-0.0218652,0.2718,1.01215
107,1468,3.32077,-0.0208939,0.27181,1.01139
109,1466,3.32068,-0.0208615,0.271813,1.01143
111,1464,3.32039,-0.0215462,0.272214,1.01085
113,1462,3.32011,-0.0215435,0.272208,1.01083
115,1460,3.31989,-0.0215659,0.272207,1.01082
117,1458,3.31991,-0.0239055,0.272607,1.01068
119,1456,3.31976,-0.0238916,0.272606,1.01046
121,1454,3.32158,-0.0206538,0.271205,1.01039
123,1452,3.32122,-0.0214056,0.271613,1.0098
125,1450,3.32148,-0.0212444,0.271206,1.0101
127,1448,3.32122,-0.0219905,0.272185,1.0095
129,1446,3.32108,-0.0220585,0.271613,1.00948
131,1444,3.32083,-0.0210722,0.271621,1.00873
133,1442,3.32124,-0.020936,0.271219,1.00904
135,1440,3.32073,-0.0210068,0.272201,1.00878
137,1438,3.3207,-0.0216067,0.271625,1.00848
139,1436,3.32063,-0.0215893,0.271622,1.00848
141,1434,3.32037,-0.0222104,0.272026,1.00795
143,1432,3.31993,-0.0239664,0.272428,1.00809
145,1430,3.32006,-0.0223179,0.27202,1.00648
147,1428,3.31956,-0.0245499,0.272834,1.00758
149,1426,3.3215,-0.0214665,0.271429,1.0072
151,1424,3.32126,-0.0213978,0.271429,1.00723
153,1422,3.32139,-0.0214478,0.27143,1.00721
155,1420,3.321,-0.0221736,0.271844,1.00665
157,1418,3.32108,-0.020424,0.271445,1.0065
159,1416,3.32048,-0.0211668,0.27213,1.00594
161,1414,3.32036,-0.0211948,0.271866,1.00594
163,1412,3.3205,-0.0218425,0.271868,1.00562
165,1410,3.32024,-0.0217983,0.271862,1.00563
167,1408,3.3201,-0.0218327,0.271866,1.00563
169,1406,3.31968,-0.0225567,0.272277,1.00504
171,1404,3.31947,-0.0225085,0.272273,1.00362
173,1402,3.321,-0.0199195,0.271274,1.0042
175,1400,3.32133,-0.0198704,0.270869,1.00447
177,1398,3.32125,-0.0198457,0.27087,1.00449
179,1396,3.32078,-0.0205921,0.271548,1.0039
181,1394,3.32078,-0.0205803,0.271555,1.00393
183,1392,3.32076,-0.0205987,0.27129,1.00393
185,1390,3.32043,-0.0212706,0.2717,1.00337
187,1388,3.31969,-0.0213963,0.272112,1.00308
189,1386,3.3199,-0.0212903,0.271703,1.00337
191,1384,3.31965,-0.0219867,0.272116,1.0028
193,1382,3.31952,-0.0219742,0.272113,1.0028
195,1380,3.31882,-0.0220901,0.272526,1.00251
197,1378,3.31896,-0.0227238,0.272525,1.0022
199,1376,3.31875,-0.0226589,0.272524,1.00222
201,1374,3.32052,-0.0194294,0.271112,1.00191
203,1372,3.32006,-0.0201206,0.271525,1.00135
205,1370,3.32005,-0.0201072,0.271522,1.00133
207,1368,3.31966,-0.0201224,0.271522,1.00133
209,1366,3.3198,-0.0207474,0.271622,1.00103
211,1364,3.31944,-0.0208847,0.271943,1.00075
213,1362,3.31906,-0.0207405,0.271922,1.00077
215,1360,3.31935,-0.020623,0.271497,1.00099
217,1358,3.31902,-0.0214914,0.271934,1.00042
219,1356,3.31894,-0.0214502,0.271932,1.00044
221,1354,3.31864,-0.0222366,0.27235,0.999834
223,1352,3.31845,-0.0222123,0.272932,0.999812
225,1350,3.31846,-0.0221829,0.272346,0.999862
227,1348,3.31844,-0.0228331,0.272349,0.999551
229,1346,3.31826,-0.0228497,0.272348,0.999533
231,1344,3.31811,-0.0228282,0.272348,0.999542
233,1342,3.31976,-0.0202313,0.271346,0.998675
235,1340,3.31993,-0.020111,0.270931,0.998979
237,1338,3.31964,-0.0202665,0.271349,0.998677
239,1336,3.31964,-0.0208777,0.271351,0.998638
241,1334,3.31933,-0.0209064,0.271351,0.998376
243,1332,3.31929,-0.0208433,0.271347,0.99839
245,1330,3.31898,-0.0215778,0.27176,0.9978
247,1328,3.31872,-0.0216146,0.271756,0.997766
249,1326,3.31865,-0.0214724,0.271728,0.997814
251,1324,3.31847,-0.0215242,0.271736,0.997732
253,1322,3.31808,-0.0233296,0.272147,0.99787
255,1320,3.31817,-0.023951,0.272137,0.997535
257,1318,3.31813,-0.0239172,0.272128,0.997527
259,1316,3.31752,-0.024069,0.272771,0.997233
261,1314,3.31711,-0.0240837,0.272813,0.997168
263,1312,3.31757,-0.0240515,0.272542,0.99719
265,1310,3.31701,-0.0241345,0.27294,0.996845
267,1308,3.31684,-0.0243082,0.272962,0.996827
269,1306,3.31609,-0.0242562,0.272895,0.997061
271,1304,3.31881,-0.0219413,0.271535,0.996066
273,1302,3.31861,-0.0220528,0.271535,0.996009
275,1300,3.31849,-0.0220078,0.271533,0.996024
277,1298,3.31796,-0.0227887,0.271951,0.995414
279,1296,3.31791,-0.0228231,0.271948,0.995392
281,1294,3.31761,-0.0227854,0.271947,0.995402
283,1292,3.3174,-0.0235697,0.272366,0.99478
285,1290,3.31728,-0.0235989,0.272368,0.994774
287,1288,3.31691,-0.0235323,0.272372,0.994818
289,1286,3.31686,-0.0242393,0.27238,0.994522
291,1284,3.31709,-0.0243465,0.272385,0.994494
293,1282,3.31699,-0.024797,0.272388,0.994295
295,1280,3.31681,-0.0248815,0.27239,0.994253
297,1278,3.31871,-0.0213953,0.270956,0.99401
299,1276,3.31827,-0.0222021,0.271377,0.993396
301,1274,3.31819,-0.0222276,0.271372,0.993367
303,1272,3.3179,-0.0221542,0.27137,0.993384
305,1270,3.31792,-0.0228851,0.271368,0.993038
307,1268,3.31785,-0.0228904,0.271367,0.993032
309,1266,3.31753,-0.0229024,0.271366,0.99302
311,1264,3.31757,-0.0229587,0.271632,0.992993
313,1262,3.31711,-0.0237205,0.271792,0.992233
315,1260,3.31696,-0.0236407,0.271798,0.99248
317,1258,3.31722,-0.024359,0.271807,0.992178
319,1256,3.31702,-0.0243046,0.271809,0.992206
321,1254,3.31684,-0.0243512,0.272076,0.992184
323,1252,3.31637,-0.0250661,0.272232,0.991467
325,1250,3.31626,-0.0250512,0.272815,0.99161
327,1248,3.31601,-0.0250704,0.272224,0.991584
329,1246,3.3181,-0.0216555,0.270788,0.991288
331,1244,3.31762,-0.0223986,0.271207,0.99069
333,1242,3.31781,-0.0222826,0.271047,0.990973
335,1240,3.31738,-0.0223952,0.271205,0.990681
337,1238,3.31738,-0.0224089,0.271204,0.990667
339,1236,3.31743,-0.0230387,0.271205,0.99038
341,1234,3.31725,-0.0230258,0.271213,0.990406
343,1232,3.31734,-0.0236854,0.271217,0.990123
345,1230,3.31682,-0.0238101,0.271648,0.989846
347,1228,3.31711,-0.0236725,0.271223,0.990142
349,1226,3.31736,-0.0242833,0.271222,0.989865
351,1224,3.31676,-0.0244114,0.271646,0.98956
353,1222,3.31653,-0.024433,0.271645,0.989558
355,1220,3.31698,-0.0243135,0.271219,0.989845
357,1218,3.31662,-0.0250884,0.271643,0.988993
359,1216,3.31647,-0.0250841,0.271906,0.989225
361,1214,3.31644,-0.0250318,0.271637,0.989242
363,1212,3.31839,-0.0223894,0.270623,0.988345
365,1210,3.31809,-0.022438,0.270627,0.988323
367,1208,3.31757,-0.022542,0.271061,0.987859
369,1206,3.31818,-0.0224298,0.27064,0.988374
371,1204,3.31777,-0.0231232,0.271075,0.987847
373,1202,3.31779,-0.0213562,0.270651,0.987665
375,1200,3.31731,-0.0221636,0.27108,0.987068
377,1198,3.31718,-0.0220622,0.271073,0.987073
379,1196,3.31679,-0.0239099,0.271496,0.987232
381,1194,3.31702,-0.0245943,0.271497,0.986909
383,1192,3.31666,-0.0245463,0.271491,0.986907
385,1190,3.31644,-0.0246016,0.271491,0.986883
387,1188,3.3162,-0.025323,0.271918,0.986307
389,1186,3.31603,-0.0253144,0.271915,0.986304
391,1184,3.31577,-0.0254124,0.271918,0.98626
393,1182,3.31771,-0.0219032,0.270476,0.986004
395,1180,3.31785,-0.0225954,0.270487,0.985717
397,1178,3.31744,-0.0209136,0.270494,0.985274
399,1176,3.3176,-0.0215161,0.270496,0.985009
401,1174,3.31751,-0.0216053,0.270504,0.985001
403,1172,3.31727,-0.0215267,0.271088,0.985016
405,1170,3.31728,-0.0216025,0.2705,0.984989
407,1168,3.31691,-0.022286,0.270928,0.98442
409,1166,3.31714,-0.0221726,0.270498,0.984707
411,1164,3.31662,-0.0222479,0.271512,0.984421
413,1162,3.31619,-0.02303,0.271354,0.983823
415,1160,3.31596,-0.0229931,0.271349,0.983821
417,1158,3.31564,-0.0229272,0.271346,0.983831
419,1156,3.31566,-0.0229692,0.271344,0.983811
421,1154,3.3152,-0.0237149,0.271785,0.983263
423,1152,3.315,-0.0237783,0.271797,0.983276
425,1150,3.31726,-0.0209646,0.270351,0.982692
427,1148,3.31715,-0.0209383,0.270357,0.982718
429,1146,3.31702,-0.020954,0.27036,0.982735
431,1144,3.31682,-0.0217037,0.270789,0.98214
433,1142,3.31663,-0.0216613,0.270791,0.98216
435,1140,3.31625,-0.021643,0.27079,0.982167
437,1138,3.31627,-0.0216192,0.270778,0.982143
439,1136,3.31585,-0.022478,0.271206,0.980083
441,1134,3.31569,-0.0224433,0.271202,0.981482
443,1132,3.31605,-0.0223624,0.270767,0.982004
445,1130,3.31568,-0.0231295,0.271197,0.981148
447,1128,3.31603,-0.022995,0.270761,0.981448
449,1126,3.31624,-0.0231314,0.271046,0.981449
451,1124,3.31576,-0.0237915,0.271224,0.98095
453,1122,3.31563,-0.0237951,0.271228,0.980959
455,1120,3.31735,-0.0203326,0.270482,0.980432
457,1118,3.31709,-0.0211511,0.270658,0.979831
459,1116,3.31691,-0.0211603,0.270448,0.979819
461,1114,3.31682,-0.0211115,0.270664,0.979862
463,1112,3.31688,-0.0218273,0.270659,0.979522
465,1110,3.31662,-0.0218013,0.270655,0.97952
467,1108,3.31652,-0.0218501,0.270652,0.979485
469,1106,3.31602,-0.0225984,0.271077,0.978883
471,1104,3.31573,-0.0226317,0.271085,0.978887
473,1102,3.31552,-0.0225602,0.271075,0.978889
475,1100,3.31568,-0.0232249,0.271069,0.978565
477,1098,3.31548,-0.023268,0.271079,0.977218
479,1096,3.31486,-0.0233245,0.271527,0.978348
481,1094,3.31494,-0.0241345,0.271534,0.977997
483,1092,3.31482,-0.0241018,0.271542,0.978044
485,1090,3.31688,-0.0206075,0.270094,0.97777
487,1088,3.31634,-0.0213055,0.27111,0.977159
489,1086,3.31596,-0.0212653,0.270493,0.977112
491,1084,3.31574,-0.0212374,0.270488,0.9771
493,1082,3.3157,-0.021279,0.270488,0.977324
495,1080,3.31575,-0.0219451,0.270481,0.976749
497,1078,3.31502,-0.0221195,0.270916,0.976419
499,1076,3.31536,-0.021976,0.27047,0.976702
501,1074,3.31516,-0.0220171,0.270471,0.976682
503,1072,3.31478,-0.022793,0.27091,0.976097
505,1070,3.31454,-0.0227733,0.270912,0.976111
507,1068,3.31452,-0.0233825,0.270919,0.975865
509,1066,3.31399,-0.0235102,0.271358,0.975558
511,1064,3.31445,-0.0234219,0.270918,0.975836
513,1062,3.31409,-0.0242386,0.271357,0.975234
515,1060,3.31441,-0.024091,0.270911,0.97552
517,1058,3.31433,-0.0241505,0.270907,0.975483
519,1056,3.31606,-0.0213288,0.269887,0.974616
521,1054,3.31601,-0.0213187,0.269886,0.974618
523,1052,3.3156,-0.0214406,0.270323,0.974312
525,1050,3.31594,-0.021465,0.269883,0.974543
527,1048,3.31537,-0.0220436,0.270317,0.974018
529,1046,3.31526,-0.0221108,0.270318,0.973993
531,1044,3.31515,-0.0228189,0.270313,0.973917
533,1042,3.31484,-0.0228555,0.27032,0.973666
535,1040,3.31473,-0.0228361,0.270327,0.973699
537,1038,3.31432,-0.023669,0.270776,0.973119
539,1036,3.31428,-0.0235922,0.270784,0.973188
541,1034,3.31369,-0.0243742,0.271225,0.97259
543,1032,3.31335,-0.0243715,0.271223,0.972578
545,1030,3.31321,-0.0243277,0.271213,0.972558
547,1028,3.31533,-0.0207645,0.269745,0.972261
549,1026,3.31478,-0.0216471,0.270186,0.971606
551,1024,3.31521,-0.0215264,0.270336,0.971899
553,1022,3.31503,-0.0214558,0.269737,0.97192
555,1020,3.31461,-0.0222827,0.27018,0.971306
557,1018,3.31457,-0.0222865,0.27018,0.97131
559,1016,3.31479,-0.0221819,0.269737,0.971596
561,1014,3.31428,-0.0229743,0.27046,0.969713
563,1012,3.31452,-0.0230593,0.270205,0.971062
565,1010,3.31407,-0.0238044,0.270646,0.970479
567,1008,3.31385,-0.023772,0.270647,0.970492
569,1006,3.31393,-0.0237646,0.270654,0.97051
571,1004,3.31344,-0.0245659,0.271103,0.96991
573,1002,3.31386,-0.0243854,0.270642,0.9702
575,1000,3.31579,-0.0208641,0.269168,0.969859
577,998,3.31514,-0.0216504,0.269702,0.969243
579,996,3.31487,-0.0216558,0.2696,0.969213
581,994,3.3149,-0.0223286,0.269596,0.968904
583,992,3.31453,-0.0223343,0.269591,0.968881
585,990,3.31438,-0.0223433,0.269587,0.968866
587,988,3.31407,-0.0223447,0.269587,0.968858
589,986,3.31356,-0.0231057,0.270038,0.968123
591,984,3.31354,-0.0231881,0.270051,0.968318
593,982,3.31291,-0.0239682,0.270508,0.967764
595,980,3.31282,-0.0238832,0.270511,0.967803
597,978,3.3133,-0.0249851,0.270519,0.967342
599,976,3.31286,-0.0246147,0.270516,0.967509
601,974,3.31479,-0.0210629,0.269034,0.967168
603,972,3.31505,-0.0217198,0.269028,0.966855
605,970,3.31493,-0.0217193,0.269296,0.966829
607,968,3.31436,-0.0217687,0.269464,0.966307
609,966,3.31451,-0.0225621,0.269463,0.966179
611,964,3.31412,-0.0225109,0.269557,0.966202
613,962,3.31412,-0.0225887,0.269462,0.966169
615,960,3.31327,-0.0232962,0.269906,0.965598
617,958,3.31317,-0.0233884,0.269921,0.965614
619,956,3.31267,-0.0241346,0.270385,0.965085
621,954,3.31249,-0.0241658,0.270402,0.965117
623,952,3.31209,-0.0248343,0.270851,0.964569
625,950,3.312,-0.0249381,0.270856,0.964544
627,948,3.31161,-0.0248573,0.270854,0.964582
629,946,3.31398,-0.0219982,0.269376,0.963935
631,944,3.31395,-0.0220026,0.269376,0.963937
633,942,3.31388,-0.0220018,0.269375,0.963941
635,940,3.31324,-0.0227291,0.269824,0.963368
637,938,3.31372,-0.0226767,0.269373,0.963634
639,936,3.31307,-0.0227481,0.26982,0.963349
641,934,3.31321,-0.0234092,0.269821,0.963057
643,932,3.31251,-0.023524,0.270275,0.962762
645,930,3.31257,-0.0242941,0.270277,0.962437
647,928,3.31294,-0.0241449,0.26983,0.962766
649,926,3.31228,-0.0243067,0.270286,0.962477
651,924,3.31215,-0.0249579,0.270549,0.962187
653,922,3.31176,-0.0250581,0.270739,0.961893
655,920,3.31325,-0.0214501,0.269256,0.961571
657,918,3.31334,-0.0220914,0.269259,0.961298
659,916,3.31335,-0.0221413,0.269262,0.961301
661,914,3.31336,-0.0227881,0.269262,0.961011
663,912,3.31313,-0.0227821,0.269266,0.961044
665,910,3.3127,-0.0235797,0.269713,0.960426
667,908,3.31265,-0.0235675,0.269987,0.96042
669,906,3.3129,-0.0235533,0.26971,0.960431
671,904,3.31205,-0.0244194,0.270165,0.959803
673,902,3.31207,-0.0243949,0.270162,0.959791
675,900,3.31207,-0.0251899,0.269668,0.959456
677,898,3.3116,-0.0249993,0.270165,0.959559
679,896,3.31346,-0.0214093,0.268676,0.959221
681,894,3.31298,-0.0222457,0.269128,0.958579
683,892,3.31282,-0.0222522,0.269129,0.95857
685,890,3.3127,-0.023002,0.269124,0.958232
687,888,3.31234,-0.023035,0.269126,0.958223
689,886,3.31232,-0.0229912,0.269724,0.958245
691,884,3.31251,-0.023702,0.269123,0.957927
693,882,3.31222,-0.02374,0.269122,0.957923
695,880,3.31195,-0.024627,0.269576,0.957276
697,878,3.31182,-0.0245515,0.269576,0.957308
699,876,3.31177,-0.0245238,0.269573,0.957308
701,874,3.31101,-0.0254474,0.270031,0.956648
703,872,3.31106,-0.0252658,0.269572,0.95697
705,870,3.31278,-0.0224157,0.268538,0.956076
707,868,3.3124,-0.0223517,0.268535,0.956089
709,866,3.31221,-0.0224357,0.268799,0.956058
711,864,3.31166,-0.0229837,0.268996,0.955571
713,862,3.31165,-0.023201,0.268992,0.955475
715,860,3.31169,-0.0239557,0.268781,0.955159
717,858,3.31156,-0.0239821,0.269084,0.95514
719,856,3.31169,-0.0246917,0.268992,0.954828
721,854,3.31155,-0.0246448,0.26899,0.954847
723,852,3.31149,-0.0247044,0.268471,0.956085
725,850,3.31095,-0.0254888,0.269441,0.954454
727,848,3.31362,-0.0217396,0.26749,0.954176
729,846,3.31291,-0.0224095,0.267943,0.953619
731,844,3.31258,-0.0224605,0.267938,0.953831
733,842,3.31205,-0.0232313,0.268392,0.952983
735,840,3.31198,-0.0233661,0.268402,0.952965
737,838,3.31106,-0.0239402,0.268862,0.952466
739,836,3.31103,-0.0241644,0.269143,0.952385
741,834,3.31107,-0.0241659,0.268871,0.952398
743,832,3.3114,-0.0247891,0.268872,0.952141
745,830,3.31077,-0.0248924,0.268961,0.952088
747,828,3.31068,-0.0256146,0.268871,0.951773
749,826,3.31038,-0.0256391,0.268869,0.951772
751,824,3.31211,-0.0226284,0.267826,0.950901
753,822,3.31205,-0.0226742,0.267826,0.95086
755,820,3.31211,-0.0226729,0.267826,0.95087
757,818,3.3114,-0.023448,0.268289,0.950286
759,816,3.31151,-0.0234659,0.268287,0.950281
761,814,3.31117,-0.0241531,0.268288,0.94998
763,812,3.31129,-0.0242931,0.268035,0.949933
765,810,3.31069,-0.0250957,0.268752,0.949349
767,808,3.31017,-0.0251123,0.26876,0.94937
769,806,3.30958,-0.0258087,0.269223,0.948817
771,804,3.30981,-0.0256706,0.268764,0.949147
773,802,3.31183,-0.0227917,0.26772,0.948208
775,800,3.31152,-0.0227099,0.267724,0.94826
777,798,3.31184,-0.023431,0.267726,0.947963
779,796,3.31169,-0.0234458,0.267722,0.947944
781,794,3.31166,-0.0234182,0.26798,0.94796
783,792,3.31113,-0.0243298,0.268178,0.947277
785,790,3.31093,-0.0243254,0.268177,0.947288
787,788,3.3107,-0.0250657,0.268179,0.946976
789,786,3.31036,-0.0251098,0.268175,0.946931
791,784,3.30962,-0.0259467,0.268639,0.946323
793,782,3.30981,-0.0258278,0.268707,0.946589
795,780,3.3112,-0.0228762,0.267113,0.945661
797,778,3.31113,-0.022978,0.267125,0.945631
799,776,3.31094,-0.0229645,0.267109,0.945604
801,774,3.31039,-0.0238376,0.267574,0.944976
803,772,3.31037,-0.0238362,0.267573,0.944977
805,770,3.31045,-0.0246675,0.267588,0.944675
807,768,3.3102,-0.0245231,0.267587,0.944744
809,766,3.31021,-0.0252395,0.267587,0.944438
811,764,3.31006,-0.025289,0.267587,0.944416
813,762,3.30962,-0.026052,0.268328,0.94383
815,760,3.30939,-0.0260783,0.268051,0.943815
817,758,3.31166,-0.0228459,0.266533,0.94325
819,756,3.31163,-0.0230218,0.266533,0.943175
821,754,3.31092,-0.0239234,0.266998,0.942545
823,752,3.3106,-0.0238734,0.266738,0.942549
825,750,3.31041,-0.0246478,0.266989,0.942207
827,748,3.31003,-0.0246162,0.267006,0.94227
829,746,3.30937,-0.0254707,0.267461,0.941616
831,744,3.30905,-0.0254542,0.26747,0.941638
833,742,3.30902,-0.0254438,0.267558,0.94165
835,740,3.30845,-0.0264376,0.267949,0.941011
837,738,3.31097,-0.0232173,0.26643,0.940462
839,736,3.3108,-0.0232141,0.266427,0.940462
841,734,3.31091,-0.0239714,0.266422,0.940123
843,732,3.31092,-0.0239094,0.266423,0.94014
845,730,3.31087,-0.0240522,0.266511,0.940082
847,728,3.31026,-0.0248193,0.266891,0.9395
849,726,3.30983,-0.0255654,0.26689,0.93918
851,724,3.30954,-0.025512,0.266889,0.939202
853,722,3.30916,-0.0263625,0.267362,0.938596
855,720,3.30845,-0.0264554,0.267609,0.938521
857,718,3.31106,-0.0224731,0.265353,0.938512
859,716,3.3099,-0.0234658,0.2663,0.937586
861,714,3.30985,-0.0234324,0.266297,0.937601
863,712,3.30959,-0.0241535,0.266302,0.937297
865,710,3.3095,-0.0243705,0.266308,0.93722
867,708,3.30942,-0.0248866,0.266302,0.937013
869,706,3.30938,-0.0249528,0.266297,0.936971
871,704,3.30891,-0.0258079,0.266772,0.936364
873,702,3.30918,-0.0256651,0.266285,0.936642
875,700,3.30875,-0.0265583,0.266749,0.935992
877,698,3.31103,-0.0227602,0.26522,0.935636
879,696,3.31029,-0.0234729,0.265686,0.935067
881,694,3.31042,-0.0234184,0.26521,0.935339
883,692,3.30956,-0.0242794,0.266294,0.934716
885,690,3.30899,-0.0252399,0.266179,0.934108
887,688,3.3089,-0.0253497,0.266197,0.934126
889,686,3.30872,-0.0258625,0.26619,0.933909
891,684,3.30864,-0.0259651,0.266199,0.933903
893,682,3.30815,-0.0267799,0.266677,0.933308
895,680,3.30989,-0.0237256,0.265621,0.932381
897,678,3.31002,-0.0235519,0.265128,0.932667
899,676,3.30982,-0.023644,0.265128,0.932622
901,674,3.30965,-0.0244106,0.265124,0.932295
903,672,3.30949,-0.0243797,0.265117,0.93229
905,670,3.30876,-0.0252613,0.265589,0.931663
907,668,3.30883,-0.0252584,0.265584,0.93165
909,666,3.30828,-0.0260673,0.266053,0.931023
911,664,3.30847,-0.0259762,0.265572,0.931314
913,662,3.30787,-0.0269399,0.266064,0.930691
915,660,3.30965,-0.0239276,0.264439,0.929762
917,658,3.31015,-0.0238104,0.264541,0.930094
919,656,3.30939,-0.0245089,0.265028,0.929584
921,654,3.3094,-0.0253276,0.265029,0.929248
923,652,3.30919,-0.0252958,0.265034,0.929278
925,650,3.30819,-0.026186,0.265511,0.928645
927,648,3.30781,-0.0261854,0.26551,0.928425
929,646,3.30731,-0.0270989,0.26599,0.92801
931,644,3.30696,-0.0270252,0.265989,0.928034
933,642,3.30924,-0.0239323,0.264446,0.927359
935,640,3.30929,-0.0239649,0.264445,0.927359
937,638,3.30948,-0.0246653,0.264439,0.927051
939,636,3.30921,-0.0246916,0.264437,0.927024
941,634,3.30865,-0.0254398,0.264914,0.926443
943,632,3.30859,-0.0255741,0.264916,0.926398
945,630,3.30772,-0.0264576,0.265399,0.925779
947,628,3.30776,-0.0263793,0.264923,0.926091
949,626,3.30734,-0.0271977,0.265408,0.925512
951,624,3.30903,-0.0241685,0.264346,0.924565
953,622,3.30916,-0.0239791,0.263863,0.924901
955,620,3.30841,-0.0249169,0.264347,0.924258
957,618,3.30834,-0.0248676,0.264352,0.924294
959,616,3.30765,-0.0256905,0.26483,0.923669
961,614,3.30761,-0.0265205,0.264831,0.92334
963,612,3.30746,-0.0265203,0.264828,0.923337
965,610,3.30677,-0.0274279,0.265314,0.922707
967,608,3.30692,-0.0273633,0.264825,0.922987
969,606,3.30856,-0.0242379,0.263755,0.922049
971,604,3.3085,-0.0241855,0.263756,0.92206
973,602,3.30813,-0.0251795,0.264499,0.921406
975,600,3.30855,-0.0250538,0.263756,0.921716
977,598,3.30774,-0.0257576,0.264241,0.921156
979,596,3.30762,-0.0266754,0.264239,0.920784
981,594,3.30704,-0.0266237,0.264242,0.920817
983,592,3.30616,-0.0275848,0.264727,0.920155
985,590,3.30854,-0.0235581,0.263173,0.919852
987,588,3.30794,-0.0244212,0.263665,0.919249
989,586,3.30726,-0.0244157,0.263661,0.919239
991,584,3.3071,-0.0252439,0.26366,0.918904
993,582,3.3073,-0.0260218,0.26366,0.918599
995,580,3.30696,-0.0259266,0.263743,0.918638
997,578,3.3066,-0.026913,0.264148,0.917976
999,576,3.30686,-0.0267811,0.263653,0.918274
1001,574,3.30608,-0.0276951,0.264136,0.917625
1003,572,3.3078,-0.0246265,0.263064,0.916645
1005,570,3.30752,-0.0245333,0.263064,0.916678
1007,568,3.3067,-0.0254939,0.26355,0.916007
1009,566,3.30674,-0.0262761,0.263553,0.915707
1011,564,3.30695,-0.0260185,0.263034,0.915995
1013,562,3.30631,-0.0270943,0.263546,0.915349
1015,560,3.30581,-0.0277417,0.263545,0.915107
1017,558,3.30737,-0.0239963,0.262481,0.914416
1019,556,3.30646,-0.024762,0.262967,0.913811
1021,554,3.30684,-0.0246604,0.262472,0.914119
1023,552,3.30658,-0.0258031,0.262979,0.913448
1025,550,3.30632,-0.0263917,0.262979,0.913214
1027,548,3.30569,-0.0273063,0.263467,0.912567
1029,546,3.3059,-0.0271973,0.262968,0.912864
1031,544,3.30532,-0.0281014,0.263458,0.912228
1033,542,3.30763,-0.0240642,0.261886,0.911878
1035,540,3.30688,-0.0249347,0.262381,0.911261
1037,538,3.30661,-0.0257021,0.262379,0.910955
1039,536,3.30632,-0.0257631,0.262377,0.910921
1041,534,3.30618,-0.0265303,0.262377,0.910617
1043,532,3.30554,-0.0273923,0.262869,0.91
1045,530,3.30523,-0.0282504,0.262882,0.909696
1047,528,3.30684,-0.0243235,0.261814,0.909073
1049,526,3.30644,-0.0249858,0.261904,0.908838
1051,524,3.30567,-0.0257485,0.262322,0.90829
1053,522,3.3057,-0.0258591,0.262313,0.908225
1055,520,3.30562,-0.0267101,0.262309,0.907847
1057,518,3.30535,-0.0275105,0.262309,0.907537
1059,516,3.305048,-0.0274339,0.262306,0.90756
1061,514,3.30413,-0.0284885,0.262805,0.90688
1063,512,3.30653,-0.0251451,0.261224,0.906237
1065,510,3.30665,-0.0250465,0.261215,0.906238
1067,508,3.30581,-0.0260808,0.261714,0.905564
1069,506,3.30569,-0.0269309,0.261711,0.905225
1071,504,3.30481,-0.0277397,0.262208,0.904622
1073,502,3.3043,-0.0278023,0.262207,0.904603
1075,500,3.30395,-0.0285661,0.262194,0.90427
1077,498,3.30559,-0.025436,0.261115,0.90327
1079,496,3.30513,-0.0254304,0.261124,0.903301
1081,494,3.30478,-0.0263115,0.261636,0.902712
1083,492,3.30457,-0.0271269,0.261641,0.902412
1085,490,3.30378,-0.0280396,0.262145,0.901782
1087,488,3.304,-0.0278985,0.261634,0.9021
1089,486,3.30555,-0.0246531,0.260551,0.901137
1091,484,3.30553,-0.0254813,0.260549,0.900802
1093,482,3.30564,-0.0262994,0.260542,0.900459
1095,480,3.305,-0.027234,0.261042,0.899819
1097,478,3.30453,-0.0273395,0.261048,0.899796
1099,476,3.30363,-0.0282103,0.261551,0.899165
1101,474,3.3033,-0.0289445,0.261544,0.898872
1103,472,3.30543,-0.025792,0.260455,0.897849
1105,470,3.30531,-0.0265334,0.260456,0.897563
1107,468,3.30461,-0.0265379,0.260453,0.897563
1109,466,3.30405,-0.0272928,0.260443,0.89585
1111,464,3.30322,-0.0283452,0.260956,0.896574
1113,462,3.3024,-0.0293039,0.261469,0.89593
1115,460,3.30478,-0.024998,0.259871,0.895636
1117,458,3.30418,-0.0257232,0.259864,0.895567
1119,456,3.30353,-0.0268003,0.260374,0.894641
1121,454,3.30347,-0.027814,0.260382,0.894272
1123,452,3.30248,-0.0286114,0.260898,0.893715
1125,450,3.30281,-0.0284779,0.261017,0.894054
1127,448,3.30493,-0.0250798,0.259295,0.893117
1129,446,3.30469,-0.0259638,0.259293,0.892774
1131,444,3.30457,-0.0268214,0.259294,0.892452
1133,442,3.30331,-0.0276938,0.259805,0.891834
1135,440,3.30256,-0.0287094,0.260321,0.891172
1137,438,3.30278,-0.0295669,0.260597,0.890846
1139,436,3.30463,-0.0262327,0.259222,0.889865
1141,434,3.30454,-0.0260774,0.258706,0.890204
1143,432,3.30332,-0.0270046,0.259225,0.889587
1145,430,3.30272,-0.0279762,0.259751,0.888978
1147,428,3.30263,-0.028841,0.259997,0.888654
1149,426,3.30485,-0.0252662,0.258132,0.888037
1151,424,3.30374,-0.0262091,0.258653,0.887411
1153,422,3.3027,-0.0271976,0.259171,0.886759
1155,420,3.30191,-0.0281932,0.259685,0.886093
1157,418,3.30191,-0.0293696,0.259688,0.88564
1159,416,3.30116,-0.0290441,0.259677,0.885733
1161,414,3.30344,-0.0255787,0.258049,0.885037
1163,412,3.30276,-0.0265527,0.258566,0.884375
1165,410,3.30227,-0.0275427,0.258564,0.883995
1167,408,3.30229,-0.0282246,0.25856,0.883725
1169,406,3.30116,-0.0292593,0.259084,0.883065
1171,404,3.30087,-0.0301215,0.259083,0.882734
1173,402,3.30254,-0.0267036,0.257974,0.881745
1175,400,3.30252,-0.0276895,0.257975,0.881373
1177,398,3.30246,-0.028475,0.25802,0.881096
1179,396,3.30142,-0.0293953,0.258514,0.880515
1181,394,3.30306,-0.0259559,0.257408,0.879551
1183,392,3.30294,-0.0267793,0.257409,0.879245
1185,390,3.30231,-0.0278264,0.257934,0.878571
1187,388,3.30187,-0.0285991,0.257933,0.878287
1189,386,3.30061,-0.0296133,0.258458,0.877613
1191,384,3.30292,-0.0260103,0.256816,0.876953
1193,382,3.30246,-0.0278966,0.257337,0.875944
1195,380,3.30153,-0.0280839,0.257965,0.875832
1197,378,3.30056,-0.0298632,0.257857,0.874882
1199,376,3.30002,-0.0307739,0.257854,0.874535
1201,374,3.3023,-0.0249572,0.256204,0.8735
1203,372,3.30141,-0.0281633,0.256729,0.873181
1205,370,3.30021,-0.0292226,0.257259,0.872736
1207,368,3.29999,-0.0300811,0.257254,0.872176
1209,366,3.30259,-0.0241341,0.25507,0.871469
1211,364,3.30117,-0.0250586,0.255596,0.870836
1213,362,3.30094,-0.0260167,0.255596,0.870486
1215,360,3.29994,-0.0346451,0.255596,0.869524
1217,358,3.29905,-0.0357955,0.256133,0.868837
1219,356,3.30101,-0.0320605,0.254471,0.868186
1221,354,3.30035,-0.0331812,0.255013,0.867524
1223,352,3.29999,-0.031594,0.254465,0.867191
1225,350,3.29896,-0.0325999,0.255004,0.866542
1227,348,3.3016,-0.0266308,0.252812,0.865825
1229,346,3.30053,-0.0285631,0.253338,0.864819
1231,344,3.29981,-0.0272854,0.253406,0.864117
1233,342,3.29917,-0.0279997,0.253334,0.863852
1235,340,3.30142,-0.0336669,0.251673,0.863155
1237,338,3.29994,-0.0346128,0.252826,0.862516
1239,336,3.30002,-0.0331836,0.251663,0.86214
1241,334,3.29934,-0.035091,0.252188,0.861162
1243,332,3.29784,-0.0362143,0.252718,0.860467
1245,330,3.30016,-0.0324561,0.251049,0.859809
1247,328,3.3007,-0.0286008,0.249993,0.859449
1249,326,3.29963,-0.0296737,0.250526,0.858783
1251,324,3.29817,-0.0340146,0.251589,0.857827
1253,322,3.30006,-0.028026,0.249934,0.856843
1255,320,3.30064,-0.0265163,0.25004,0.856521
1257,318,3.29949,-0.0298114,0.249942,0.856243
1259,316,3.29877,-0.0292845,0.249942,0.855262
1261,314,3.30129,-0.0256723,0.248273,0.85455
1263,312,3.30041,-0.0335637,0.248265,0.852554
1265,310,3.29913,-0.0369232,0.248791,0.85358
1267,308,3.29878,-0.0331075,0.248255,0.852881
1269,306,3.30081,-0.0304964,0.247176,0.851515
1271,304,3.30023,-0.0313699,0.24711,0.851203
1273,302,3.29873,-0.0324431,0.247634,0.850528
1275,300,3.29944,-0.029452,0.246577,0.849832
1277,298,3.30135,-0.0350217,0.244908,0.849217
1279,296,3.30033,-0.0361113,0.245431,0.848545
1281,294,3.29943,-0.027703,0.245951,0.847868
1283,292,3.29867,-0.0368069,0.245957,0.846844
1285,290,3.30065,-0.0329917,0.244281,0.846199
1287,288,3.30101,-0.0316536,0.24376,0.845802
1289,286,3.29934,-0.0350107,0.244814,0.845224
1291,284,3.30209,-0.0273486,0.242615,0.843885
1293,282,3.30058,-0.0284331,0.243138,0.843213
1295,280,3.30004,-0.027934,0.243142,0.842232
1297,278,3.29969,-0.0289712,0.24314,0.841866
1299,276,3.30178,-0.0250457,0.241461,0.841239
1301,274,3.30043,-0.0366125,0.24198,0.840253
1303,272,3.29956,-0.0353139,0.241977,0.839536
1305,270,3.29919,-0.0336457,0.24145,0.83923
1307,268,3.30103,-0.031053,0.240291,0.837849
1309,266,3.30033,-0.0318551,0.240285,0.837617
1311,264,3.29959,-0.0305401,0.240288,0.836856
1313,262,3.29845,-0.032504,0.24081,0.835884
1315,260,3.30074,-0.0286781,0.239385,0.835213
1317,258,3.30032,-0.0295999,0.23912,0.834891
1319,256,3.29955,-0.029019,0.239119,0.833921
1321,254,3.30103,-0.0253892,0.237955,0.832881
1323,252,3.30057,-0.0263533,0.237955,0.832546
1325,250,3.29952,-0.0354795,0.237953,0.831594
1327,248,3.29788,-0.0392337,0.239006,0.830915
1329,246,3.3005,-0.0327725,0.236788,0.830251
1331,244,3.29984,-0.0323229,0.236791,0.829252
1333,242,3.29875,-0.0334194,0.23731,0.828814
1335,240,3.2979,-0.0343349,0.237307,0.828263
1337,238,3.30053,-0.0265245,0.23509,0.826893
1339,236,3.30012,-0.0274522,0.235086,0.826568
1341,234,3.29839,-0.0285062,0.235607,0.825915
1343,232,3.3002,-0.0355396,0.234433,0.824586
1345,230,3.29979,-0.0364914,0.234435,0.824269
1347,228,3.29836,-0.0376044,0.234958,0.823617
1349,226,3.29763,-0.0371339,0.234955,0.8226
1351,224,3.30068,-0.0305133,0.232733,0.821972
1353,222,3.29862,-0.0343018,0.233984,0.821282
1355,220,3.29854,-0.0313363,0.233253,0.820246
1357,218,3.29795,-0.0321856,0.233251,0.819956
1359,216,3.30005,-0.0282977,0.231544,0.819259
1361,214,3.29948,-0.0278605,0.23135,0.81826
1363,212,3.29827,-0.0387488,0.232068,0.817653
1365,210,3.29668,-0.0409053,0.23259,0.816647
1367,208,3.29957,-0.0343986,0.230361,0.815963
1369,206,3.29862,-0.0355485,0.230879,0.815285
1371,204,3.29671,-0.0401272,0.231924,0.814343
1373,202,3.30018,-0.0311437,0.229166,0.813596
1375,200,3.2996,-0.0320165,0.229165,0.813303
1377,198,3.29846,-0.0341582,0.229684,0.812294
1379,196,3.29755,-0.0326532,0.2303,0.811629
1381,194,3.30043,-0.0261333,0.227452,0.810935
1383,192,3.29858,-0.0307432,0.228486,0.809978
1385,190,3.29847,-0.0391552,0.227963,0.809653
1387,188,3.29721,-0.0402409,0.228481,0.809005
1389,186,3.2988,-0.0374591,0.227284,0.807642
1391,184,3.2988,-0.0358384,0.226763,0.807307
1393,182,3.29806,-0.0351665,0.226761,0.806363
1395,180,3.29655,-0.0364213,0.227276,0.805651
1397,178,3.29978,-0.0299335,0.225041,0.804925
1399,176,3.2985,-0.03201,0.225557,0.803951
1401,174,3.29713,-0.033143,0.226072,0.803285
1403,172,3.30023,-0.0265373,0.223836,0.802599
1405,170,3.2989,-0.0285726,0.224353,0.801662
1407,168,3.29801,-0.0396619,0.224353,0.801377
1409,166,3.29729,-0.0391093,0.224358,0.800418
1411,164,3.29988,-0.0351459,0.222633,0.799955
1413,162,3.29837,-0.0362227,0.223145,0.799073
1415,160,3.29826,-0.0331388,0.222626,0.798023
1417,158,3.30009,-0.0316741,0.221411,0.797381
1419,156,3.29911,-0.0302426,0.221407,0.79666
1421,154,3.29873,-0.0297397,0.221402,0.795648
1423,152,3.29779,-0.0307242,0.221648,0.795327
1425,150,3.29962,-0.0268399,0.219718,0.794287
1427,148,3.29872,-0.0365901,0.22018,0.793295
1429,146,3.29751,-0.0401024,0.220691,0.793046
1431,144,3.2969,-0.0387414,0.22069,0.792308
1433,142,3.29909,-0.0331275,0.218955,0.790959
1435,140,3.29805,-0.0367656,0.219466,0.790676
1437,138,3.29839,-0.0324311,0.218438,0.790317
1439,136,3.29715,-0.0345619,0.218948,0.789343
1441,134,3.29857,-0.0333429,0.218238,0.788324
1443,132,3.29898,-0.0288976,0.217216,0.788019
1445,130,3.29748,-0.0310242,0.217723,0.787043
1447,128,3.29978,-0.0271675,0.216495,0.785988
1449,126,3.29896,-0.0281804,0.216677,0.785667
1451,124,3.29784,-0.0380339,0.216494,0.7847
1453,122,3.29699,-0.0364687,0.21649,0.784025
1455,120,3.2992,-0.0351396,0.215256,0.783339
1457,118,3.29843,-0.0346136,0.215498,0.782342
1459,116,3.29828,-0.0328645,0.21474,0.78201
1461,114,3.29701,-0.0350498,0.215249,0.781029
1463,112,3.29931,-0.028432,0.213531,0.779951
1465,110,3.2989,-0.0294295,0.213497,0.779655
1467,108,3.29733,-0.0420721,0.214247,0.778697
1469,106,3.30019,-0.0351733,0.211743,0.777991
1471,104,3.29902,-0.0364577,0.212248,0.777292
1473,102,3.2979,-0.0387733,0.212755,0.776265
1475,100,3.29771,-0.0369398,0.21224,0.775965
1477,98,3.29989,-0.0301728,0.210486,0.774916
1479,96,3.29943,-0.0321666,0.210486,0.774321
1481,94,3.29817,-0.0334044,0.210993,0.773642
1483,92,3.29704,-0.0433873,0.21099,0.772685
1485,90,3.29958,-0.0392385,0.209222,0.771952
1487,88,3.29813,-0.0404814,0.209896,0.771263
1489,86,3.29826,-0.037066,0.208716,0.770579
1491,84,3.30008,-0.0330221,0.20746,0.769556
1493,82,3.29963,-0.0341025,0.207458,0.769228
1495,80,3.29872,-0.033465,0.207454,0.768262
1497,78,3.29812,-0.0344885,0.207453,0.767952
1499,76,3.30045,-0.0287513,0.205693,0.766565
1501,74,3.2985,-0.0327649,0.206692,0.76589
1503,72,3.29864,-0.031051,0.206185,0.765549
1505,70,3.29724,-0.0332032,0.206684,0.764589
1507,68,3.29887,-0.0291359,0.205414,0.763525
1509,66,3.29865,-0.0381513,0.204908,0.763204
1511,64,3.29653,-0.04318,0.205911,0.762246
1513,62,3.29933,-0.0336291,0.203632,0.76112
1515,60,3.29915,-0.0327304,0.203131,0.760529
1517,58,3.29775,-0.0339732,0.203626,0.759848
1519,56,3.29807,-0.0322423,0.203127,0.759516
1521,54,3.29946,-0.032026,0.202947,0.758167
1523,52,3.29854,-0.0412746,0.202354,0.757387
1525,50,3.29823,-0.0433724,0.202356,0.756918
1527,48,3.2999,-0.0391834,0.201076,0.7559
1529,46,3.29975,-0.0359133,0.200577,0.754849
1531,44,3.29896,-0.036937,0.200576,0.754557
1533,42,3.29822,-0.0363524,0.200574,0.753567
1535,40,3.30005,-0.0322727,0.199884,0.75252
1537,38,3.29933,-0.0333504,0.199286,0.752193
1539,36,3.29862,-0.0327742,0.199283,0.751198
1541,34,3.30099,-0.0283527,0.197498,0.750534
1543,32,3.29956,-0.0295188,0.197984,0.749852
1545,30,3.297879,-0.0428869,0.198469,0.748838
1547,28,3.29719,-0.0440551,0.198468,0.748501
1549,26,3.29945,-0.0380263,0.196674,0.747144
1551,24,3.29855,-0.0365648,0.196672,0.746399
1553,22,3.2978,-0.0374708,0.196669,0.746141
1555,20,3.30045,-0.0314882,0.194865,0.744732
1557,18,3.30029,-0.0296589,0.194374,0.744406
1559,16,3.2991,-0.0319838,0.194857,0.743412
1561,14,3.2985,-0.04408,0.194851,0.743126
1563,12,3.30015,-0.0409904,0.193545,0.741766
1565,10,3.2995,-0.0394972,0.194137,0.741044
1567,8,3.29859,-0.0415175,0.193542,0.740465
1569,6,3.30057,-0.0373549,0.192232,0.739411
1571,4,3.29956,-0.0367773,0.192239,0.738424
1572,3,3.29872,-0.0397151,0.192741,0.73845