File: hust_correlation_analysis/matrices/HUST_1-4_cycle_feature_matrix.csv
cycle_number,rul,voltage,current,capacity,charge_capacity
1,1502,3.31231,0.0335935,0.297835,1.04813
3,1500,3.29857,-0.0140928,0.317355,1.00677
5,1498,3.30089,-0.0151664,0.316346,1.00916
7,1496,3.30254,-0.0159098,0.31544,1.01297
9,1494,3.30357,-0.0164645,0.314907,1.0154
11,1492,3.30387,-0.0166509,0.314382,1.01801
13,1490,3.30643,-0.0141183,0.31266,1.02024
15,1488,3.30661,-0.0158444,0.312679,1.02177
17,1486,3.30793,-0.0140762,0.311324,1.02339
19,1484,3.30751,-0.0156975,0.311263,1.02495
21,1482,3.30849,-0.0144825,0.310429,1.02605
23,1480,3.30977,-0.0138321,0.308898,1.02683
25,1478,3.31046,-0.0126274,0.309013,1.02792
27,1476,3.31105,-0.012566,0.307946,1.02829
29,1474,3.30927,-0.0155298,0.309129,1.02847
31,1472,3.3101,-0.0143453,0.308303,1.02952
33,1470,3.31093,-0.0136223,0.30819,1.03031
35,1468,3.31107,-0.0136896,0.307488,1.03028
37,1466,3.31138,-0.0131561,0.307084,1.03079
39,1464,3.31198,-0.0131759,0.30668,1.03095
41,1462,3.31226,-0.0125768,0.306273,1.0315
43,1460,3.31216,-0.0125886,0.306268,1.03148
45,1458,3.31237,-0.0125836,0.305864,1.03166
47,1456,3.31128,-0.0154254,0.306646,1.03206
49,1454,3.31286,-0.012588,0.305466,1.03185
51,1452,3.31277,-0.0121367,0.305063,1.03227
53,1450,3.3131,-0.0126664,0.305063,1.03198
55,1448,3.31344,-0.0126068,0.304663,1.03219
57,1446,3.31348,-0.0125465,0.304663,1.03224
59,1444,3.31337,-0.0125847,0.304777,1.0322
61,1442,3.31357,-0.013146,0.304655,1.03184
63,1440,3.31345,-0.0131765,0.304655,1.03181
65,1438,3.31338,-0.0131595,0.304648,1.03181
67,1436,3.31353,-0.0131624,0.304256,1.03198
69,1434,3.31365,-0.0137171,0.30495,1.03163
71,1432,3.31374,-0.0134886,0.304245,1.03178
73,1430,3.31338,-0.0142554,0.304258,1.03134
75,1428,3.31344,-0.0147753,0.30426,1.03102
77,1426,3.31334,-0.01479,0.304373,1.03086
79,1424,3.31329,-0.0148311,0.304255,1.03097
81,1422,3.31304,-0.014865,0.304254,1.03095
83,1420,3.31477,-0.0121138,0.303074,1.03093
85,1418,3.31477,-0.0125528,0.303073,1.03038
87,1416,3.31471,-0.0125216,0.303066,1.03039
89,1414,3.31459,-0.0125056,0.303071,1.03041
91,1412,3.31464,-0.0131349,0.303075,1.03001
93,1410,3.31449,-0.0131264,0.303078,1.03004
95,1408,3.31454,-0.0136473,0.303165,1.02973
97,1406,3.3145,-0.0136479,0.303081,1.02974
99,1404,3.3146,-0.0142416,0.303076,1.02935
101,1402,3.31439,-0.0142415,0.303081,1.02935
103,1400,3.31383,-0.0143309,0.303475,1.02913
105,1398,3.31423,-0.0142586,0.30297,1.02932
107,1396,3.31382,-0.0148596,0.304167,1.0288
109,1394,3.31408,-0.0147919,0.303074,1.02899
111,1392,3.31364,-0.0149184,0.303472,1.02875
113,1390,3.31552,-0.0126162,0.302525,1.02817
115,1388,3.31534,-0.0125832,0.302296,1.0282
117,1386,3.315,-0.0131809,0.302697,1.02769
119,1384,3.31492,-0.0131602,0.302697,1.0277
121,1382,3.31481,-0.0136769,0.302695,1.02738
123,1380,3.31473,-0.0136931,0.302697,1.02737
125,1378,3.31472,-0.013712,0.302694,1.02736
127,1376,3.31433,-0.0143381,0.303088,1.02678
129,1374,3.31463,-0.0142206,0.302686,1.027
131,1372,3.314,-0.0143582,0.303083,1.02675
133,1370,3.31406,-0.0148547,0.303081,1.02643
135,1368,3.31391,-0.0149226,0.303084,1.02638
137,1366,3.31558,-0.0120051,0.301904,1.0262
139,1364,3.31562,-0.0124115,0.30191,1.02596
141,1362,3.31522,-0.0125964,0.302315,1.0257
143,1360,3.31518,-0.013106,0.302315,1.02538
145,1358,3.31499,-0.0130895,0.302402,1.0252
147,1356,3.31469,-0.0137112,0.302707,1.02481
149,1354,3.31457,-0.0137616,0.302713,1.0248
151,1352,3.31445,-0.0137361,0.302713,1.02482
153,1350,3.31438,-0.0137596,0.302711,1.0248
155,1348,3.31405,-0.0143957,0.303113,1.02425
157,1346,3.31393,-0.014386,0.303811,1.02426
159,1344,3.31395,-0.0149579,0.303,1.0239
161,1342,3.31389,-0.0149275,0.303117,1.02392
163,1340,3.31563,-0.0120085,0.301945,1.02375
165,1338,3.31519,-0.012606,0.302345,1.02321
167,1336,3.31518,-0.0125748,0.303046,1.02324
169,1334,3.31518,-0.012577,0.302339,1.02321
171,1332,3.31485,-0.013157,0.302823,1.02268
173,1330,3.31462,-0.0131531,0.302742,1.02267
175,1328,3.31426,-0.0138476,0.303145,1.02209
177,1326,3.31409,-0.013871,0.303147,1.02206
179,1324,3.31395,-0.0138095,0.303143,1.02211
181,1322,3.31406,-0.01433,0.303138,1.02177
183,1320,3.31387,-0.014355,0.303137,1.02173
185,1318,3.31334,-0.0145033,0.303546,1.0215
187,1316,3.31336,-0.0149827,0.303543,1.0212
189,1314,3.31333,-0.014995,0.303533,1.02114
191,1312,3.3126,-0.0152552,0.303947,1.02058
193,1310,3.31474,-0.0120996,0.302358,1.02095
195,1308,3.31433,-0.0127633,0.302762,1.02038
197,1306,3.31432,-0.0127314,0.302764,1.0204
199,1304,3.31417,-0.0127028,0.302764,1.0204
201,1302,3.31388,-0.0133258,0.303162,1.01985
203,1300,3.31371,-0.0133579,0.303169,1.01984
205,1298,3.31376,-0.0139025,0.303168,1.0195
207,1296,3.31357,-0.0139242,0.303165,1.01948
209,1294,3.31347,-0.0139433,0.30317,1.01948
211,1292,3.31311,-0.0145759,0.303579,1.01919
213,1290,3.31299,-0.0145759,0.303576,1.01893
215,1288,3.31298,-0.0145548,0.303572,1.01894
217,1286,3.31297,-0.0151087,0.303569,1.01857
219,1284,3.3128,-0.0150886,0.304268,1.01858
221,1282,3.31234,-0.0151779,0.303968,1.01834
223,1280,3.31227,-0.0151897,0.303969,1.01833
225,1278,3.31213,-0.0151626,0.303965,1.01831
227,1276,3.31347,-0.0123763,0.303183,1.01784
229,1274,3.31178,-0.0155474,0.304359,1.01789
231,1272,3.31329,-0.0128732,0.303178,1.01751
233,1270,3.31274,-0.0130241,0.30358,1.0172
235,1268,3.31294,-0.0131047,0.303586,1.0172
237,1266,3.3125,-0.013191,0.304291,1.01695
239,1264,3.31262,-0.0135613,0.303584,1.01691
241,1262,3.31214,-0.014205,0.303994,1.01635
243,1260,3.31243,-0.0140622,0.303583,1.01635
245,1258,3.31234,-0.0141391,0.303586,1.01656
247,1256,3.31192,-0.0147573,0.303987,1.01601
249,1254,3.31175,-0.014737,0.303989,1.01601
251,1252,3.31164,-0.0147598,0.303993,1.01626
253,1250,3.311135,-0.0154861,0.304405,1.01539
255,1248,3.31295,-0.0129608,0.303218,1.01494
257,1246,3.31289,-0.0130273,0.303454,1.01491
259,1244,3.31285,-0.0135787,0.303221,1.01457
261,1242,3.3127,-0.0135896,0.303218,1.01455
263,1240,3.31263,-0.0136093,0.303301,1.01455
265,1238,3.3123,-0.0142336,0.303622,1.01397
267,1236,3.3121,-0.0142115,0.303625,1.01401
269,1234,3.31208,-0.0142299,0.303624,1.01399
271,1232,3.31213,-0.0141907,0.303616,1.01398
273,1230,3.31207,-0.0147558,0.303624,1.01365
275,1228,3.31156,-0.0149401,0.304038,1.01338
277,1226,3.31162,-0.0154305,0.30404,1.01309
279,1224,3.3115,-0.0153403,0.304039,1.01315
281,1222,3.3134,-0.0129566,0.302852,1.01258
283,1220,3.31331,-0.0129501,0.302848,1.01257
285,1218,3.31276,-0.0130085,0.303257,1.01237
287,1216,3.31282,-0.0135568,0.303255,1.01202
289,1214,3.31267,-0.0135612,0.303249,1.012
291,1212,3.31251,-0.0135568,0.30396,1.01203
293,1210,3.31236,-0.013599,0.303253,1.01199
295,1208,3.31204,-0.0142799,0.303663,1.0114
297,1206,3.31179,-0.0142849,0.303666,1.0114
299,1204,3.31169,-0.0142891,0.303669,1.01141
301,1202,3.31175,-0.014829,0.303673,1.0111
303,1200,3.31164,-0.0148194,0.303679,1.01111
305,1198,3.31129,-0.0154176,0.304085,1.01057
307,1196,3.31123,-0.0154255,0.304085,1.01057
309,1194,3.31103,-0.01537,0.304079,1.01058
311,1192,3.31251,-0.0130451,0.303299,1.0098
313,1190,3.31228,-0.0130874,0.303303,1.00979
315,1188,3.31213,-0.0131127,0.303302,1.00976
317,1186,3.31178,-0.0138006,0.303715,1.00917
319,1184,3.31204,-0.0136609,0.303299,1.00941
321,1182,3.3119,-0.0136879,0.303299,1.00939
323,1180,3.31163,-0.0143283,0.303721,1.00885
325,1178,3.3116,-0.0142976,0.303725,1.0089
327,1176,3.31179,-0.014893,0.303723,1.00853
329,1174,3.31162,-0.0148237,0.303723,1.00858
331,1172,3.31135,-0.0148341,0.303725,1.00719
333,1170,3.31137,-0.0148797,0.304431,1.00853
335,1168,3.31101,-0.0155678,0.304133,1.00795
337,1166,3.31079,-0.0154636,0.304132,1.00799
339,1164,3.31259,-0.0124944,0.302934,1.00775
341,1162,3.31219,-0.0131326,0.30358,1.00719
343,1160,3.31205,-0.0131121,0.303351,1.00721
345,1158,3.31192,-0.0131293,0.303284,1.0072
347,1156,3.31209,-0.0137273,0.303359,1.00687
349,1154,3.31198,-0.013654,0.303356,1.00691
351,1152,3.31163,-0.0143103,0.303779,1.00637
353,1150,3.3115,-0.0142869,0.303778,1.00637
355,1148,3.31117,-0.0149376,0.304203,1.00583
357,1146,3.31096,-0.0149141,0.304198,1.00584
359,1144,3.31128,-0.0148479,0.30378,1.00603
361,1142,3.31073,-0.0149326,0.304197,1.00582
363,1140,3.31073,-0.0154902,0.304193,1.00546
365,1138,3.31051,-0.0155233,0.304193,1.00544
367,1136,3.30996,-0.0156353,0.304614,1.00521
369,1134,3.3118,-0.0126322,0.303418,1.00499
371,1132,3.31177,-0.0131343,0.30342,1.00469
373,1130,3.31183,-0.0131209,0.303424,1.00474
375,1128,3.31137,-0.0137823,0.303849,1.00417
377,1126,3.31118,-0.0137908,0.303851,1.00417
379,1124,3.31123,-0.0137836,0.303843,1.00416
381,1122,3.31118,-0.0143114,0.303849,1.00385
383,1120,3.31109,-0.0142734,0.304064,1.00383
385,1118,3.3105,-0.0144146,0.304251,1.00356
387,1116,3.31093,-0.0142917,0.303828,1.0038
389,1114,3.31057,-0.0149959,0.304251,1.0032
391,1112,3.31045,-0.0150175,0.304251,1.00319
393,1110,3.3105,-0.0150619,0.304256,1.00319
395,1108,3.31018,-0.0155846,0.304699,1.00276
397,1106,3.31001,-0.0155682,0.304699,1.00277
399,1104,3.31149,-0.0131764,0.303917,1.002
401,1102,3.31177,-0.013073,0.303492,1.00222
403,1100,3.3113,-0.0131941,0.303916,1.00199
405,1098,3.31129,-0.0137826,0.303919,1.00164
407,1096,3.31107,-0.0137722,0.303916,1.00163
409,1094,3.31104,-0.0137892,0.304637,1.00164
411,1092,3.31078,-0.0143654,0.304343,1.00113
413,1090,3.31034,-0.0143493,0.30433,1.00111
415,1088,3.31018,-0.0143925,0.304326,1.00106
417,1086,3.31024,-0.0144973,0.304338,1.00103
419,1084,3.3104,-0.014969,0.304337,1.00074
421,1082,3.3098,-0.0150569,0.304764,1.00053
423,1080,3.30987,-0.0155701,0.304765,1.00022
425,1078,3.30977,-0.0155169,0.304766,1.00025
427,1076,3.30919,-0.0156553,0.30542,1.00001
429,1074,3.30886,-0.0156964,0.305174,0.999936
431,1072,3.3106,-0.0127396,0.303968,0.999643
433,1070,3.31052,-0.0133104,0.303967,0.999312
435,1068,3.31035,-0.0133379,0.303963,0.999269
437,1066,3.3102,-0.013343,0.30396,0.99926
439,1064,3.3102,-0.0133764,0.30396,0.999241
441,1062,3.30983,-0.0139851,0.304276,0.998706
443,1060,3.30978,-0.0139559,0.304393,0.99874
445,1058,3.30974,-0.0139811,0.305105,0.998715
447,1056,3.30927,-0.0146408,0.304814,0.998156
449,1054,3.30919,-0.0146105,0.304816,0.998175
451,1052,3.30958,-0.0144858,0.30439,0.998413
453,1050,3.30935,-0.0151591,0.30481,0.997828
455,1048,3.30912,-0.0152122,0.30481,0.997783
457,1046,3.30901,-0.0151997,0.304812,0.997797
459,1044,3.30851,-0.0158495,0.305243,0.997246
461,1042,3.30834,-0.0158542,0.305234,0.997233
463,1040,3.30815,-0.0159223,0.305236,0.997205
465,1038,3.30999,-0.0128098,0.304028,0.997009
467,1036,3.30997,-0.0133805,0.304156,0.996684
469,1034,3.30946,-0.0134417,0.304462,0.996475
471,1032,3.30953,-0.0140433,0.304472,0.996134
473,1030,3.3094,-0.0139926,0.304468,0.996172
475,1028,3.30976,-0.0139262,0.304037,0.996378
477,1026,3.30936,-0.0145576,0.304467,0.995818
479,1024,3.30927,-0.0145619,0.304458,0.995801
481,1022,3.30866,-0.014719,0.304892,0.995549
483,1020,3.30873,-0.0152964,0.304886,0.995185
485,1018,3.30853,-0.0152505,0.304887,0.995216
487,1016,3.3083,-0.0152572,0.304888,0.99547
489,1014,3.30801,-0.0159903,0.305321,0.994631
491,1012,3.30785,-0.0159823,0.30533,0.994654
493,1010,3.30824,-0.0149402,0.304803,0.994189
495,1008,3.31051,-0.0114823,0.303159,0.994374
497,1006,3.30966,-0.013409,0.304361,0.994185
499,1004,3.30938,-0.0141079,0.304562,0.993584
501,1002,3.30906,-0.0140642,0.304543,0.993553
503,1000,3.30943,-0.0139983,0.304109,0.993769
505,998,3.30887,-0.0140988,0.304537,0.993574
507,996,3.30883,-0.0141204,0.304538,0.993508
509,994,3.30828,-0.0147909,0.304966,0.992927
511,992,3.30862,-0.0146787,0.304535,0.993161
513,990,3.30824,-0.014813,0.304965,0.992896
515,988,3.3082,-0.0154128,0.30497,0.992548
517,986,3.30815,-0.0154171,0.304989,0.992613
519,984,3.30775,-0.0159989,0.30542,0.992114
521,982,3.30806,-0.0158441,0.304989,0.992634
523,980,3.30802,-0.0150468,0.30488,0.991569
525,978,3.30928,-0.0134611,0.304191,0.991513
527,976,3.30912,-0.0135022,0.30419,0.991473
529,974,3.30895,-0.0135127,0.304147,0.991457
531,972,3.30859,-0.0141989,0.304701,0.990889
533,970,3.30848,-0.0141804,0.304622,0.990911
535,968,3.30838,-0.0141407,0.304621,0.990912
537,966,3.308,-0.014733,0.305057,0.990403
539,964,3.30798,-0.0148019,0.30507,0.990402
541,962,3.30804,-0.0147536,0.305074,0.990449
543,960,3.30752,-0.0154097,0.305512,0.989893
545,958,3.30782,-0.0153764,0.305196,0.990087
547,956,3.30744,-0.0160287,0.305513,0.989544
549,954,3.30713,-0.0160675,0.30551,0.989515
551,952,3.30884,-0.012995,0.304296,0.989264
553,950,3.30843,-0.0135756,0.304734,0.988758
555,948,3.30826,-0.0135857,0.304814,0.988743
557,946,3.3087,-0.0134957,0.304294,0.988965
559,944,3.30836,-0.0141775,0.30473,0.988393
561,942,3.30817,-0.0141367,0.304734,0.988435
563,940,3.30823,-0.0141856,0.304513,0.988401
565,938,3.30785,-0.0147399,0.305172,0.987913
567,936,3.30801,-0.014731,0.304737,0.988086
569,934,3.30803,-0.0153856,0.305175,0.987529
571,932,3.30744,-0.0154375,0.305178,0.987766
573,930,3.30745,-0.0154306,0.305177,0.986162
575,928,3.30715,-0.0157391,0.305176,0.987336
577,926,3.30683,-0.0161316,0.305613,0.98695
579,924,3.30858,-0.0129223,0.304397,0.986557
581,922,3.30892,-0.0131497,0.303962,0.987066
583,920,3.3086,-0.0135958,0.304401,0.986376
585,918,3.30828,-0.0136055,0.304397,0.986366
587,916,3.30826,-0.0141287,0.304394,0.986052
589,914,3.3084,-0.0126135,0.30385,0.985824
591,912,3.30794,-0.0147986,0.304836,0.985502
593,910,3.30761,-0.0148687,0.304838,0.985461
595,908,3.30737,-0.0148134,0.304835,0.985482
597,906,3.30738,-0.0148916,0.304873,0.985439
599,904,3.30686,-0.0155452,0.305271,0.984881
601,902,3.3067,-0.015585,0.305273,0.98486
603,900,3.30654,-0.0155879,0.305272,0.984852
605,898,3.30618,-0.0162865,0.305713,0.98428
607,896,3.30593,-0.0163025,0.305713,0.984269
609,894,3.30628,-0.0161459,0.305267,0.984524
611,892,3.30777,-0.0137772,0.304494,0.983685
613,890,3.30771,-0.0137603,0.304492,0.983692
615,888,3.30765,-0.0137718,0.304493,0.983942
617,886,3.3076,-0.0143431,0.304493,0.983367
619,884,3.30748,-0.0143597,0.304494,0.983338
621,882,3.30741,-0.0143529,0.304491,0.983356
623,880,3.30695,-0.015005,0.304931,0.982799
625,878,3.30676,-0.0150334,0.304934,0.98279
627,876,3.30676,-0.0150498,0.304933,0.982783
629,874,3.30677,-0.0156424,0.304257,0.983748
631,872,3.30663,-0.0156128,0.305052,0.982444
633,870,3.30657,-0.0144445,0.304828,0.981841
635,868,3.30605,-0.0160009,0.305372,0.982055
637,866,3.30586,-0.0165757,0.305367,0.981709
639,864,3.30614,-0.0147898,0.304829,0.981642
641,862,3.307,-0.0138273,0.304599,0.981076
643,860,3.30761,-0.0137559,0.304154,0.981303
645,858,3.30714,-0.0144275,0.3046,0.980748
647,856,3.30668,-0.0144545,0.304591,0.980704
649,854,3.30707,-0.0150135,0.304589,0.980381
651,852,3.30688,-0.015065,0.304592,0.980355
653,850,3.30666,-0.0150504,0.304597,0.980381
655,848,3.30626,-0.0157775,0.305037,0.979778
657,846,3.30643,-0.0156837,0.305117,0.979842
659,844,3.30618,-0.0156958,0.305033,0.979823
661,842,3.306,-0.0163203,0.305036,0.979459
663,840,3.30584,-0.0162485,0.304929,0.979497
665,838,3.30718,-0.013837,0.304259,0.978666
667,836,3.30721,-0.0137973,0.304263,0.978695
669,834,3.30689,-0.0145108,0.304709,0.978126
671,832,3.30699,-0.0129382,0.30415,0.977892
673,830,3.30699,-0.0132865,0.304151,0.979045
675,828,3.30659,-0.0148377,0.304708,0.977942
677,826,3.30672,-0.013874,0.304151,0.977354
679,824,3.30641,-0.0153996,0.304707,0.977573
681,822,3.30622,-0.0158247,0.304707,0.977357
683,820,3.30605,-0.0157248,0.304707,0.977424
685,818,3.30562,-0.0164507,0.305154,0.977105
687,816,3.30539,-0.0164925,0.305152,0.976811
689,814,3.30559,-0.0163869,0.304702,0.977035
691,812,3.30705,-0.0133135,0.30392,0.976558
693,810,3.30706,-0.0138601,0.303924,0.97624
695,808,3.30693,-0.0138547,0.303917,0.976232
697,806,3.30658,-0.0145607,0.304594,0.975676
699,804,3.3064,-0.0145765,0.304371,0.975666
701,802,3.30636,-0.0151943,0.304371,0.975318
703,800,3.30617,-0.0151813,0.304369,0.975321
705,798,3.30614,-0.0152092,0.304369,0.975309
707,796,3.30606,-0.0158053,0.30437,0.974968
709,794,3.30541,-0.0159255,0.304896,0.974729
711,792,3.30575,-0.0157946,0.304365,0.974973
713,790,3.30526,-0.0164941,0.304818,0.974399
715,788,3.305,-0.0164981,0.304806,0.974375
717,786,3.30648,-0.013878,0.304041,0.97366
719,784,3.30649,-0.0140285,0.304041,0.973585
721,782,3.30634,-0.0140574,0.30404,0.973556
723,780,3.30634,-0.014615,0.304041,0.97323
725,778,3.30657,-0.0130126,0.30348,0.973034
727,776,3.30577,-0.0152728,0.304489,0.972706
729,774,3.30558,-0.0153006,0.30449,0.97268
731,772,3.30555,-0.0152971,0.30449,0.972683
733,770,3.30538,-0.0159293,0.304485,0.972303
735,768,3.30521,-0.0159921,0.304485,0.972267
737,766,3.30467,-0.0166745,0.304938,0.97172
739,764,3.30466,-0.0166169,0.304937,0.971748
741,762,3.30646,-0.0134578,0.303705,0.971476
743,760,3.30639,-0.0140818,0.303707,0.971118
745,758,3.30614,-0.0140922,0.303707,0.971119
747,756,3.30577,-0.0148728,0.304163,0.970514
749,754,3.30563,-0.0148977,0.304898,0.970418
751,752,3.30587,-0.013774,0.303595,0.970009
753,750,3.3055,-0.0153624,0.304156,0.970241
755,748,3.30561,-0.0137607,0.303596,0.970005
757,746,3.30484,-0.0161032,0.304594,0.96958
759,744,3.30462,-0.0161309,0.304595,0.969575
761,742,3.30458,-0.0167301,0.304598,0.969232
763,740,3.30438,-0.0167358,0.304593,0.969218
765,738,3.30635,-0.0135325,0.303363,0.968977
767,736,3.30635,-0.0140584,0.303381,0.968727
769,734,3.30583,-0.0144769,0.303834,0.968582
771,732,3.3062,-0.0134837,0.303267,0.96776
773,730,3.30614,-0.0134423,0.303267,0.967794
775,728,3.3056,-0.0155944,0.303833,0.966331
777,726,3.30537,-0.0154207,0.303908,0.967795
779,724,3.30491,-0.0161912,0.304284,0.96719
781,722,3.30469,-0.016476,0.304965,0.966994
783,720,3.30449,-0.0167902,0.304275,0.96681
785,718,3.30423,-0.0167427,0.304275,0.966838
787,716,3.3057,-0.0141299,0.303499,0.966065
789,714,3.30566,-0.0142333,0.303497,0.966023
791,712,3.30562,-0.0145716,0.303504,0.965612
793,710,3.30562,-0.0149205,0.303498,0.965637
795,708,3.30507,-0.0155603,0.303961,0.965111
797,706,3.30538,-0.0142045,0.303392,0.964749
799,704,3.30503,-0.0164545,0.303964,0.964622
801,702,3.30501,-0.0145409,0.303391,0.964549
803,700,3.30501,-0.014861,0.303388,0.964366
805,698,3.30428,-0.0153096,0.303846,0.963948
807,696,3.30578,-0.0141748,0.303182,0.963647
809,694,3.30558,-0.0142163,0.303179,0.963616
811,692,3.30518,-0.014965,0.303636,0.963021
813,690,3.30542,-0.0148509,0.303297,0.96325
815,688,3.305,-0.0155635,0.303628,0.96266
817,686,3.30491,-0.0155856,0.303632,0.962414
819,684,3.30489,-0.0161833,0.303635,0.962329
821,682,3.30469,-0.0161824,0.303634,0.962339
823,680,3.30413,-0.0169625,0.304094,0.961734
825,678,3.30594,-0.0136256,0.302979,0.961529
827,676,3.30585,-0.0142564,0.302858,0.961179
829,674,3.30585,-0.0145969,0.303078,0.960984
831,672,3.30555,-0.0145275,0.302854,0.961021
833,670,3.30512,-0.0149242,0.303437,0.960613
835,668,3.30502,-0.0155577,0.303311,0.960251
837,666,3.30475,-0.0155751,0.303308,0.96024
839,664,3.3043,-0.0162913,0.30377,0.959672
841,662,3.30403,-0.0162947,0.303767,0.959659
843,660,3.30394,-0.0169623,0.303766,0.959078
845,658,3.3058,-0.0136363,0.30253,0.959065
847,656,3.30528,-0.0143582,0.302992,0.958489
849,654,3.30501,-0.0143653,0.302993,0.958485
851,652,3.30506,-0.0149097,0.303,0.958208
853,650,3.30457,-0.0157229,0.303457,0.956302
855,648,3.30456,-0.0140697,0.302877,0.957354
857,646,3.30406,-0.0160755,0.303455,0.957377
859,644,3.30369,-0.0163544,0.303449,0.957204
861,642,3.30331,-0.0171206,0.303916,0.956613
863,640,3.30295,-0.0171256,0.304665,0.956607
865,638,3.30489,-0.0144079,0.302676,0.95603
867,636,3.30478,-0.0144721,0.302673,0.956004
869,634,3.30465,-0.0151241,0.302664,0.955623
871,632,3.30377,-0.0152471,0.303339,0.955346
873,630,3.30379,-0.0159702,0.303137,0.954993
875,628,3.30366,-0.0158957,0.303136,0.955039
877,626,3.30316,-0.0168905,0.303602,0.954318
879,624,3.30333,-0.0153351,0.302329,0.954048
881,622,3.30446,-0.0146226,0.302829,0.953315
883,620,3.304642,-0.0145038,0.302359,0.953547
885,618,3.30464,-0.0136292,0.30224,0.952964
887,616,3.30439,-0.0138979,0.302247,0.952573
889,614,3.30423,-0.0138963,0.302248,0.952586
891,612,3.30346,-0.0146444,0.302708,0.951984
893,610,3.30283,-0.0166518,0.303293,0.951994
895,608,3.3032,-0.0156362,0.302706,0.95142
897,606,3.30475,-0.0139367,0.302044,0.951409
899,604,3.30426,-0.0145989,0.302511,0.950886
901,602,3.30437,-0.013272,0.302675,0.950488
903,600,3.30433,-0.0138556,0.301931,0.950163
905,598,3.30343,-0.0162511,0.302982,0.949807
907,596,3.30316,-0.0166668,0.30298,0.949571
909,594,3.30297,-0.0166322,0.30298,0.949582
911,592,3.30289,-0.0173344,0.302975,0.949193
913,590,3.3047,-0.0139629,0.301734,0.94896
915,588,3.30398,-0.0147105,0.3022,0.948364
917,586,3.30392,-0.0153681,0.302198,0.947996
919,584,3.30366,-0.0153488,0.302202,0.948015
921,582,3.30292,-0.0160896,0.30267,0.947689
923,580,3.30259,-0.0160638,0.30265,0.947385
925,578,3.30273,-0.0167025,0.302674,0.947119
927,576,3.30214,-0.0174842,0.303144,0.9465
929,574,3.30366,-0.0148012,0.302375,0.94572
931,572,3.30402,-0.0146916,0.301899,0.945953
933,570,3.30328,-0.0154412,0.302371,0.945358
935,568,3.30316,-0.0161169,0.30237,0.944982
937,566,3.30294,-0.0161163,0.302366,0.944983
939,564,3.30226,-0.0168161,0.302836,0.944422
941,562,3.30216,-0.0175204,0.302832,0.94402
943,560,3.30379,-0.0140878,0.301583,0.944049
945,558,3.30331,-0.0148598,0.302053,0.943189
947,556,3.30305,-0.01551,0.302053,0.942833
949,554,3.3028,-0.0155529,0.302052,0.942817
951,552,3.30216,-0.0162812,0.30253,0.942254
953,550,3.30207,-0.0169292,0.302528,0.941888
955,548,3.30171,-0.0168975,0.302525,0.941904
957,546,3.30366,-0.0142127,0.301271,0.941252
959,544,3.30293,-0.0149165,0.301748,0.940689
961,542,3.30283,-0.0155868,0.301752,0.940346
963,540,3.30218,-0.0163549,0.302229,0.939759
965,538,3.30192,-0.0168974,0.30223,0.939456
967,536,3.30181,-0.0170009,0.302232,0.939419
969,534,3.30304,-0.0142965,0.30145,0.938587
971,532,3.30286,-0.0150074,0.301452,0.938205
973,530,3.30227,-0.0157476,0.301998,0.937629
975,528,3.30204,-0.0157774,0.301928,0.937617
977,526,3.30179,-0.0164358,0.301934,0.93727
979,524,3.30151,-0.0154476,0.301817,0.936478
981,522,3.30102,-0.0177869,0.302417,0.936371
983,520,3.30328,-0.0129099,0.300556,0.935746
985,518,3.30266,-0.0136018,0.301039,0.935203
987,516,3.30247,-0.0143025,0.301042,0.934769
989,514,3.30166,-0.0151103,0.30152,0.934206
991,512,3.30151,-0.0157455,0.301516,0.933851
993,510,3.30297,-0.0143359,0.30086,0.933656
995,508,3.30274,-0.015016,0.300858,0.933277
997,506,3.30198,-0.0158932,0.301339,0.932625
999,504,3.3013,-0.0164782,0.302033,0.93213
1001,502,3.30097,-0.0172413,0.301821,0.931716
1003,500,3.30061,-0.017257,0.301816,0.931701
1005,498,3.30261,-0.0134437,0.30044,0.930311
1007,496,3.30233,-0.0137644,0.300443,0.930163
1009,494,3.3017,-0.0145115,0.300932,0.929589
1011,492,3.30129,-0.0152217,0.30093,0.929199
1013,490,3.30102,-0.0158442,0.300928,0.928867
1015,488,3.30031,-0.0166505,0.301419,0.926909
1017,486,3.30181,-0.0155135,0.300757,0.927885
1019,484,3.30111,-0.0159937,0.301246,0.927463
1021,482,3.30085,-0.0166848,0.30124,0.92707
1023,480,3.30006,-0.0174404,0.30173,0.926496
1025,478,3.3002,-0.0173865,0.301238,0.926695
1027,476,3.3016,-0.0146156,0.300463,0.925873
1029,474,3.30135,-0.0153372,0.300463,0.925475
1031,472,3.30116,-0.0147112,0.300349,0.924508
1033,470,3.30039,-0.0154859,0.300833,0.923897
1035,468,3.29964,-0.0178913,0.301445,0.923776
1037,466,3.29929,-0.0169564,0.301322,0.922931
1039,464,3.30073,-0.0158872,0.300673,0.922549
1041,462,3.30044,-0.0162114,0.30067,0.922366
1043,460,3.29964,-0.0170181,0.301163,0.921515
1045,458,3.29964,-0.0162182,0.300543,0.921018
1047,456,3.30043,-0.0148362,0.300371,0.920554
1049,454,3.30023,-0.0156343,0.300384,0.920159
1051,452,3.29995,-0.0162005,0.300505,0.919846
1053,450,3.29878,-0.0178674,0.301365,0.918599
1055,448,3.29835,-0.0185629,0.301358,0.918203
1057,446,3.30028,-0.0156481,0.300085,0.917603
1059,444,3.29958,-0.0164329,0.300585,0.917021
1061,442,3.29886,-0.0172646,0.301094,0.916424
1063,440,3.29875,-0.0179244,0.301101,0.916103
1065,438,3.30039,-0.0149887,0.299827,0.915522
1067,436,3.29972,-0.0164376,0.300327,0.91458
1069,434,3.29944,-0.0171393,0.300449,0.9142
1071,432,3.29858,-0.0179627,0.300735,0.913594
1073,430,3.29826,-0.0186157,0.300823,0.913245
1075,428,3.29956,-0.0158243,0.300049,0.912383
1077,426,3.29943,-0.0165114,0.300048,0.91201
1079,424,3.29855,-0.017306,0.300548,0.911424
1081,422,3.29785,-0.0188191,0.301052,0.910448
1083,420,3.29963,-0.0158336,0.29984,0.909871
1085,418,3.29861,-0.0167027,0.300278,0.909219
1087,416,3.29829,-0.0174208,0.300278,0.908853
1089,414,3.29748,-0.0189614,0.300784,0.907866
1091,412,3.29973,-0.0158729,0.299507,0.907321
1093,410,3.29881,-0.0148809,0.299565,0.906611
1095,408,3.29771,-0.0234495,0.300009,0.905861
1097,406,3.2975,-0.0244963,0.300012,0.905313
1099,404,3.29904,-0.0196788,0.298732,0.904429
1101,402,3.29844,-0.0204121,0.298727,0.904035
1103,400,3.29741,-0.021275,0.299235,0.903415
1105,398,3.29733,-0.0207774,0.298723,0.902609
1107,396,3.29886,-0.0178929,0.297952,0.901765
1109,394,3.29858,-0.0167313,0.297444,0.901314
1111,392,3.29792,-0.0163653,0.297444,0.900257
1113,390,3.29994,-0.0133792,0.296166,0.899659
1115,388,3.29877,-0.0216814,0.296732,0.899082
1117,386,3.29789,-0.023219,0.297179,0.89811
1119,384,3.29672,-0.0241487,0.297686,0.896018
1121,382,3.29881,-0.0191835,0.295897,0.896806
1123,380,3.29821,-0.0187671,0.295898,0.895777
1125,378,3.29826,-0.017563,0.295391,0.895339
1127,376,3.29766,-0.0183003,0.29616,0.894953
1129,374,3.29934,-0.0142,0.294115,0.893671
1131,372,3.29853,-0.0150055,0.294613,0.893078
1133,370,3.29773,-0.0232812,0.294612,0.892965
1135,368,3.29705,-0.0172979,0.295117,0.891723
1137,366,3.29805,-0.0219875,0.294347,0.890896
1139,364,3.29804,-0.0207066,0.293835,0.89047
1141,362,3.29711,-0.0222728,0.294344,0.889508
1143,360,3.29906,-0.0192493,0.293067,0.888893
1145,358,3.29826,-0.0180728,0.293061,0.888257
1147,356,3.29769,-0.0177437,0.293067,0.887194
1149,354,3.29748,-0.0185397,0.29306,0.88678
1151,352,3.29881,-0.0143428,0.291782,0.885519
1153,350,3.29851,-0.0150625,0.291788,0.885174
1155,348,3.2974,-0.0234471,0.292287,0.884615
1157,346,3.29649,-0.0250781,0.292851,0.883616
1159,344,3.29873,-0.0200854,0.290957,0.882942
1161,342,3.29784,-0.0190289,0.291009,0.882227
1163,340,3.29692,-0.0206197,0.291513,0.88125
1165,338,3.29871,-0.0175339,0.290236,0.880661
1167,336,3.29829,-0.0170719,0.290232,0.879647
1169,334,3.29774,-0.017849,0.290232,0.87925
1171,332,3.29697,-0.0187071,0.290737,0.878649
1173,330,3.29862,-0.0144392,0.289509,0.877408
1175,328,3.2981,-0.0152789,0.289456,0.876979
1177,326,3.29701,-0.016154,0.289964,0.87637
1179,324,3.29625,-0.0234052,0.289959,0.875367
1181,322,3.29862,-0.0184039,0.288008,0.874559
1183,320,3.29798,-0.017625,0.288005,0.873706
1185,318,3.29752,-0.0183947,0.288007,0.873322
1187,316,3.2969,-0.017996,0.288003,0.872289
1189,314,3.29901,-0.0129858,0.28632,0.871565
1191,312,3.298,-0.0137969,0.286719,0.870991
1193,310,3.29704,-0.0153632,0.287223,0.87003
1195,308,3.29829,-0.0219088,0.28662,0.869673
1197,306,3.29781,-0.0208315,0.286443,0.868845
1199,304,3.29728,-0.0204525,0.286442,0.867799
1201,302,3.2967,-0.0212812,0.286441,0.867388
1203,300,3.2988,-0.0161374,0.284653,0.866728
1205,298,3.29804,-0.0177631,0.285156,0.865747
1207,296,3.29694,-0.0185265,0.285842,0.865315
1209,294,3.29665,-0.0193841,0.285662,0.864766
1211,292,3.2988,-0.0130593,0.283874,0.86344
1213,290,3.29795,-0.0139925,0.284375,0.862807
1215,288,3.29686,-0.016718,0.284883,0.862524
1217,286,3.29607,-0.0240706,0.284882,0.861547
1219,284,3.29805,-0.020951,0.2836,0.860938
1221,282,3.29716,-0.0218426,0.284103,0.860321
1223,280,3.29652,-0.0214417,0.284146,0.859269
1225,278,3.29836,-0.0183793,0.282813,0.858613
1227,276,3.29816,-0.0170552,0.282307,0.858205
1229,274,3.29713,-0.0178752,0.282999,0.85774
1231,272,3.2966,-0.0175582,0.282807,0.85653
1233,270,3.29813,-0.0163036,0.282218,0.856178
1235,268,3.29715,-0.0175843,0.282728,0.855391
1237,266,3.29669,-0.0183142,0.282721,0.855008
1239,264,3.29549,-0.0180424,0.283129,0.853734
1241,262,3.29721,-0.0227377,0.281945,0.853177
1243,260,3.29707,-0.0215211,0.281437,0.852685
1245,258,3.29569,-0.0244931,0.282454,0.852142
1247,256,3.29538,-0.022208,0.281872,0.850831
1249,254,3.29707,-0.0209345,0.281175,0.850484
1251,252,3.29633,-0.0197213,0.281171,0.849841
1253,250,3.29552,-0.0213854,0.281675,0.848849
1255,248,3.29739,-0.0181621,0.280385,0.848246
1257,246,3.29693,-0.0190141,0.280388,0.847843
1259,244,3.29618,-0.0178245,0.280389,0.847186
1261,242,3.29532,-0.0253944,0.280385,0.84616
1263,240,3.2957,-0.0166312,0.27968,0.845353
1265,238,3.29696,-0.0215237,0.2789,0.844537
1267,236,3.29582,-0.0243299,0.279613,0.844361
1269,234,3.29535,-0.0235323,0.279602,0.843482
1271,232,3.29704,-0.0190943,0.278319,0.842234
1273,230,3.29682,-0.019831,0.278318,0.842131
1275,228,3.2965,-0.0170829,0.277604,0.840797
1277,226,3.29601,-0.0179001,0.277603,0.840407
1279,224,3.2978,-0.0126705,0.276322,0.839537
1281,222,3.29681,-0.0143378,0.276824,0.838547
1283,220,3.2966,-0.0151402,0.276823,0.838157
1285,218,3.29472,-0.0263539,0.278044,0.837657
1287,216,3.29634,-0.0152987,0.277267,0.836735
1289,214,3.29564,-0.0241631,0.277269,0.836402
1291,212,3.29548,-0.0228182,0.276754,0.835958
1293,210,3.2955,-0.0204772,0.276035,0.834673
1295,208,3.29658,-0.0173757,0.275258,0.833827
1297,206,3.29565,-0.0201494,0.275968,0.833647
1299,204,3.29534,-0.0208507,0.275961,0.833299
1301,202,3.29411,-0.0206337,0.276469,0.831986
1303,200,3.2962,-0.0173548,0.275306,0.831391
1305,198,3.29545,-0.0162582,0.275193,0.8307
1307,196,3.29491,-0.0258761,0.275194,0.830023
1309,194,3.29671,-0.0206752,0.273915,0.82913
1311,192,3.29643,-0.0214003,0.273913,0.828773
1313,190,3.29643,-0.0201723,0.273182,0.828183
1315,188,3.29587,-0.0194427,0.273185,0.827306
1317,186,3.29414,-0.0223071,0.274413,0.826924
1319,184,3.29639,-0.019453,0.273134,0.826123
1321,182,3.29561,-0.0182597,0.273143,0.825395
1323,180,3.29499,-0.0190638,0.273112,0.825023
1325,178,3.2944,-0.0186403,0.273108,0.82397
1327,176,3.29654,-0.0153284,0.271822,0.823389
1329,174,3.29554,-0.0163045,0.272329,0.82275
1331,172,3.29415,-0.0254345,0.272836,0.822161
1333,170,3.2933,-0.0271404,0.273348,0.821194
1335,168,3.29568,-0.0216762,0.271549,0.820544
1337,166,3.29523,-0.0225396,0.271551,0.820147
1339,164,3.29495,-0.0199417,0.271082,0.819077
1341,162,3.29657,-0.0168508,0.270285,0.818223
1343,160,3.29611,-0.0175343,0.270277,0.817891
1345,158,3.29597,-0.0143622,0.269539,0.816974
1347,156,3.29515,-0.0236444,0.269771,0.816613
1349,154,3.29372,-0.0272392,0.270782,0.815829
1351,152,3.29564,-0.0234598,0.269497,0.815454
1353,150,3.29563,-0.0206542,0.268741,0.814315
1355,148,3.29493,-0.0234023,0.269487,0.814215
1357,146,3.2939,-0.0222194,0.269443,0.813509
1359,144,3.29585,-0.0177304,0.268204,0.812241
1361,142,3.29545,-0.0184762,0.268204,0.811884
1363,140,3.29456,-0.0197894,0.268704,0.811086
1365,138,3.29416,-0.0210385,0.268823,0.81051
1367,136,3.29606,-0.0156577,0.267421,0.809621
1369,134,3.29536,-0.0247033,0.267311,0.809314
1371,132,3.29457,-0.0257054,0.268069,0.80868
1373,130,3.29455,-0.0250797,0.267417,0.807903
1375,128,3.2967,-0.0177985,0.265378,0.806701
1377,126,3.29566,-0.0188516,0.266135,0.806143
1379,124,3.29511,-0.0214953,0.266638,0.806
1381,122,3.29496,-0.0201207,0.266131,0.805568
1383,120,3.29633,-0.0169047,0.265351,0.804706
1385,118,3.29602,-0.0176849,0.26535,0.804361
1387,116,3.29535,-0.0193821,0.265856,0.803402
1389,114,3.29459,-0.0182507,0.265855,0.802679
1391,112,3.29414,-0.0190095,0.265853,0.802334
1393,110,3.29584,-0.0157162,0.265074,0.801515
1395,108,3.29521,-0.0250339,0.265073,0.801122
1397,106,3.29427,-0.025935,0.265717,0.800555
1399,104,3.29369,-0.0267929,0.265538,0.800155
1401,102,3.29562,-0.02134,0.264295,0.79927
1403,100,3.29549,-0.0221183,0.264295,0.798911
1405,98,3.29481,-0.0217424,0.264295,0.797839
1407,96,3.29482,-0.0199317,0.26352,0.79749
1409,94,3.29424,-0.0196898,0.263526,0.796377
1411,92,3.29619,-0.014058,0.262229,0.795517
1413,90,3.29519,-0.0171136,0.263004,0.795322
1415,88,3.29479,-0.0174892,0.263003,0.795147
1417,86,3.29412,-0.0192318,0.26351,0.794187
1419,84,3.29586,-0.0223151,0.261949,0.793156
1421,82,3.29525,-0.0232141,0.261947,0.792754
1423,80,3.2943,-0.0240518,0.262858,0.792318
1425,78,3.29402,-0.0247804,0.262724,0.791984
1427,76,3.29543,-0.0219776,0.261948,0.790943
1429,74,3.29526,-0.0202382,0.261436,0.790643
1431,72,3.29498,-0.0209427,0.261435,0.790327
1433,70,3.29493,-0.0185108,0.260648,0.787629
1435,68,3.29385,-0.0190449,0.26116,0.788594
1437,66,3.29587,-0.0143331,0.259988,0.787314
1439,64,3.29532,-0.0239037,0.259876,0.786928
1441,62,3.29516,-0.0222845,0.259365,0.786579
1443,60,3.2946,-0.0231811,0.259365,0.786186
1445,58,3.29646,-0.0176653,0.258073,0.785248
1447,56,3.29594,-0.0207193,0.258576,0.78496
1449,54,3.29533,-0.0194622,0.258575,0.784275
1451,52,3.29432,-0.021251,0.259079,0.783294
1453,50,3.29436,-0.0198493,0.258567,0.782842
1455,48,3.29634,-0.014315,0.257278,0.78192
1457,46,3.29549,-0.0173853,0.257779,0.781614
1459,44,3.2944,-0.0182282,0.258573,0.781183
1461,42,3.29466,-0.0173142,0.257775,0.780414
1463,40,3.29607,-0.0139114,0.25699,0.779591
1465,38,3.2949,-0.0240697,0.2575,0.778792
1467,36,3.29489,-0.0226347,0.256995,0.778362
1469,34,3.29463,-0.0235465,0.256998,0.777979
1471,32,3.29637,-0.017932,0.255708,0.777073
1473,30,3.29541,-0.019628,0.255253,0.775977
1475,28,3.29536,-0.024685,0.255201,0.77589
1477,26,3.2946,-0.017045,0.255694,0.774943
1479,24,3.293,-0.0240572,0.256847,0.775165
1481,22,3.2957,-0.0183652,0.255708,0.774461
1483,20,3.2948,-0.0192861,0.256216,0.773879
1485,18,3.29424,-0.0202163,0.256214,0.773475
1487,16,3.29352,-0.0188515,0.256213,0.772831
1489,14,3.29539,-0.0163408,0.255431,0.771606
1491,12,3.29491,-0.0171678,0.25619,0.771249
1493,10,3.29384,-0.018139,0.25594,0.770639
1495,8,3.293276,-0.0277957,0.255936,0.770295
1497,6,3.29542,-0.0242578,0.254646,0.769703
1499,4,3.29437,-0.0261078,0.255154,0.768723
1500,3,3.29426,-0.0261449,0.255157,0.768718