File: calce_correlation_analysis/matrices/CALCE_CS2_33_cycle_feature_matrix.csv
cycle_number,rul,voltage,current,capacity,charge_capacity
6,474,3.84041,-0.0101672,0.294562,0.853733
7,473,3.84046,-0.0111709,0.295103,0.851531
8,472,3.83945,-0.0112839,0.295069,0.850487
9,471,3.8438,-0.0110716,0.295088,0.849718
10,470,3.84282,-0.00933409,0.293951,0.852043
11,469,3.8424,-0.00954245,0.293939,0.851998
12,468,3.84199,-0.00952596,0.293932,0.851602
13,467,3.84181,-0.00954069,0.293914,0.851231
14,466,3.84383,-0.00864609,0.292259,0.850427
15,465,3.84355,-0.00861411,0.292247,0.849976
16,464,3.84326,-0.00864469,0.292227,0.849487
17,463,3.84316,-0.00867386,0.292223,0.849102
18,462,3.84305,-0.00863695,0.292223,0.848702
19,461,3.84261,-0.00871498,0.292207,0.848376
20,460,3.84464,-0.00753775,0.29054,0.847315
21,459,3.84055,-0.00766453,0.290493,0.846765
22,458,3.84185,-0.0104395,0.291044,0.84088
23,457,3.84308,-0.0105381,0.289937,0.838778
24,456,3.84246,-0.0105231,0.289923,0.837721
26,455,3.84338,-0.00959842,0.29049,0.841658
28,454,3.84159,-0.0114475,0.290452,0.83613
29,453,3.84303,-0.0105618,0.288768,0.834739
30,452,3.84423,-0.011308,0.290468,0.83464
31,451,3.84418,-0.00975801,0.289351,0.838074
32,450,3.83957,-0.00960297,0.28818,0.835751
33,449,3.84202,-0.0114757,0.289312,0.832513
34,448,3.84399,-0.0105682,0.287636,0.831575
35,447,3.84337,-0.0115697,0.288211,0.830391
36,446,3.84521,-0.00940299,0.288202,0.833855
37,445,3.84145,-0.00992673,0.288181,0.835022
38,444,3.84251,-0.0116707,0.288184,0.830115
39,443,3.84224,-0.0116862,0.288175,0.829486
40,442,3.84337,-0.0105485,0.286521,0.828318
41,441,3.84622,-0.0106175,0.28767,0.829743
42,440,3.84412,-0.0100271,0.287102,0.831659
43,439,3.84255,-0.0108491,0.286515,0.827872
44,438,3.84257,-0.0118571,0.287068,0.826098
45,437,3.84232,-0.0115211,0.287062,0.825434
46,436,3.8468,-0.0117003,0.287111,0.826048
47,435,3.84323,-0.0110605,0.287635,0.829199
48,434,3.84384,-0.00981557,0.287078,0.829822
49,433,3.84377,-0.0100774,0.287076,0.830006
50,432,3.84428,-0.0102721,0.287086,0.830181
51,431,3.84343,-0.0102143,0.287088,0.830391
52,430,3.84348,-0.0101747,0.287078,0.830279
57,429,3.84245,-0.0106074,0.287656,0.831799
58,428,3.84208,-0.0106801,0.287636,0.831108
59,427,3.84064,-0.0116366,0.287061,0.827558
60,426,3.8418,-0.0118846,0.287063,0.827335
61,425,3.84116,-0.0108023,0.285367,0.82602
62,424,3.84184,-0.0123217,0.286496,0.822991
63,423,3.84131,-0.012753,0.28647,0.822949
64,422,3.83927,-0.0128018,0.286462,0.821932
65,421,3.8417,-0.0127967,0.286468,0.82149
66,420,3.84274,-0.0118421,0.284781,0.821074
67,419,3.84157,-0.0126809,0.28532,0.819289
68,418,3.84165,-0.0127577,0.285327,0.818902
69,417,3.84032,-0.0126418,0.285313,0.818534
70,416,3.84328,-0.012938,0.285328,0.818306
71,415,3.84159,-0.0129567,0.285307,0.818765
72,414,3.84117,-0.0131348,0.285309,0.818273
73,413,3.84427,-0.010482,0.283056,0.817739
74,412,3.84407,-0.0119901,0.283633,0.817305
75,411,3.84307,-0.0120205,0.283619,0.817117
77,410,3.84286,-0.0120616,0.283601,0.816525
78,409,3.84203,-0.013097,0.284183,0.815657
79,408,3.84228,-0.0129975,0.284174,0.815194
81,407,3.84172,-0.0131422,0.28416,0.815263
82,406,3.84372,-0.0117293,0.282485,0.813823
83,405,3.83904,-0.0138815,0.283603,0.81159
84,404,3.84221,-0.0139344,0.282494,0.809218
86,403,3.85248,-0.0967048,0.324979,0.624998
87,402,3.84228,-0.0131722,0.283037,0.811897
88,401,3.84456,-0.0132362,0.284177,0.813854
89,400,3.84349,-0.0123929,0.283604,0.815521
90,399,3.84189,-0.0121323,0.282456,0.813273
91,398,3.84247,-0.0134716,0.283045,0.811759
92,397,3.8414,-0.0131043,0.283043,0.811752
93,396,3.84443,-0.0139174,0.283623,0.810207
94,395,3.84511,-0.0112671,0.281921,0.813966
95,394,3.84083,-0.0109479,0.280785,0.811881
96,393,3.84294,-0.0131764,0.281928,0.809268
97,392,3.84361,-0.0118286,0.281328,0.809478
98,391,3.8412,-0.0131009,0.28189,0.808009
99,390,3.84367,-0.0133905,0.283041,0.810588
100,389,3.84346,-0.0113082,0.280791,0.811614
101,388,3.8417,-0.0128236,0.281871,0.807855
102,387,3.84125,-0.0142553,0.282455,0.806906
103,386,3.84159,-0.0133369,0.280771,0.80617
104,385,3.8467,-0.0132205,0.28191,0.807522
105,384,3.84427,-0.0120226,0.281345,0.809538
106,383,3.84601,-0.0110858,0.280777,0.810361
107,382,3.84416,-0.0114132,0.281888,0.812036
108,381,3.84428,-0.0113354,0.281879,0.81238
109,380,3.8444,-0.0115858,0.281891,0.812543
110,379,3.84385,-0.0114907,0.281888,0.812714
111,378,3.84408,-0.0116093,0.281893,0.812708
112,377,3.84486,-0.0104296,0.281312,0.81316
113,376,3.84459,-0.0104937,0.281311,0.813077
114,375,3.8446,-0.0102456,0.281325,0.813075
115,374,3.84455,-0.0103083,0.281325,0.813093
116,373,3.84539,-0.00946429,0.279633,0.812255
117,372,3.84188,-0.0123642,0.280185,0.806647
118,371,3.84276,-0.0135239,0.280752,0.804946
119,370,3.84185,-0.0137002,0.280732,0.80474
120,369,3.84685,-0.0145398,0.281368,0.803771
121,368,3.84469,-0.0113672,0.280743,0.808738
122,367,3.84099,-0.0114155,0.278481,0.805527
123,366,3.84546,-0.0125455,0.279047,0.80304
124,365,3.8445,-0.0124762,0.279051,0.80341
125,364,3.8429,-0.0134898,0.279598,0.801629
126,363,3.84533,-0.0123111,0.28018,0.804965
128,362,3.84166,-0.0133621,0.27958,0.801965
129,361,3.84389,-0.0131758,0.279594,0.800752
130,360,3.84255,-0.0134569,0.279587,0.801038
131,359,3.84723,-0.0141028,0.280219,0.800181
132,358,3.84468,-0.012257,0.280166,0.80474
133,357,3.83914,-0.0125813,0.279008,0.802495
134,356,3.84225,-0.0146359,0.280162,0.799773
136,355,3.84962,-0.0166634,0.283658,0.799743
137,354,3.84018,-0.0128017,0.281877,0.808047
138,353,3.84532,-0.0123869,0.281351,0.809768
139,352,3.84473,-0.0113944,0.280768,0.810862
140,351,3.84457,-0.0111868,0.280778,0.810539
141,350,3.8447,-0.0111253,0.280767,0.81028
142,349,3.84474,-0.0116127,0.280763,0.81027
143,348,3.84443,-0.0115729,0.280756,0.810087
144,347,3.84412,-0.0112525,0.280759,0.809855
145,346,3.84416,-0.0115626,0.280739,0.809509
146,345,3.84405,-0.0116924,0.280743,0.809286
147,344,3.84394,-0.0115235,0.28074,0.80909
148,343,3.8439,-0.0115386,0.280735,0.808971
149,342,3.84495,-0.0106603,0.280164,0.809427
151,341,3.84286,-0.0121256,0.27904,0.803084
152,340,3.84241,-0.0132475,0.279597,0.801619
153,339,3.84186,-0.0135006,0.279588,0.801106
154,338,3.84799,-0.0136163,0.279633,0.801382
155,337,3.84384,-0.0123393,0.280163,0.804591
156,336,3.84027,-0.0123474,0.277897,0.800686
157,335,3.84364,-0.0133845,0.278512,0.798327
158,334,3.84317,-0.0137196,0.278485,0.798467
159,333,3.84363,-0.0142383,0.279049,0.796959
160,332,3.84515,-0.012664,0.279042,0.801414
161,331,3.8427,-0.0104774,0.276751,0.802206
162,330,3.84284,-0.0135959,0.278438,0.797403
163,329,3.84292,-0.0136964,0.278466,0.79752
164,328,3.84261,-0.0136881,0.278439,0.797363
165,327,3.84549,-0.013411,0.279581,0.799198
166,326,3.84413,-0.0128622,0.279016,0.801114
167,325,3.84292,-0.0126128,0.276757,0.797136
168,324,3.84455,-0.0133479,0.277332,0.795446
169,323,3.84394,-0.0137338,0.277325,0.795424
170,322,3.84431,-0.0150032,0.279032,0.79556
171,321,3.84432,-0.0128137,0.278999,0.800332
172,320,3.84222,-0.0108701,0.275591,0.798711
173,319,3.84486,-0.0136687,0.277316,0.795113
174,318,3.84669,-0.0139337,0.278474,0.796666
175,317,3.84671,-0.0108351,0.276775,0.800511
176,316,3.84653,-0.010477,0.276767,0.800852
177,315,3.84636,-0.0108093,0.276759,0.800638
178,314,3.84636,-0.0107374,0.276776,0.800757
179,313,3.84665,-0.0107412,0.276766,0.800918
180,312,3.84403,-0.0119955,0.27843,0.80154
181,311,3.84622,-0.0109684,0.27678,0.800839
182,310,3.84633,-0.0108138,0.276772,0.800897
183,309,3.84631,-0.0109073,0.276767,0.800857
184,308,3.84609,-0.0107997,0.27677,0.800801
185,307,3.84624,-0.0109628,0.276772,0.80065
186,306,3.84941,-0.0160274,0.280795,0.79625
189,305,3.84128,-0.0104636,0.276755,0.803632
190,304,3.84406,-0.0125281,0.277923,0.799395
191,303,3.84312,-0.013131,0.2785,0.798296
192,302,3.8404,-0.0145325,0.279057,0.796933
193,301,3.84501,-0.0127098,0.279038,0.80005
194,300,3.8437,-0.011831,0.277362,0.800645
195,299,3.84192,-0.013616,0.277357,0.795344
196,298,3.84323,-0.0138064,0.277342,0.794746
197,297,3.84385,-0.0131281,0.276226,0.792519
198,296,3.84695,-0.0145456,0.277955,0.793366
199,295,3.84429,-0.0128581,0.2779,0.797507
200,294,3.84058,-0.0124681,0.275628,0.794211
201,293,3.84437,-0.0134052,0.276217,0.791417
202,292,3.84418,-0.0139012,0.276216,0.791928
203,291,3.84464,-0.0138672,0.276208,0.791647
204,290,3.8462,-0.0127706,0.276776,0.794651
205,289,3.84392,-0.0103595,0.274502,0.795468
206,288,3.84199,-0.0149539,0.276739,0.789917
207,287,3.84415,-0.0135442,0.275072,0.788901
209,286,3.77691,-0.428037,0.473512,0.116285
210,285,3.8433,-0.0162191,0.275072,0.781456
211,284,3.84559,-0.0143137,0.275079,0.786707
212,283,3.84105,-0.013106,0.274443,0.788455
213,282,3.84147,-0.0161222,0.275039,0.782042
216,281,3.7818,-0.413614,0.464483,0.133104
217,280,3.84225,-0.0162235,0.273896,0.77986
218,279,3.84237,-0.0173435,0.275613,0.780681
220,278,3.84294,-0.0115078,0.272735,0.787681
221,277,3.84243,-0.0151305,0.273304,0.780943
222,276,3.8427,-0.0146977,0.273318,0.780496
223,275,3.84274,-0.0149881,0.27331,0.780064
224,274,3.84657,-0.0160334,0.275025,0.781396
225,273,3.84514,-0.0137961,0.273888,0.784279
226,272,3.84116,-0.013778,0.271615,0.780827
227,271,3.8429,-0.0160289,0.273857,0.778734
228,270,3.84441,-0.0146428,0.27216,0.778174
229,269,3.84208,-0.0169412,0.274451,0.777492
230,268,3.8467,-0.0134831,0.272753,0.781198
231,267,3.84466,-0.0135822,0.273858,0.78339
232,266,3.84449,-0.0138914,0.273862,0.78383
233,265,3.84483,-0.0140756,0.273879,0.784143
234,264,3.846,-0.0128053,0.2733,0.784929
235,263,3.84557,-0.0125333,0.273303,0.785187
236,262,3.84548,-0.012582,0.273305,0.785277
237,261,3.84535,-0.0131086,0.27331,0.785196
238,260,3.84636,-0.0130644,0.273309,0.785375
239,259,3.84556,-0.013002,0.273299,0.785452
240,258,3.84595,-0.0131523,0.273319,0.785502
241,257,3.8467,-0.011684,0.272742,0.786278
242,256,3.84406,-0.0107749,0.271029,0.785628
243,255,3.84333,-0.0149672,0.272169,0.777879
244,254,3.84436,-0.0150046,0.272159,0.777369
245,253,3.84288,-0.014874,0.272137,0.776932
246,252,3.84727,-0.0161754,0.273892,0.777847
247,251,3.84642,-0.0126241,0.272162,0.781659
248,250,3.8394,-0.0150135,0.272135,0.778299
249,249,3.84513,-0.0147499,0.271032,0.774387
250,248,3.84481,-0.0149957,0.271036,0.7743
251,247,3.84377,-0.0159869,0.271614,0.773334
252,246,3.8468,-0.0134055,0.271598,0.776921
253,245,3.84433,-0.0128629,0.269893,0.777844
254,244,3.84405,-0.015486,0.27049,0.770891
255,243,3.84383,-0.016374,0.270479,0.770885
256,242,3.84324,-0.0158949,0.270448,0.77019
257,241,3.8478,-0.0172727,0.272199,0.771207
258,240,3.84475,-0.0152558,0.272139,0.77579
259,239,3.84038,-0.015251,0.269868,0.772579
260,238,3.8438,-0.0168321,0.271035,0.768605
261,237,3.84324,-0.0171729,0.271028,0.769086
262,236,3.84412,-0.0163658,0.27043,0.769172
263,235,3.84584,-0.0148981,0.271006,0.772158
264,234,3.84479,-0.0140152,0.269322,0.773218
266,233,3.84894,-0.0221095,0.275676,0.766412
267,232,3.84558,-0.015005,0.272179,0.777765
268,231,3.84535,-0.0145391,0.272179,0.777719
269,230,3.84582,-0.0138469,0.271595,0.778318
270,229,3.84641,-0.0134666,0.271602,0.778058
271,228,3.84598,-0.0141291,0.271602,0.778614
272,227,3.84585,-0.0139911,0.271597,0.778386
273,226,3.84544,-0.013482,0.271587,0.777889
274,225,3.84548,-0.0139588,0.271593,0.777896
276,224,3.84566,-0.0140845,0.27159,0.778347
277,223,3.84552,-0.0141491,0.271573,0.777993
278,222,3.84533,-0.0137069,0.271582,0.777549
279,221,3.84515,-0.0130672,0.269873,0.777045
280,220,3.8424,-0.0158564,0.270416,0.77007
281,219,3.84542,-0.0145513,0.268744,0.767689
282,218,3.84382,-0.0157853,0.269321,0.76653
283,217,3.84812,-0.0173559,0.271037,0.766762
284,216,3.84767,-0.0136344,0.269319,0.771456
285,215,3.841,-0.0131981,0.268163,0.769003
286,214,3.84359,-0.0168302,0.269873,0.764603
287,213,3.84511,-0.0158386,0.268189,0.763936
289,212,3.84931,-0.0160279,0.269338,0.766698
290,211,3.84643,-0.0145957,0.269866,0.769175
292,210,3.84461,-0.0168603,0.26875,0.762904
293,209,3.84379,-0.0165643,0.268136,0.762337
294,208,3.84506,-0.0157191,0.267036,0.760416
295,207,3.84734,-0.0160294,0.269304,0.763916
297,206,3.84355,-0.0159421,0.267018,0.761444
298,205,3.84579,-0.0157231,0.26704,0.759447
299,204,3.84519,-0.0160636,0.267009,0.759952
300,203,3.84637,-0.0182657,0.268208,0.757552
301,202,3.8476,-0.014968,0.267581,0.763053
302,201,3.84259,-0.0135877,0.265844,0.762911
303,200,3.84361,-0.0183454,0.268159,0.757152
304,199,3.84515,-0.0173124,0.266472,0.756363
306,198,3.84955,-0.0158801,0.267029,0.757885
307,197,3.84539,-0.0158241,0.268141,0.761302
308,196,3.84633,-0.0145344,0.267552,0.762051
309,195,3.84637,-0.0147101,0.267564,0.762569
310,194,3.84771,-0.0136271,0.267002,0.763559
311,193,3.84752,-0.0135266,0.267013,0.764008
312,192,3.84774,-0.0137629,0.267011,0.764471
313,191,3.84759,-0.0137011,0.267015,0.764613
314,190,3.84747,-0.0137191,0.267015,0.764599
315,189,3.84845,-0.0121613,0.26645,0.764787
320,188,3.84111,-0.0144822,0.268721,0.76932
321,187,3.84431,-0.0167679,0.269888,0.765
322,186,3.84689,-0.0139663,0.267009,0.76529
323,185,3.84639,-0.0159203,0.268177,0.763413
325,184,3.84477,-0.0130824,0.268126,0.768171
326,183,3.84622,-0.0151407,0.266469,0.762339
327,182,3.84667,-0.0147166,0.266426,0.761223
328,181,3.84517,-0.0149482,0.266416,0.760164
329,180,3.84868,-0.017901,0.267624,0.758203
330,179,3.84465,-0.0163211,0.265871,0.757564
331,178,3.84411,-0.01713,0.266465,0.755231
332,177,3.84539,-0.0170903,0.266439,0.754669
333,176,3.84636,-0.0165746,0.264734,0.753897
335,175,3.84918,-0.0156687,0.265886,0.754424
336,174,3.84703,-0.0148273,0.266408,0.758803
337,173,3.84757,-0.0139716,0.265827,0.759304
338,172,3.84676,-0.0143859,0.266415,0.758679
339,171,3.84773,-0.0139401,0.265835,0.759736
341,170,3.85904,-0.0682043,0.292022,0.64773
342,169,3.84606,-0.0157471,0.268151,0.760911
343,168,3.84623,-0.0144062,0.267569,0.762155
344,167,3.8451,-0.0135728,0.264748,0.759727
345,166,3.8458,-0.0159358,0.266996,0.757512
346,165,3.84798,-0.0146403,0.266454,0.758942
347,164,3.8484,-0.0129863,0.265294,0.760808
348,163,3.849,-0.0134427,0.265888,0.760739
349,162,3.84873,-0.0122531,0.265312,0.761854
350,161,3.84717,-0.0132875,0.26473,0.758495
351,160,3.84948,-0.0139441,0.264728,0.757533
352,159,3.84922,-0.013053,0.264165,0.758191
354,158,3.84858,-0.0129647,0.265271,0.760344
355,157,3.8488,-0.0116503,0.263569,0.759798
356,156,3.84842,-0.013291,0.263581,0.754836
357,155,3.84854,-0.0134444,0.263596,0.754257
358,154,3.8486,-0.0139101,0.263568,0.754484
359,153,3.85034,-0.0141713,0.263587,0.753481
360,152,3.84805,-0.0135432,0.264694,0.756028
361,151,3.84618,-0.0121518,0.262975,0.755137
362,150,3.84832,-0.0141994,0.263548,0.752683
363,149,3.84802,-0.0141911,0.263546,0.752922
364,148,3.84924,-0.0131756,0.26186,0.751994
365,147,3.85064,-0.0140128,0.263578,0.752994
366,146,3.84984,-0.0122301,0.263024,0.754465
367,145,3.85057,-0.0118289,0.262444,0.755386
368,144,3.84959,-0.0122807,0.263026,0.75492
369,143,3.85031,-0.0124464,0.263033,0.755247
370,142,3.84832,-0.012488,0.264132,0.756779
371,141,3.84805,-0.0121139,0.264113,0.756574
372,140,3.85042,-0.0109963,0.262454,0.756032
373,139,3.85026,-0.0113242,0.262458,0.756219
374,138,3.85104,-0.0106267,0.261871,0.75627
375,137,3.8502,-0.0112694,0.262439,0.755846
376,136,3.84991,-0.0110819,0.26244,0.755543
377,135,3.85058,-0.0106684,0.261863,0.755839
378,134,3.84651,-0.0101767,0.260679,0.754398
379,133,3.84938,-0.0131227,0.260737,0.747977
380,132,3.84991,-0.013252,0.260737,0.74729
382,131,3.84937,-0.0126966,0.260728,0.747847
383,130,3.85096,-0.0122725,0.260765,0.747499
384,129,3.84879,-0.0121169,0.260152,0.748843
385,128,3.85025,-0.0130522,0.259605,0.744781
386,127,3.85126,-0.0128534,0.259636,0.744768
388,126,3.8506,-0.0131103,0.259608,0.745325
389,125,3.84984,-0.0128191,0.260737,0.746816
390,124,3.84995,-0.0108066,0.25846,0.747043
395,123,3.84865,-0.0117936,0.260167,0.750997
396,122,3.85014,-0.0132556,0.260737,0.747294
397,121,3.84956,-0.0130717,0.260721,0.747322
398,120,3.8485,-0.0140531,0.261298,0.745776
399,119,3.85083,-0.013098,0.260757,0.747355
400,118,3.85005,-0.0105975,0.258459,0.747999
401,117,3.85004,-0.0128575,0.258471,0.742155
402,116,3.85151,-0.0126864,0.258466,0.741416
403,115,3.85048,-0.0128655,0.258446,0.741651
404,114,3.85229,-0.0137044,0.259056,0.740251
405,113,3.85019,-0.0131099,0.259584,0.743444
406,112,3.85046,-0.011687,0.259008,0.744342
407,111,3.85012,-0.0118941,0.259,0.744063
408,110,3.84962,-0.0123348,0.25959,0.74322
409,109,3.8507,-0.0120793,0.259022,0.744122
410,108,3.84974,-0.0115854,0.258997,0.744477
411,107,3.85213,-0.0109125,0.257331,0.74303
412,106,3.85184,-0.0105402,0.257329,0.743035
413,105,3.85187,-0.0107898,0.257316,0.742447
414,104,3.85181,-0.0107798,0.25731,0.742293
415,103,3.85143,-0.0104167,0.257299,0.742195
416,102,3.85127,-0.0108716,0.257302,0.741735
417,101,3.85115,-0.0107117,0.257292,0.741614
418,100,3.84869,-0.0117069,0.255568,0.737259
419,99,3.8507,-0.0125708,0.256153,0.733362
420,98,3.85242,-0.0116244,0.254452,0.732731
421,97,3.85073,-0.0121986,0.255011,0.731134
422,96,3.85243,-0.0118151,0.255581,0.733504
423,95,3.85262,-0.0105926,0.253903,0.73442
424,94,3.85089,-0.011537,0.253292,0.72974
425,93,3.85204,-0.0125559,0.253834,0.727525
426,92,3.85179,-0.0124653,0.253835,0.727887
427,91,3.85226,-0.0126162,0.253853,0.72728
428,90,3.8526,-0.011464,0.254404,0.730541
429,89,3.85234,-0.0100967,0.252709,0.73121
430,88,3.85222,-0.0115655,0.25213,0.726693
431,87,3.85064,-0.012624,0.253803,0.726267
432,86,3.8522,-0.0111526,0.252124,0.725626
433,85,3.85397,-0.0119427,0.252709,0.72364
434,84,3.85246,-0.0114875,0.253261,0.727788
435,83,3.85176,-0.00926804,0.250974,0.728211
436,82,3.85151,-0.0125561,0.251555,0.721842
437,81,3.85363,-0.011151,0.250979,0.72179
440,80,3.85305,-0.0127191,0.251537,0.720254
443,79,3.84933,-0.0143821,0.251544,0.720648
444,78,3.85387,-0.0156365,0.254415,0.718747
445,77,3.85188,-0.0137306,0.253266,0.723036
446,76,3.85213,-0.0123433,0.252684,0.723575
447,75,3.85153,-0.0128424,0.252646,0.723614
448,74,3.85317,-0.0113424,0.252086,0.724061
450,73,3.85157,-0.0117147,0.252077,0.725311
451,72,3.853,-0.0116678,0.250976,0.722655
452,71,3.85284,-0.011674,0.250951,0.72204
453,70,3.8523,-0.0112947,0.250938,0.72138
454,69,3.85234,-0.0111366,0.250937,0.72088
455,68,3.8521,-0.0114697,0.250939,0.720783
458,67,3.84868,-0.00871059,0.245238,0.715112
459,66,3.85137,-0.0145382,0.24698,0.703594
460,65,3.8508,-0.0151615,0.246944,0.702205
461,64,3.85064,-0.0159817,0.246416,0.699107
464,63,3.84774,-0.0106229,0.244124,0.70368
465,62,3.85157,-0.0160992,0.245298,0.69556
468,61,3.85455,-0.0187196,0.24757,0.692907
469,60,3.85474,-0.012173,0.244675,0.699488
478,59,3.84897,-0.0180402,0.245741,0.696652
479,58,3.85066,-0.0181002,0.245763,0.69336
480,57,3.8504,-0.0189171,0.245076,0.690419
481,56,3.85165,-0.0189302,0.24498,0.688882
483,55,3.85125,-0.0136707,0.244085,0.696467
485,54,3.8529,-0.0164229,0.241689,0.687811
486,53,3.85057,-0.01832,0.24198,0.68374
487,52,3.85072,-0.0182623,0.240872,0.680814
488,51,3.85307,-0.0188426,0.244138,0.682403
490,50,3.84945,-0.0169692,0.240401,0.683587
491,49,3.85435,-0.0164922,0.240688,0.680663
492,48,3.85308,-0.0149299,0.240091,0.681758
493,47,3.85149,-0.0159019,0.23996,0.680556
494,46,3.85456,-0.0169986,0.241814,0.68137
495,45,3.85405,-0.0137899,0.240662,0.685113
496,44,3.85234,-0.0130192,0.237799,0.682493
497,43,3.8541,-0.0155763,0.238944,0.678564
498,42,3.85297,-0.0158548,0.23894,0.678015
500,41,3.85464,-0.017208,0.24066,0.677517
501,40,3.85388,-0.0144108,0.239495,0.680857
502,39,3.85438,-0.0131953,0.238931,0.681755
503,38,3.85396,-0.0132214,0.238916,0.681769
504,37,3.85311,-0.0135351,0.239505,0.681171
505,36,3.85443,-0.0132946,0.238931,0.681643
506,35,3.85451,-0.013031,0.238935,0.682564
507,34,3.85502,-0.0117836,0.238351,0.682896
508,33,3.85462,-0.0117531,0.238341,0.682766
509,32,3.85342,-0.0130933,0.238917,0.68207
510,31,3.8523,-0.013667,0.239489,0.681181
511,30,3.85516,-0.0111822,0.237209,0.680649
512,29,3.85416,-0.012989,0.237806,0.679407
513,28,3.85347,-0.0129794,0.237795,0.678803
519,27,3.85605,-0.0143067,0.234955,0.667519
520,26,3.85349,-0.0124868,0.23433,0.669849
528,25,3.85148,-0.0185587,0.23648,0.667168
529,24,3.85185,-0.017019,0.236013,0.666526
530,23,3.85332,-0.0156378,0.233104,0.66402
531,22,3.85528,-0.0181697,0.235496,0.661707
533,21,3.85098,-0.0134385,0.231818,0.663948
534,20,3.85346,-0.0186163,0.232877,0.656976
535,19,3.85312,-0.0162924,0.232528,0.656919
536,18,3.852,-0.0161033,0.232416,0.655963
537,17,3.85322,-0.0199271,0.23359,0.654212
538,16,3.85507,-0.0155911,0.232055,0.657678
539,15,3.85483,-0.0155916,0.232066,0.658261
540,14,3.85495,-0.0145864,0.231477,0.658654
541,13,3.85497,-0.0142649,0.231486,0.658583
542,12,3.85507,-0.014368,0.231481,0.658743
543,11,3.85523,-0.0142916,0.231485,0.658623
544,10,3.85514,-0.0145158,0.231487,0.658665
545,9,3.85458,-0.0140854,0.231471,0.658647
546,8,3.85439,-0.0143011,0.231473,0.658434
547,7,3.85414,-0.0143196,0.231477,0.658442
548,6,3.85439,-0.0143811,0.231474,0.658354
549,5,3.85443,-0.0138051,0.231471,0.658231
550,4,3.855,-0.0130834,0.23091,0.658433
551,3,3.85424,-0.0129553,0.2309,0.658196
552,2,3.84767,-0.01317,0.226005,0.650647
553,1,3.84934,-0.0199276,0.227493,0.639027
554,0,3.85136,-0.0205808,0.22685,0.633849
556,0,3.85287,-0.0257027,0.229967,0.631667
557,0,3.85432,-0.0185898,0.227333,0.638447
558,0,3.85065,-0.015871,0.224849,0.639101
559,0,3.85049,-0.0214348,0.226978,0.632994
560,0,3.85107,-0.0212676,0.227031,0.632546
562,0,3.85266,-0.018566,0.224763,0.635349
563,0,3.85487,-0.0182848,0.226194,0.633957
565,0,3.85064,-0.0181924,0.224831,0.633999
566,0,3.85226,-0.020381,0.225409,0.630976
567,0,3.85266,-0.0189703,0.225504,0.630043
568,0,3.85211,-0.0184635,0.224858,0.631039
569,0,3.85438,-0.0196593,0.225603,0.630132
570,0,3.85476,-0.0168071,0.224527,0.632778
571,0,3.85154,-0.015736,0.222553,0.632324
573,0,3.85612,-0.0240551,0.227152,0.624832
574,0,3.85222,-0.0200133,0.224203,0.629789
575,0,3.85517,-0.0199695,0.225677,0.630101
576,0,3.85491,-0.0164293,0.224559,0.632567
577,0,3.85393,-0.014269,0.222125,0.632438
578,0,3.85238,-0.0186493,0.223781,0.62864
579,0,3.85418,-0.0186593,0.223902,0.628294
580,0,3.85436,-0.0171074,0.223354,0.628967
582,0,3.85321,-0.0163676,0.22459,0.633001
583,0,3.85479,-0.0150232,0.224024,0.632117
584,0,3.85461,-0.0157994,0.224031,0.632953
585,0,3.85426,-0.0158445,0.224022,0.633117
586,0,3.8544,-0.0159572,0.224049,0.633145
587,0,3.85435,-0.0161569,0.224041,0.633467
588,0,3.85539,-0.0145827,0.223465,0.633845
589,0,3.85549,-0.014032,0.223463,0.633686
590,0,3.85538,-0.0146253,0.22346,0.633972
591,0,3.85492,-0.0137654,0.223444,0.633552
592,0,3.8546,-0.0141857,0.223441,0.6334
593,0,3.85549,-0.0143666,0.223467,0.633375
594,0,3.85391,-0.0143155,0.22347,0.633721
595,0,3.85342,-0.015742,0.224048,0.632347
596,0,3.85554,-0.0145503,0.222341,0.631622
597,0,3.85181,-0.0157104,0.221742,0.627628
598,0,3.85378,-0.01757,0.221195,0.622917
599,0,3.85356,-0.0174116,0.221146,0.622502
600,0,3.85345,-0.0174783,0.220001,0.620822
601,0,3.85672,-0.0171345,0.221182,0.620535
602,0,3.85392,-0.0154449,0.221702,0.624157
603,0,3.85184,-0.0142869,0.219979,0.624247
604,0,3.8514,-0.0170847,0.219879,0.618907
605,0,3.85488,-0.0175554,0.218862,0.616619
606,0,3.85405,-0.0171612,0.218882,0.615738
607,0,3.85293,-0.0185361,0.220514,0.615622
608,0,3.85389,-0.0172441,0.221173,0.619851
609,0,3.85626,-0.0147191,0.218901,0.621689
610,0,3.85262,-0.0161534,0.218311,0.618253
611,0,3.85248,-0.0173532,0.21883,0.614475
612,0,3.85354,-0.0177214,0.217656,0.613109
614,0,3.8573,-0.0176517,0.218914,0.613427
615,0,3.85369,-0.015976,0.21944,0.617893
616,0,3.8543,-0.0128029,0.216018,0.616714
621,0,3.84815,-0.0147922,0.214977,0.620653
622,0,3.85613,-0.0258168,0.219437,0.604728
626,0,3.84392,-0.0299612,0.205915,0.566358
627,0,3.84474,-0.0329332,0.204172,0.55761
629,0,3.84705,-0.0357517,0.206961,0.553296
631,0,3.84249,-0.0227665,0.194854,0.551718
632,0,3.84189,-0.035625,0.197802,0.535235
635,0,3.83853,-0.0444663,0.198484,0.520887
638,0,3.84175,-0.0288085,0.189564,0.528436
639,0,3.84055,-0.038167,0.193224,0.515076
640,0,3.8413,-0.0385391,0.19147,0.513901
648,0,3.84351,-0.0426243,0.191689,0.503887
649,0,3.84437,-0.0369784,0.189926,0.508642
650,0,3.84474,-0.0366415,0.189894,0.509097
651,0,3.84514,-0.0368911,0.189942,0.509106
652,0,3.84564,-0.0369365,0.18997,0.50934
653,0,3.84584,-0.0362893,0.189874,0.5099
654,0,3.84594,-0.0363394,0.190017,0.50998
655,0,3.8457,-0.0358273,0.190045,0.510093
656,0,3.84498,-0.0361801,0.189895,0.510018
657,0,3.8437,-0.0360828,0.189845,0.509264
658,0,3.84602,-0.0346267,0.18821,0.507607
659,0,3.84444,-0.0363834,0.18883,0.506593
660,0,3.84368,-0.0363454,0.188803,0.506019
661,0,3.84384,-0.0352598,0.188802,0.505007
662,0,3.8458,-0.0348025,0.188228,0.505985
663,0,3.84558,-0.034957,0.188222,0.506556
664,0,3.84487,-0.0353169,0.1882,0.506336
665,0,3.84438,-0.0346681,0.188179,0.505892
666,0,3.8437,-0.0366352,0.188816,0.505197
667,0,3.84364,-0.0362528,0.18879,0.505055
671,0,3.84643,-0.032329,0.186359,0.50774
672,0,3.84705,-0.0331967,0.185302,0.503322
673,0,3.84334,-0.0369763,0.186469,0.500389
675,0,3.84465,-0.0401774,0.188985,0.497704
676,0,3.84842,-0.0327549,0.185455,0.501668
678,0,3.84549,-0.0328327,0.1842,0.499897
679,0,3.84407,-0.0335954,0.184739,0.495562
680,0,3.84573,-0.0340742,0.183615,0.493801
681,0,3.8463,-0.0322985,0.181863,0.491837
682,0,3.84602,-0.035319,0.182492,0.489838
684,0,3.84498,-0.0231778,0.177697,0.499969
685,0,3.84289,-0.0354167,0.179963,0.485439
686,0,3.84092,-0.0393596,0.180079,0.479426
687,0,3.8411,-0.0389602,0.178906,0.475164
688,0,3.84003,-0.0414496,0.1795,0.472753
689,0,3.84001,-0.040968,0.178268,0.47089
690,0,3.84141,-0.0429479,0.180159,0.470064
691,0,3.84192,-0.0392022,0.177838,0.471504
692,0,3.84278,-0.0381152,0.177192,0.47068
693,0,3.83991,-0.0379414,0.173555,0.465682
694,0,3.83915,-0.0417664,0.172953,0.457324
695,0,3.83812,-0.0410004,0.169573,0.450352
696,0,3.83674,-0.045081,0.168972,0.443951
697,0,3.83419,-0.0489593,0.170131,0.440923
698,0,3.83812,-0.0469549,0.169713,0.44097
699,0,3.83522,-0.0464034,0.169662,0.441299
700,0,3.83527,-0.0445583,0.16554,0.436736
701,0,3.83156,-0.0499587,0.165665,0.428749
702,0,3.83294,-0.0502457,0.16451,0.424408
703,0,3.83352,-0.0507723,0.163404,0.421487
704,0,3.83182,-0.0514663,0.163365,0.42017
705,0,3.833,-0.052562,0.162246,0.417178
706,0,3.83245,-0.0512839,0.164076,0.416648
707,0,3.83121,-0.0528336,0.164075,0.418911
708,0,3.83463,-0.0461439,0.158104,0.415959
709,0,3.83061,-0.0510158,0.16,0.409841
710,0,3.83224,-0.0510033,0.158206,0.407484
711,0,3.83332,-0.050227,0.157101,0.40529
712,0,3.82947,-0.0543611,0.1577,0.403419
713,0,3.83139,-0.0520418,0.155806,0.401277
714,0,3.83111,-0.0527023,0.154795,0.398721
715,0,3.82826,-0.0549167,0.155286,0.39694
716,0,3.82912,-0.0500313,0.1536,0.394185
717,0,3.82928,-0.050962,0.152454,0.391218
721,0,3.82909,-0.0461894,0.147158,0.389337
722,0,3.8227,-0.0514459,0.145933,0.378558
723,0,3.82182,-0.0562582,0.144438,0.36902
725,0,3.81964,-0.0597644,0.142761,0.359291
726,0,3.8222,-0.0596631,0.142809,0.357193
728,0,3.82659,-0.0464918,0.137341,0.361728
729,0,3.81843,-0.0542422,0.136177,0.350326
730,0,3.81834,-0.0583573,0.134577,0.341392
731,0,3.81639,-0.0593328,0.132191,0.334392
732,0,3.81085,-0.0618838,0.130506,0.327372
735,0,3.81099,-0.071883,0.131424,0.315959
736,0,3.81099,-0.0689768,0.131966,0.321568
737,0,3.81623,-0.0594563,0.128844,0.322722
738,0,3.81495,-0.0597738,0.128844,0.321214
739,0,3.80924,-0.0564619,0.122775,0.3157
740,0,3.80687,-0.0628723,0.121865,0.302811
741,0,3.80611,-0.0657216,0.120706,0.299027
748,0,3.80774,-0.0609477,0.116087,0.29105
749,0,3.80392,-0.062636,0.113696,0.285472
774,0,3.78719,-0.0558655,0.078775,0.201445
775,0,3.78354,-0.0667276,0.0799998,0.193815
776,0,3.7807,-0.061235,0.0752147,0.191578
777,0,3.78104,-0.0617076,0.0740765,0.181968
784,0,3.78489,-0.0583397,0.0712475,0.17781
788,0,3.79647,-0.0421583,0.0614519,0.168966
793,0,3.78058,-0.0730394,0.0661363,0.150428
795,0,3.79124,-0.0651402,0.0639231,0.152204
796,0,3.79118,-0.0533511,0.0614941,0.155048
802,0,3.79925,-0.0395801,0.0586459,0.156872
803,0,3.79762,-0.0530783,0.0575383,0.146035
804,0,3.79423,-0.0579789,0.0580982,0.14319
805,0,3.79451,-0.0546135,0.0563219,0.141643
806,0,3.79666,-0.0573199,0.0563315,0.138406
807,0,3.80266,-0.0427666,0.0528267,0.136767
808,0,3.80036,-0.0524776,0.0522284,0.131591
809,0,3.80677,-0.0408836,0.0476411,0.125672
810,0,3.80783,-0.0531003,0.0470735,0.117734
811,0,3.80875,-0.0535972,0.0470729,0.115746
812,0,3.80118,-0.0562062,0.0457868,0.115256
813,0,3.7978,-0.0613131,0.0474839,0.111844
814,0,3.8081,-0.0562438,0.0458161,0.11401
815,0,3.81692,-0.0506404,0.0443167,0.11114
816,0,3.80608,-0.0536932,0.0458071,0.110262
817,0,3.81728,-0.0434853,0.0425252,0.11023
818,0,3.80744,-0.0572941,0.0434778,0.104687
819,0,3.83112,-0.0892764,0.0429893,0.103939
820,0,3.85449,-0.0347287,0.033149,0.0966175
821,0,3.85043,-0.0542933,0.0317148,0.0815304
822,0,3.82607,-0.082156,0.0341226,0.0759738
823,0,3.86073,-0.0540051,0.0302042,0.075794
824,0,3.8415,-0.0677975,0.0308919,0.072885
825,0,3.85285,-0.0588069,0.02934,0.069172
826,0,3.85449,-0.0645203,0.0280958,0.0679743
827,0,3.86105,-0.0555443,0.026362,0.0631415