File: calce_correlation_analysis/matrices/CALCE_CX2_36_cycle_feature_matrix.csv
cycle_number,rul,voltage,current,capacity,charge_capacity
6,520,3.82124,-0.0488335,0.248022,0.893665
8,518,3.82377,-0.0565319,0.249818,0.878637
10,516,3.82533,-0.056941,0.247667,0.871905
13,514,3.82026,-0.0513802,0.245509,0.878353
15,512,3.82423,-0.0575557,0.247857,0.870117
17,510,3.82702,-0.0649019,0.25249,0.86584
19,508,3.82586,-0.0497662,0.245427,0.877975
21,506,3.82687,-0.0577959,0.244342,0.862859
25,504,3.82512,-0.0600787,0.250196,0.869062
27,502,3.82403,-0.0562038,0.249642,0.873479
29,500,3.82417,-0.0562608,0.249602,0.873128
31,498,3.82344,-0.0561363,0.249328,0.872471
33,496,3.8238,-0.0563433,0.249754,0.872593
35,494,3.82388,-0.0564849,0.249458,0.87228
37,492,3.82286,-0.0564584,0.249612,0.871348
39,490,3.82413,-0.0529905,0.245857,0.87054
41,488,3.82631,-0.0564033,0.242727,0.856177
43,486,3.82639,-0.0575597,0.241686,0.848941
46,484,3.82469,-0.0531345,0.244242,0.86468
51,482,3.83011,-0.0646069,0.248013,0.850864
58,480,3.82489,-0.0579291,0.245357,0.862209
60,478,3.82203,-0.0544869,0.244717,0.861703
62,476,3.82596,-0.058635,0.243492,0.855002
64,474,3.82458,-0.061313,0.242402,0.846889
66,472,3.82416,-0.0634326,0.242643,0.843448
68,470,3.82793,-0.0618474,0.240754,0.838633
70,468,3.8261,-0.057804,0.237578,0.837908
72,466,3.82635,-0.0641212,0.239607,0.83606
74,464,3.82554,-0.0663504,0.241164,0.833998
76,462,3.8241,-0.0642524,0.241432,0.834857
78,460,3.82726,-0.0611213,0.238858,0.832372
80,458,3.82783,-0.0607352,0.238348,0.833039
82,456,3.82587,-0.0632107,0.239353,0.829151
84,454,3.82563,-0.063469,0.239187,0.829354
86,452,3.82471,-0.0653846,0.239992,0.825993
88,450,3.82476,-0.068494,0.239394,0.826953
90,448,3.82394,-0.0617938,0.234972,0.824606
96,446,3.8287,-0.0630795,0.236774,0.823456
100,444,3.82302,-0.062909,0.235532,0.828194
102,442,3.82631,-0.0679731,0.238854,0.821879
104,440,3.82643,-0.0684444,0.239116,0.815628
106,438,3.82666,-0.0621931,0.238548,0.82843
108,436,3.82591,-0.0650145,0.235455,0.81425
110,434,3.82731,-0.0625027,0.23205,0.811082
112,432,3.82626,-0.0643244,0.237764,0.818596
114,430,3.82529,-0.0635298,0.231621,0.809842
116,428,3.8262,-0.0653583,0.234005,0.80651
119,426,3.82787,-0.0631125,0.234774,0.814503
121,424,3.82808,-0.0646778,0.237276,0.817133
123,422,3.82793,-0.0608306,0.236411,0.822492
125,420,3.8258,-0.0623541,0.239008,0.825996
127,418,3.82559,-0.0627647,0.238727,0.825924
129,416,3.82539,-0.0625588,0.238855,0.825366
131,414,3.82653,-0.060892,0.237994,0.828415
133,412,3.82638,-0.0606152,0.238214,0.828284
139,410,3.82909,-0.0757945,0.240682,0.803761
141,408,3.82212,-0.0555399,0.230212,0.81605
148,406,3.82628,-0.0542893,0.232605,0.825679
150,404,3.82496,-0.0667679,0.236163,0.811043
152,402,3.82697,-0.0588886,0.229741,0.808194
154,400,3.82622,-0.0647072,0.237215,0.818029
160,398,3.82933,-0.0711008,0.237939,0.803873
162,396,3.82615,-0.0629922,0.235203,0.812669
164,394,3.82752,-0.0607334,0.23437,0.815023
166,392,3.82551,-0.0630124,0.236457,0.818918
168,390,3.8245,-0.0625498,0.237036,0.818355
170,388,3.82227,-0.0630553,0.239639,0.819725
172,386,3.82487,-0.0629011,0.23687,0.818051
174,384,3.82623,-0.0626988,0.236799,0.817826
176,382,3.82403,-0.053591,0.228791,0.817622
178,380,3.82755,-0.0639705,0.230011,0.799657
180,378,3.82609,-0.0621407,0.228668,0.795915
183,376,3.82563,-0.0522493,0.225754,0.807743
185,374,3.82719,-0.0671208,0.22951,0.790673
187,372,3.8273,-0.0634809,0.227172,0.789454
189,370,3.82766,-0.0643638,0.232981,0.804591
195,368,3.83898,-0.0786406,0.235186,0.785229
201,366,3.8304,-0.0693332,0.236812,0.805704
203,364,3.82515,-0.0630364,0.23666,0.818365
205,362,3.82509,-0.0633153,0.236819,0.817957
207,360,3.8224,-0.0630808,0.239693,0.818683
209,358,3.82443,-0.0632562,0.237085,0.817041
211,356,3.82583,-0.0613169,0.236092,0.819953
213,354,3.82661,-0.0614321,0.2352,0.819857
215,352,3.82599,-0.0636832,0.235709,0.81658
217,350,3.8274,-0.0597153,0.233895,0.815116
219,348,3.82478,-0.0557444,0.229771,0.813957
221,346,3.82683,-0.0642615,0.230142,0.7978
223,344,3.82517,-0.0645026,0.229066,0.791199
225,342,3.82762,-0.0622472,0.232478,0.805676
227,340,3.8236,-0.0622403,0.228315,0.793071
229,338,3.8271,-0.0649253,0.229136,0.790687
234,336,3.82316,-0.0568821,0.223613,0.796145
236,334,3.82867,-0.0655629,0.225621,0.783861
238,332,3.82536,-0.0672265,0.226415,0.781669
241,330,3.82171,-0.0593681,0.224577,0.791719
243,328,3.82629,-0.0681728,0.228054,0.781542
245,326,3.83642,-0.0790567,0.231329,0.772213
248,324,3.83574,-0.139567,0.250348,0.697842
252,322,3.82147,-0.0603406,0.226043,0.793096
254,320,3.82796,-0.0632911,0.224428,0.783206
257,318,3.82944,-0.0624975,0.223411,0.783116
259,316,3.82856,-0.0733274,0.23187,0.781407
263,314,3.82773,-0.0669819,0.22543,0.777771
265,312,3.82611,-0.0679572,0.226026,0.77555
267,310,3.82545,-0.0695012,0.230207,0.785245
274,308,3.82994,-0.0721364,0.22905,0.775515
276,306,3.82697,-0.0655529,0.227275,0.78303
278,304,3.82783,-0.0636125,0.226745,0.785825
280,302,3.82625,-0.0652393,0.22896,0.789104
283,300,3.82465,-0.0630589,0.227975,0.792645
285,298,3.8229,-0.0651175,0.232321,0.789955
287,296,3.82559,-0.0658733,0.229257,0.78811
289,294,3.82738,-0.0633488,0.227736,0.790935
292,292,3.82915,-0.0649158,0.220933,0.766633
294,290,3.82646,-0.064736,0.220752,0.766478
298,288,3.82079,-0.0583974,0.218948,0.773354
300,286,3.82814,-0.0669028,0.22119,0.763397
303,284,3.8327,-0.0691171,0.224168,0.765534
305,282,3.82578,-0.054422,0.215873,0.770453
307,280,3.83064,-0.0662421,0.219801,0.771972
313,278,3.82708,-0.0655084,0.220849,0.766598
317,276,3.82673,-0.0663288,0.225215,0.777192
319,274,3.82661,-0.0661899,0.225547,0.776398
321,272,3.82757,-0.0639892,0.224869,0.778331
323,270,3.82727,-0.0642952,0.224925,0.778195
325,268,3.82724,-0.063941,0.22451,0.777931
327,266,3.82749,-0.064317,0.224597,0.777757
329,264,3.82707,-0.0641484,0.224852,0.777498
331,262,3.82683,-0.0644901,0.224924,0.777031
333,260,3.8251,-0.0659382,0.219113,0.759098
337,258,3.83048,-0.0758455,0.224063,0.75297
340,256,3.82637,-0.0613084,0.215965,0.758199
342,254,3.82815,-0.0653934,0.215577,0.752413
344,252,3.82766,-0.0719871,0.22105,0.750179
349,250,3.82652,-0.0680028,0.216097,0.750548
351,248,3.82443,-0.0662926,0.21883,0.746701
354,246,3.82576,-0.0612166,0.216501,0.763042
356,244,3.83288,-0.0726191,0.218674,0.745084
359,242,3.82991,-0.0720814,0.221288,0.753695
361,240,3.82733,-0.0591208,0.215271,0.759205
366,238,3.82826,-0.0785801,0.221863,0.743931
368,236,3.82896,-0.0654794,0.21901,0.757181
370,234,3.82524,-0.0699624,0.222292,0.758239
372,232,3.82707,-0.0652726,0.220911,0.76343
374,230,3.82775,-0.0653897,0.220953,0.763207
376,228,3.82576,-0.0651403,0.223095,0.763951
378,226,3.82832,-0.0658675,0.220713,0.762676
380,224,3.82594,-0.0674425,0.223082,0.76662
382,222,3.82903,-0.0633328,0.220523,0.765215
384,220,3.82598,-0.0670172,0.215571,0.74452
390,218,3.8301,-0.0597496,0.214973,0.758036
392,216,3.82741,-0.0711798,0.216645,0.738622
394,214,3.8266,-0.0686989,0.215732,0.741542
398,212,3.82507,-0.0625321,0.213083,0.750159
400,210,3.8257,-0.0688097,0.216005,0.742113
402,208,3.82908,-0.0650902,0.21233,0.740148
406,206,3.8376,-0.0783868,0.215056,0.734835
408,204,3.82654,-0.0572981,0.210911,0.74648
411,202,3.82699,-0.0692253,0.21412,0.736529
413,200,3.82674,-0.0694515,0.213546,0.735897
416,198,3.82914,-0.0682702,0.216992,0.747824
418,196,3.82473,-0.0705582,0.220138,0.751343
420,194,3.82948,-0.0638655,0.216454,0.752804
423,192,3.83446,-0.201443,0.25529,0.603033
425,190,3.82668,-0.0698371,0.22105,0.758313
427,188,3.82394,-0.0641323,0.216602,0.754269
429,186,3.82827,-0.0663855,0.217358,0.75093
431,184,3.82848,-0.064355,0.216877,0.752386
435,182,3.82518,-0.0657728,0.217242,0.74961
438,180,3.82742,-0.0641706,0.216659,0.7522
440,178,3.82657,-0.0680883,0.22101,0.760119
443,176,3.82775,-0.0688236,0.216819,0.746769
445,174,3.82568,-0.0690267,0.217646,0.746663
447,172,3.82915,-0.0707827,0.220272,0.749516
449,170,3.82463,-0.0600314,0.214558,0.756255
451,168,3.82787,-0.0688703,0.215806,0.746425
454,166,3.82929,-0.0704109,0.220205,0.750239
456,164,3.82894,-0.0638049,0.218129,0.757886
458,162,3.82928,-0.0643185,0.21825,0.757837
460,160,3.82671,-0.0662997,0.220869,0.761195
462,158,3.82734,-0.0661313,0.220712,0.761232
464,156,3.82784,-0.0637272,0.220259,0.763969
466,154,3.82829,-0.0638974,0.220059,0.764226
468,152,3.82739,-0.0641205,0.220726,0.763746
470,150,3.82394,-0.0713332,0.223955,0.766242
475,148,3.82873,-0.065785,0.217367,0.749396
478,146,3.82628,-0.058142,0.212883,0.753543
480,144,3.82799,-0.0664413,0.217108,0.748667
482,142,3.82691,-0.0659567,0.215514,0.748272
484,140,3.82783,-0.0665658,0.219161,0.754712
486,138,3.82789,-0.064948,0.214257,0.744505
488,136,3.8266,-0.06699,0.216798,0.747897
490,134,3.82717,-0.0729617,0.220818,0.74685
493,132,3.82578,-0.0600757,0.213504,0.750301
495,130,3.82836,-0.0648678,0.214485,0.744577
497,128,3.8277,-0.0668521,0.215449,0.741195
500,126,3.82029,-0.060538,0.216347,0.750348
502,124,3.82701,-0.0669831,0.2154,0.741603
505,122,3.83145,-0.0686537,0.217642,0.744862
507,120,3.82882,-0.0647071,0.216701,0.750188
509,118,3.82647,-0.0663295,0.219167,0.754122
511,116,3.8274,-0.0665698,0.219362,0.753566
513,114,3.82692,-0.0668027,0.218992,0.75368
515,112,3.82622,-0.0664643,0.219336,0.753461
517,110,3.82706,-0.0665012,0.218876,0.753555
519,108,3.82909,-0.0639778,0.217433,0.75635
521,106,3.82777,-0.0642622,0.218383,0.756357
525,104,3.82806,-0.0679451,0.217785,0.746053
528,102,3.82511,-0.0605476,0.213554,0.750432
530,100,3.82636,-0.0666406,0.215346,0.741364
532,98,3.82643,-0.0663474,0.214591,0.740802
534,96,3.82906,-0.064507,0.216976,0.750005
536,94,3.82579,-0.0670177,0.214949,0.74071
538,92,3.82683,-0.067157,0.215394,0.740699
540,90,3.82816,-0.0737794,0.219285,0.739892
544,88,3.82851,-0.0681572,0.213554,0.73485
546,86,3.82344,-0.0634136,0.210279,0.732943
549,84,3.82816,-0.0674831,0.215464,0.740107
556,82,3.83008,-0.0679151,0.21306,0.733674
558,80,3.82739,-0.0675829,0.215179,0.740139
560,78,3.82938,-0.0676805,0.215342,0.739831
563,76,3.82872,-0.063002,0.213975,0.746886
566,74,3.82755,-0.0645604,0.214534,0.743681
568,72,3.82888,-0.0652959,0.214413,0.742654
570,70,3.82847,-0.0654447,0.214859,0.74216
572,68,3.82847,-0.0653779,0.214842,0.742098
576,66,3.82782,-0.069359,0.215941,0.738945
578,64,3.82945,-0.0624845,0.204764,0.721664
580,62,3.82826,-0.0663947,0.206912,0.718261
582,60,3.83134,-0.0738409,0.210679,0.715553
586,58,3.83123,-0.0661975,0.204026,0.712674
589,56,3.73533,-0.680977,0.377156,0.253761
591,54,3.82765,-0.0670583,0.204114,0.711291
596,52,3.8298,-0.0681727,0.205468,0.710513
598,50,3.82637,-0.0697409,0.20569,0.708379
602,48,3.82431,-0.0600055,0.204469,0.723453
605,46,3.83029,-0.0619068,0.200875,0.712888
607,44,3.82709,-0.0745532,0.206845,0.703216
611,42,3.82826,-0.0702522,0.205755,0.706611
613,40,3.82784,-0.0696915,0.205726,0.707119
615,38,3.82971,-0.0780609,0.212115,0.710763
619,36,3.82951,-0.0693401,0.20571,0.70672
622,34,3.82841,-0.0700101,0.205871,0.707126
624,32,3.8284,-0.0688972,0.209597,0.719681
626,30,3.82981,-0.0665561,0.208643,0.722095
628,28,3.82617,-0.0708881,0.211952,0.723448
630,26,3.82452,-0.0674489,0.214646,0.726792
632,24,3.8281,-0.0683713,0.211205,0.726175
634,22,3.82735,-0.0677602,0.21156,0.725663
636,20,3.82751,-0.0682239,0.210531,0.726755
638,18,3.82913,-0.066345,0.209281,0.721848
642,16,3.82755,-0.0725862,0.212796,0.72173
644,14,3.82728,-0.0606066,0.202076,0.718307
646,12,3.82705,-0.0736731,0.20622,0.708499
648,10,3.83001,-0.0653933,0.202726,0.706317
651,8,3.82605,-0.0602624,0.202909,0.71637
653,6,3.83031,-0.0687744,0.203188,0.702691
655,4,3.82978,-0.0681962,0.202698,0.702761
659,2,3.8261,-0.0618508,0.201118,0.710679
661,0,3.82898,-0.0704088,0.203074,0.700107
663,0,3.82822,-0.0659922,0.200926,0.698731
666,0,3.82704,-0.0594161,0.200547,0.71054
668,0,3.83106,-0.0685109,0.20156,0.695391
670,0,3.82826,-0.0685279,0.201757,0.695536
672,0,3.82917,-0.0703244,0.206112,0.706075
674,0,3.82916,-0.0677247,0.205544,0.708506
677,0,3.82735,-0.0692295,0.206493,0.714017
679,0,3.82716,-0.0687356,0.207867,0.711666
681,0,3.82758,-0.0697417,0.207858,0.71214
683,0,3.82991,-0.0685418,0.206417,0.711128
685,0,3.82938,-0.0675168,0.207096,0.714979
687,0,3.82965,-0.0671793,0.207295,0.714458
691,0,3.83109,-0.0821689,0.206521,0.690423
693,0,3.82894,-0.0700293,0.205871,0.707126
695,0,3.82712,-0.0732973,0.202497,0.690472
697,0,3.82975,-0.0702924,0.201032,0.693925
701,0,3.82682,-0.0614039,0.199188,0.703148
703,0,3.83263,-0.0648621,0.198516,0.692784
705,0,3.82789,-0.0707735,0.201371,0.691692
707,0,3.83149,-0.0666821,0.202577,0.70252
709,0,3.82573,-0.0641561,0.19769,0.694807
711,0,3.83054,-0.0690011,0.197964,0.688662
714,0,3.82955,-0.0738173,0.202956,0.692047
716,0,3.82933,-0.0709472,0.203696,0.698455
718,0,3.82678,-0.0710963,0.201734,0.691483
720,0,3.82868,-0.0682835,0.201735,0.693782
722,0,3.82917,-0.074626,0.206727,0.698336
724,0,3.82735,-0.0693679,0.205912,0.703923
726,0,3.82908,-0.0705109,0.204551,0.704363
728,0,3.82998,-0.0675475,0.204691,0.706737
730,0,3.82975,-0.0682669,0.205022,0.707006
733,0,3.8311,-0.0651058,0.204021,0.709499
735,0,3.83014,-0.0654873,0.204988,0.709772
737,0,3.82741,-0.0695767,0.206432,0.7105
739,0,3.83889,-0.0851002,0.20668,0.694298
741,0,3.83023,-0.0754596,0.207711,0.705378
743,0,3.82936,-0.0669838,0.206864,0.71486
745,0,3.82999,-0.066876,0.202352,0.701863
747,0,3.82904,-0.0681732,0.203395,0.700501
751,0,3.82971,-0.0623486,0.203718,0.712131
753,0,3.82995,-0.0684759,0.202308,0.700387
755,0,3.82936,-0.0683236,0.2027,0.699861
759,0,3.82942,-0.0583409,0.20033,0.710062
763,0,3.83039,-0.051495,0.199193,0.718809
768,0,3.82614,-0.0589879,0.196553,0.698969
770,0,3.8289,-0.070471,0.197466,0.679122
775,0,3.82913,-0.0577901,0.194689,0.693329
777,0,3.82871,-0.0731368,0.196595,0.671177
779,0,3.83128,-0.0702719,0.193384,0.669027
783,0,3.82795,-0.0561652,0.190128,0.681557
785,0,3.83011,-0.0722598,0.193671,0.667354
787,0,3.82742,-0.0702412,0.193771,0.663882
793,0,3.83035,-0.0775488,0.193683,0.656086
795,0,3.8306,-0.0686061,0.19326,0.66929
797,0,3.8319,-0.0703666,0.193076,0.66732
799,0,3.82999,-0.0725352,0.195195,0.671092
801,0,3.82898,-0.0716483,0.195831,0.671169
803,0,3.82939,-0.0724963,0.195406,0.670915
805,0,3.83122,-0.0688523,0.193253,0.668667
807,0,3.83209,-0.0706938,0.192877,0.666745
809,0,3.83202,-0.0682848,0.193192,0.668083
811,0,3.83079,-0.0690743,0.193779,0.668396
813,0,3.83211,-0.070176,0.196735,0.680809
815,0,3.83343,-0.0667567,0.19373,0.677721
817,0,3.83133,-0.0698246,0.195008,0.674555
819,0,3.83088,-0.068341,0.19605,0.680726
821,0,3.83155,-0.0654311,0.194619,0.677972
823,0,3.82994,-0.0707393,0.195441,0.67234
825,0,3.83014,-0.0699564,0.19526,0.673499
828,0,3.82856,-0.0632695,0.192181,0.674116
830,0,3.83053,-0.0731669,0.191883,0.664919
832,0,3.83136,-0.071065,0.190992,0.661287
834,0,3.83266,-0.0723733,0.19218,0.658925
836,0,3.83178,-0.0710947,0.191424,0.660408
838,0,3.83141,-0.0699628,0.189555,0.655724
840,0,3.82859,-0.0741867,0.189743,0.652839
842,0,3.82998,-0.0772391,0.190779,0.649778
844,0,3.82825,-0.0769312,0.190151,0.649219
846,0,3.83017,-0.0748296,0.188095,0.646226
848,0,3.82791,-0.0753506,0.188461,0.645817
850,0,3.83004,-0.0764671,0.187999,0.643321
852,0,3.82581,-0.0744219,0.190913,0.646057
854,0,3.83126,-0.0744232,0.186465,0.645227
856,0,3.82803,-0.0774251,0.188447,0.642145
858,0,3.83168,-0.0728255,0.18517,0.641026
860,0,3.83172,-0.0727961,0.185776,0.641222
862,0,3.84057,-0.109411,0.198468,0.625314
864,0,3.83004,-0.0731719,0.189537,0.652571
866,0,3.83287,-0.0722589,0.187387,0.648561
873,0,3.8311,-0.0673051,0.184632,0.650322
875,0,3.8299,-0.0763927,0.186115,0.639423
877,0,3.83119,-0.0759892,0.186118,0.638808
879,0,3.83345,-0.0725354,0.185612,0.64125
881,0,3.83177,-0.0783937,0.183183,0.636635
883,0,3.83093,-0.075854,0.183644,0.632492
885,0,3.8329,-0.0736625,0.183693,0.635067
887,0,3.8308,-0.0732311,0.183758,0.634423
889,0,3.83121,-0.0753995,0.182901,0.632347
891,0,3.82686,-0.0786849,0.185168,0.629547
893,0,3.83145,-0.0742584,0.181699,0.628574
895,0,3.82858,-0.0832722,0.190393,0.635831
897,0,3.83058,-0.075022,0.187737,0.644263
899,0,3.83135,-0.0720726,0.187465,0.646571
901,0,3.8311,-0.0707937,0.187892,0.647904
903,0,3.8311,-0.0748432,0.188069,0.650501
905,0,3.82845,-0.0747334,0.189903,0.65057
907,0,3.82836,-0.0730633,0.189724,0.650524
909,0,3.82862,-0.079811,0.184845,0.628589
911,0,3.83137,-0.074824,0.180755,0.627404
913,0,3.82942,-0.0837565,0.187039,0.637383
915,0,3.83172,-0.0746878,0.181342,0.628779
917,0,3.82941,-0.0779455,0.184945,0.629052
919,0,3.83088,-0.0765095,0.184855,0.631538
921,0,3.82883,-0.0721342,0.184029,0.633719
923,0,3.833,-0.0713669,0.180703,0.630202
925,0,3.8291,-0.0771961,0.181904,0.625204
927,0,3.83143,-0.0756283,0.179438,0.620396
932,0,3.82674,-0.0783944,0.186568,0.635193
934,0,3.82635,-0.0816925,0.187007,0.632293
937,0,3.82864,-0.0789144,0.184901,0.629053
939,0,3.83215,-0.0751216,0.184649,0.63144
941,0,3.82867,-0.0813121,0.185625,0.632418
943,0,3.82719,-0.0778133,0.185193,0.629501
945,0,3.83066,-0.0779131,0.181798,0.625463
947,0,3.82923,-0.079788,0.185057,0.628881
949,0,3.82709,-0.077789,0.185069,0.628144
951,0,3.82795,-0.084075,0.182489,0.624414
953,0,3.82916,-0.0783391,0.180509,0.619338
955,0,3.8314,-0.0749367,0.180014,0.621643
957,0,3.82942,-0.0765549,0.180421,0.618751
959,0,3.8273,-0.078778,0.181529,0.61556
961,0,3.82745,-0.0781814,0.180919,0.61563
963,0,3.82879,-0.0782065,0.180219,0.618873
965,0,3.82804,-0.0782157,0.18029,0.618169
967,0,3.82947,-0.0787342,0.178786,0.612525
969,0,3.83,-0.0772905,0.178605,0.611724
971,0,3.82869,-0.0782283,0.179099,0.612586
973,0,3.82673,-0.081437,0.179641,0.609534
975,0,3.82755,-0.0821675,0.178911,0.609585
977,0,3.82718,-0.0795971,0.178796,0.608842
981,0,3.83647,-0.126628,0.193496,0.58976
983,0,3.83084,-0.0821087,0.184565,0.627241
987,0,3.82779,-0.0751311,0.182699,0.625627
989,0,3.83184,-0.0773491,0.18065,0.619223
991,0,3.82816,-0.0807408,0.181632,0.616956
993,0,3.82743,-0.0799741,0.181091,0.617142
995,0,3.83047,-0.0787486,0.178073,0.613517
997,0,3.82941,-0.0806215,0.179156,0.610034
999,0,3.83077,-0.0817273,0.177077,0.610269
1002,0,3.8291,-0.0811114,0.177612,0.613483
1004,0,3.83141,-0.0842098,0.17939,0.608108
1008,0,3.82846,-0.0788584,0.178087,0.613074
1010,0,3.82806,-0.0840413,0.179549,0.61438
1012,0,3.8301,-0.0770501,0.178986,0.611992
1014,0,3.8286,-0.083531,0.179925,0.613325
1016,0,3.83024,-0.0771176,0.177142,0.611441
1018,0,3.82644,-0.0823461,0.177749,0.602358
1020,0,3.83167,-0.0777482,0.174866,0.60545
1022,0,3.83181,-0.0797597,0.175064,0.605022
1024,0,3.82769,-0.0820989,0.177115,0.602082
1027,0,3.82943,-0.0800524,0.174925,0.601931
1029,0,3.82722,-0.085768,0.17818,0.599876
1031,0,3.83747,-0.115033,0.189089,0.591799
1033,0,3.83103,-0.0744389,0.178151,0.614312
1035,0,3.8293,-0.0780145,0.178416,0.611591
1037,0,3.83236,-0.0780188,0.178204,0.611073
1039,0,3.83032,-0.075854,0.177737,0.613312
1041,0,3.83011,-0.0772967,0.176679,0.60749
1043,0,3.83039,-0.0763196,0.175849,0.607212
1045,0,3.82852,-0.0800749,0.176523,0.604471
1047,0,3.82484,-0.0772461,0.179629,0.60484
1049,0,3.82756,-0.0780159,0.174458,0.601065
1051,0,3.82803,-0.0797547,0.174836,0.598049
1053,0,3.82987,-0.0776857,0.172935,0.593633
1055,0,3.82773,-0.0788036,0.17528,0.596772
1057,0,3.83073,-0.0751441,0.171931,0.596329
1059,0,3.82992,-0.0785941,0.172782,0.593626
1061,0,3.82831,-0.0811593,0.175324,0.597709
1063,0,3.82707,-0.0784736,0.174844,0.596256
1065,0,3.82909,-0.0787482,0.172886,0.593918
1067,0,3.82737,-0.080655,0.173061,0.591046
1069,0,3.82972,-0.079513,0.173274,0.590541
1071,0,3.82703,-0.0824079,0.173834,0.586899
1073,0,3.8272,-0.082487,0.171627,0.584112
1075,0,3.82916,-0.0819582,0.170425,0.584623
1077,0,3.83047,-0.088023,0.172168,0.586045
1079,0,3.83008,-0.0825701,0.173572,0.587175
1081,0,3.83693,-0.118803,0.183712,0.571535
1083,0,3.82711,-0.0846183,0.174951,0.590869
1085,0,3.82891,-0.0806416,0.17318,0.590676
1087,0,3.82955,-0.0894717,0.17628,0.589626
1090,0,3.83101,-0.0685234,0.168837,0.594199
1092,0,3.82993,-0.082963,0.171162,0.587719
1094,0,3.82836,-0.0825563,0.171559,0.584079
1096,0,3.82956,-0.0810925,0.172914,0.590803
1098,0,3.82931,-0.0800978,0.172671,0.590184
1100,0,3.82832,-0.0793374,0.172821,0.589794
1102,0,3.82904,-0.0809995,0.173618,0.590962
1104,0,3.83233,-0.0758282,0.17078,0.595855
1106,0,3.82867,-0.0836669,0.172561,0.590885
1108,0,3.82375,-0.0741813,0.171559,0.582352
1110,0,3.82736,-0.0889168,0.171825,0.578376
1112,0,3.82883,-0.0848632,0.172145,0.580748
1114,0,3.82943,-0.073773,0.167374,0.58191
1116,0,3.82609,-0.084774,0.169996,0.572736
1118,0,3.82787,-0.0848077,0.170531,0.573404
1122,0,3.82907,-0.0784215,0.169205,0.578254
1124,0,3.82983,-0.0803539,0.167279,0.572163
1126,0,3.82652,-0.0870965,0.170082,0.57402
1131,0,3.83473,-0.148515,0.189038,0.553883
1134,0,3.82819,-0.0710229,0.169067,0.590645
1136,0,3.8289,-0.0830354,0.170751,0.583268
1138,0,3.83178,-0.0764049,0.168125,0.582382
1140,0,3.82715,-0.0844452,0.173953,0.587209
1142,0,3.82895,-0.0723839,0.167655,0.584303
1144,0,3.82789,-0.0838854,0.16896,0.577058
1146,0,3.83021,-0.0836161,0.16859,0.576906
1148,0,3.82718,-0.0815635,0.171087,0.583584
1150,0,3.82757,-0.0806798,0.169137,0.580159
1152,0,3.82649,-0.0827778,0.169851,0.577061
1154,0,3.82877,-0.0833545,0.169622,0.577672
1156,0,3.83089,-0.0804177,0.168292,0.579746
1158,0,3.82712,-0.0883669,0.171258,0.577986
1160,0,3.82572,-0.082774,0.169486,0.576742
1162,0,3.82584,-0.0855178,0.170149,0.574322
1164,0,3.82795,-0.0832721,0.167948,0.576539
1166,0,3.82643,-0.0785809,0.165527,0.575731
1170,0,3.82833,-0.0948261,0.167324,0.561453
1172,0,3.82675,-0.0846713,0.167561,0.569918
1174,0,3.82503,-0.0889456,0.168068,0.570673
1177,0,3.82564,-0.0939216,0.168806,0.561108
1179,0,3.82239,-0.0872507,0.169661,0.567753
1181,0,3.83804,-0.119467,0.175172,0.553857
1183,0,3.82636,-0.0861145,0.168808,0.573777
1185,0,3.82873,-0.0769918,0.16437,0.567392
1187,0,3.82686,-0.0871522,0.164506,0.559371
1189,0,3.82861,-0.080738,0.165076,0.564277
1191,0,3.82646,-0.0840625,0.166572,0.567994
1193,0,3.82263,-0.0840518,0.168769,0.56282
1195,0,3.82883,-0.0833718,0.165084,0.561257
1197,0,3.82359,-0.0793123,0.167358,0.567735
1199,0,3.82933,-0.0815141,0.16461,0.562952
1201,0,3.82966,-0.0799754,0.161647,0.560072
1203,0,3.82849,-0.0843063,0.16214,0.553033
1205,0,3.82725,-0.0853468,0.166012,0.560424
1207,0,3.83043,-0.0764795,0.162203,0.560281
1209,0,3.82712,-0.0815631,0.16356,0.556728
1211,0,3.8258,-0.0866838,0.163741,0.554513
1213,0,3.82748,-0.088056,0.165924,0.558495
1215,0,3.82982,-0.086854,0.167089,0.563873
1217,0,3.82653,-0.0809109,0.167179,0.57005
1219,0,3.8239,-0.0821009,0.167341,0.571757
1221,0,3.82357,-0.084703,0.166989,0.568746
1223,0,3.82332,-0.0848644,0.167121,0.568965
1226,0,3.82579,-0.0837458,0.16523,0.568707
1228,0,3.82239,-0.0855808,0.165701,0.562237
1231,0,3.83804,-0.126471,0.178929,0.549409
1233,0,3.82583,-0.077824,0.16815,0.580845
1235,0,3.82744,-0.0785089,0.165546,0.574901
1237,0,3.82818,-0.0814624,0.164285,0.572751
1239,0,3.82782,-0.0786851,0.16624,0.574923
1241,0,3.82406,-0.0817463,0.167084,0.572441
1243,0,3.82755,-0.0762717,0.163908,0.570852
1245,0,3.82112,-0.0852271,0.166162,0.56293
1247,0,3.82353,-0.086289,0.166183,0.562755
1249,0,3.82521,-0.0805459,0.162644,0.560918
1251,0,3.82337,-0.0906384,0.161288,0.553194
1253,0,3.82169,-0.0877382,0.161827,0.548704
1255,0,3.82546,-0.0807983,0.16286,0.557031
1258,0,3.82359,-0.0838151,0.163107,0.558659
1260,0,3.82484,-0.0843526,0.161279,0.551202
1262,0,3.82332,-0.0846485,0.161251,0.551357
1264,0,3.8255,-0.0875856,0.161727,0.548628
1266,0,3.82176,-0.083656,0.160291,0.549706
1268,0,3.82293,-0.0908925,0.160015,0.545354
1270,0,3.82389,-0.0861957,0.158734,0.543644
1272,0,3.82346,-0.0940287,0.16224,0.542402
1274,0,3.82151,-0.0867574,0.161995,0.547305
1277,0,3.82226,-0.0878888,0.160327,0.540388
1279,0,3.82271,-0.0899941,0.159947,0.540104
1281,0,3.83623,-0.145428,0.181215,0.524445
1283,0,3.82636,-0.0791592,0.165013,0.571845
1285,0,3.82573,-0.0788732,0.164365,0.565115
1287,0,3.82903,-0.0774318,0.162174,0.561855
1289,0,3.8282,-0.0833303,0.164331,0.563537
1291,0,3.82793,-0.076617,0.163678,0.568677
1293,0,3.82647,-0.0781625,0.164555,0.565812
1295,0,3.82822,-0.0758331,0.161467,0.561617
1297,0,3.8241,-0.0791338,0.164088,0.566
1299,0,3.82662,-0.0749497,0.161948,0.561178
1301,0,3.82377,-0.0801986,0.16247,0.559229
1303,0,3.82423,-0.0818057,0.161158,0.552778
1305,0,3.82426,-0.087318,0.164199,0.554176
1307,0,3.82462,-0.0783805,0.160307,0.554744
1309,0,3.82426,-0.0836025,0.161616,0.549486
1312,0,3.8253,-0.0862216,0.159375,0.541938
1314,0,3.82614,-0.0861632,0.158165,0.542879
1316,0,3.8219,-0.0879712,0.161435,0.546712
1318,0,3.82254,-0.0857999,0.16139,0.545842
1320,0,3.82413,-0.0834766,0.158364,0.540934
1322,0,3.82501,-0.0857021,0.158388,0.542085
1324,0,3.82525,-0.0828728,0.158399,0.540499
1326,0,3.82357,-0.0857977,0.159308,0.541954
1328,0,3.8232,-0.0853196,0.159171,0.538845
1330,0,3.82402,-0.0866057,0.159489,0.541742
1333,0,3.82713,-0.0777945,0.161097,0.558933
1335,0,3.82382,-0.0799691,0.162446,0.557247
1338,0,3.82363,-0.0836777,0.162683,0.557234
1340,0,3.82582,-0.081613,0.159974,0.553113
1342,0,3.825,-0.0841535,0.159493,0.549623
1344,0,3.82187,-0.0875583,0.161942,0.547047
1346,0,3.82231,-0.0847589,0.161797,0.549313
1349,0,3.82276,-0.0817479,0.160891,0.547683
1351,0,3.82007,-0.0868538,0.161836,0.54604
1353,0,3.82248,-0.0879093,0.16141,0.546755
1355,0,3.82512,-0.0841991,0.160154,0.549178
1360,0,3.82816,-0.0726076,0.161395,0.563471
1362,0,3.82561,-0.0803715,0.162216,0.558371
1364,0,3.82762,-0.0779571,0.160075,0.554832
1366,0,3.82704,-0.0806528,0.162103,0.558771
1368,0,3.82821,-0.0795919,0.160536,0.559195
1370,0,3.82655,-0.0776971,0.160041,0.55412
1372,0,3.82388,-0.0797928,0.161161,0.551203
1375,0,3.82294,-0.0833793,0.16086,0.548395
1377,0,3.82223,-0.0839879,0.161885,0.548791
1379,0,3.8259,-0.0794231,0.158385,0.543254
1381,0,3.82432,-0.0842968,0.158468,0.541087
1383,0,3.82215,-0.0866964,0.161108,0.545109
1385,0,3.82162,-0.0870731,0.16005,0.545393
1387,0,3.82186,-0.0843203,0.159188,0.541198
1389,0,3.82552,-0.0849929,0.156937,0.538751
1391,0,3.82467,-0.0834436,0.156811,0.537434
1393,0,3.82496,-0.0809928,0.157394,0.536784
1395,0,3.82455,-0.0873556,0.157444,0.537887
1397,0,3.8257,-0.0832752,0.156795,0.537506
1399,0,3.82226,-0.089171,0.158329,0.538427
1403,0,3.82725,-0.0830928,0.156679,0.540916
1405,0,3.82537,-0.0822137,0.157158,0.537318
1407,0,3.82136,-0.0881917,0.158606,0.537917
1409,0,3.82469,-0.0737319,0.160705,0.562655
1411,0,3.82706,-0.0782679,0.158728,0.552603
1413,0,3.8236,-0.0814068,0.160736,0.550654
1415,0,3.82466,-0.081355,0.160822,0.550708
1417,0,3.82288,-0.0812372,0.161181,0.550822
1419,0,3.8233,-0.0879495,0.159205,0.545553
1421,0,3.82033,-0.0849147,0.161261,0.544729
1423,0,3.82368,-0.0833728,0.158401,0.540612
1425,0,3.82615,-0.0784772,0.158345,0.544906
1430,0,3.82116,-0.0836468,0.159381,0.540528
1432,0,3.82578,-0.0818858,0.156052,0.53658
1434,0,3.82272,-0.0869576,0.1571,0.534343
1436,0,3.82349,-0.0856449,0.156406,0.533977
1438,0,3.82239,-0.0888343,0.156809,0.534871
1440,0,3.8241,-0.0840662,0.155149,0.53011
1442,0,3.82423,-0.0838805,0.154815,0.530068
1444,0,3.82402,-0.0819731,0.155133,0.528816
1446,0,3.82294,-0.0827416,0.154845,0.529309
1448,0,3.8216,-0.0878762,0.155645,0.527353
1451,0,3.82128,-0.0909491,0.15641,0.525094
1453,0,3.82357,-0.0874767,0.155111,0.529814
1455,0,3.82057,-0.0877979,0.156166,0.527289
1457,0,3.82355,-0.0854491,0.153124,0.523061
1459,0,3.82471,-0.0884719,0.1524,0.522943
1461,0,3.82001,-0.0907969,0.156226,0.525314
1463,0,3.82468,-0.0804849,0.152243,0.525266
1465,0,3.82557,-0.0813918,0.151983,0.523675
1467,0,3.81923,-0.0933907,0.154754,0.520968
1469,0,3.8244,-0.0836917,0.152969,0.522453
1471,0,3.82282,-0.0857021,0.152797,0.523266
1473,0,3.82105,-0.0882294,0.153786,0.520235
1475,0,3.82239,-0.0876873,0.152036,0.519336
1480,0,3.82005,-0.0936167,0.155808,0.530013
1482,0,3.82117,-0.0871176,0.154385,0.525888
1484,0,3.82078,-0.0884523,0.153786,0.520878
1486,0,3.81964,-0.0890941,0.153629,0.520912
1488,0,3.82178,-0.0917525,0.151805,0.517561
1490,0,3.82197,-0.0872451,0.151546,0.516646
1492,0,3.8193,-0.0947479,0.15268,0.514036
1494,0,3.81989,-0.0882912,0.151743,0.51222
1496,0,3.81749,-0.0913304,0.152733,0.508731
1498,0,3.81849,-0.0916341,0.151699,0.5089
1500,0,3.81895,-0.0935433,0.151752,0.510042
1502,0,3.8216,-0.093927,0.152342,0.510551
1504,0,3.82159,-0.0854211,0.150733,0.514835
1506,0,3.82076,-0.0885078,0.151278,0.512171
1508,0,3.82205,-0.0935055,0.149425,0.510083
1510,0,3.81471,-0.0984404,0.155749,0.511444
1512,0,3.82383,-0.0858805,0.150365,0.513365
1514,0,3.81814,-0.0899978,0.151723,0.512881
1516,0,3.81861,-0.0921512,0.15114,0.509533
1518,0,3.82314,-0.0864228,0.148993,0.508017
1520,0,3.81802,-0.0939726,0.153126,0.510275
1522,0,3.82077,-0.0858319,0.150529,0.512977
1524,0,3.81781,-0.0916978,0.151869,0.508833
1526,0,3.82088,-0.0876781,0.149623,0.508585
1529,0,3.81998,-0.0861413,0.150828,0.514125
1531,0,3.821,-0.0879348,0.149072,0.509362
1533,0,3.82105,-0.0899043,0.150036,0.506104
1535,0,3.81791,-0.0919438,0.15207,0.509463
1537,0,3.82172,-0.0893352,0.148503,0.507882
1539,0,3.81631,-0.0940949,0.149768,0.502245
1541,0,3.81968,-0.0903016,0.147662,0.497177
1543,0,3.82226,-0.0882043,0.146318,0.498489
1545,0,3.81944,-0.0914446,0.147858,0.498132
1547,0,3.82137,-0.0917381,0.146021,0.497811
1549,0,3.81477,-0.0902846,0.150797,0.49845
1551,0,3.82012,-0.0902778,0.147164,0.497214
1553,0,3.81828,-0.0923153,0.148091,0.498369
1555,0,3.82131,-0.0872404,0.146599,0.498892
1557,0,3.81657,-0.094427,0.148147,0.494032
1559,0,3.81879,-0.100663,0.147957,0.496179
1561,0,3.81956,-0.0884121,0.147575,0.498602
1563,0,3.81996,-0.0919972,0.147206,0.498199
1565,0,3.81862,-0.0915072,0.147141,0.497527
1567,0,3.82074,-0.0917143,0.147639,0.496415
1569,0,3.8189,-0.0907912,0.150158,0.503214
1571,0,3.81812,-0.0970823,0.150396,0.49907
1575,0,3.82172,-0.0807118,0.147613,0.5112
1577,0,3.83111,-0.135919,0.16293,0.493258
1579,0,3.8186,-0.0858515,0.150937,0.516532
1583,0,3.81908,-0.0708136,0.150485,0.532308
1585,0,3.81504,-0.0928765,0.152547,0.510327
1590,0,3.82022,-0.0867178,0.156621,0.528042
1592,0,3.81897,-0.0851906,0.158476,0.534873
1595,0,3.81953,-0.0875518,0.160769,0.544291
1597,0,3.82192,-0.0806212,0.159511,0.546047
1599,0,3.81927,-0.0817927,0.161907,0.549333
1601,0,3.81939,-0.0837376,0.161926,0.550269
1603,0,3.82191,-0.0805811,0.160927,0.553684
1619,0,3.81858,-0.0758351,0.153544,0.535138
1626,0,3.81858,-0.0873299,0.156367,0.528563
1628,0,3.81589,-0.0886781,0.158915,0.532442
1630,0,3.81815,-0.084223,0.158462,0.534938
1632,0,3.82194,-0.0799515,0.157197,0.539552
1634,0,3.8207,-0.0827477,0.15791,0.539562
1636,0,3.82043,-0.0886101,0.158077,0.540818
1638,0,3.81725,-0.0875266,0.160499,0.540408
1640,0,3.81816,-0.0838575,0.160293,0.543337
1642,0,3.81936,-0.0842635,0.159946,0.543938
1647,0,3.57825,-1.04175,0.337562,0.0214499
1652,0,3.81547,-0.0768927,0.145931,0.510041
1654,0,3.81477,-0.0918156,0.147389,0.496676
1656,0,3.81564,-0.0959859,0.145766,0.488231
1660,0,3.81615,-0.0832652,0.144761,0.502783
1663,0,3.81444,-0.0984867,0.144577,0.481543
1665,0,3.80949,-0.0981703,0.147367,0.482584
1670,0,3.81292,-0.0943461,0.143495,0.484075
1672,0,3.8111,-0.103218,0.145527,0.478818
1675,0,3.81354,-0.115466,0.148008,0.475033
1679,0,3.81256,-0.0955674,0.142181,0.476586
1685,0,3.81456,-0.102927,0.14697,0.489413
1687,0,3.816,-0.0965825,0.148631,0.49722
1691,0,3.81081,-0.095197,0.154679,0.509591
1702,0,3.80683,-0.0815276,0.147068,0.501351
1707,0,3.81057,-0.0979821,0.14016,0.469615
1712,0,3.81152,-0.100477,0.14074,0.466323
1715,0,3.81333,-0.105519,0.140202,0.468391
1720,0,3.806,-0.0983629,0.140287,0.469386
1722,0,3.81219,-0.0997901,0.138858,0.462562
1724,0,3.81106,-0.0975333,0.135892,0.457174
1728,0,3.81009,-0.0910978,0.138323,0.474893
1736,0,3.80992,-0.104696,0.143364,0.471892
1738,0,3.80761,-0.106899,0.145671,0.476533
1753,0,3.80635,-0.0958022,0.136535,0.467053
1755,0,3.80661,-0.108114,0.137948,0.449419
1757,0,3.80362,-0.110055,0.137305,0.450086
1761,0,3.80701,-0.0936385,0.135266,0.461073
1768,0,3.80399,-0.125434,0.138686,0.433582
1772,0,3.80391,-0.112241,0.130648,0.428872
1774,0,3.80178,-0.115702,0.134688,0.428339
1776,0,3.80272,-0.119026,0.132028,0.429061
1788,0,3.80408,-0.113981,0.133765,0.431644
1797,0,3.81682,-0.155566,0.141736,0.421817
1800,0,3.80601,-0.116428,0.131465,0.425653
1806,0,3.8067,-0.110396,0.12672,0.415934
1809,0,3.80107,-0.127132,0.130086,0.411136
1826,0,3.80777,-0.0934015,0.124223,0.428459
1828,0,3.80753,-0.11479,0.124438,0.41253
1830,0,3.80556,-0.114235,0.123916,0.407575
1835,0,3.80312,-0.101045,0.12162,0.411159
1837,0,3.80163,-0.121343,0.123985,0.396228
1839,0,3.80754,-0.114095,0.120339,0.39435
1841,0,3.80275,-0.126636,0.124652,0.392501
1848,0,3.80551,-0.118335,0.116063,0.377641
1854,0,3.80659,-0.0926077,0.112975,0.391327
1857,0,3.80239,-0.12379,0.115909,0.373376
1863,0,3.80505,-0.117728,0.121437,0.390412
1865,0,3.80559,-0.116348,0.12259,0.398407
1867,0,3.80605,-0.118855,0.124119,0.403544
1872,0,3.8081,-0.102139,0.120524,0.408399
1877,0,3.80288,-0.0978457,0.119832,0.410899
1879,0,3.80478,-0.118565,0.119857,0.391537
1881,0,3.8078,-0.116776,0.11843,0.391002
1883,0,3.80131,-0.124925,0.122617,0.384195
1887,0,3.80371,-0.110275,0.117457,0.389656
1889,0,3.79946,-0.127457,0.121618,0.385051
1895,0,3.80024,-0.119661,0.124241,0.396095
1898,0,3.80866,-0.108196,0.122986,0.408125
1900,0,3.8023,-0.119492,0.125709,0.404733
1902,0,3.80066,-0.119086,0.127863,0.40907
1904,0,3.7967,-0.116073,0.131191,0.414285
1906,0,3.80335,-0.113105,0.12846,0.412148
1908,0,3.80312,-0.11577,0.127933,0.41312
1910,0,3.80501,-0.115651,0.127342,0.413448
1912,0,3.80459,-0.11572,0.127479,0.413868
1914,0,3.80483,-0.111965,0.127301,0.416741
1922,0,3.80407,-0.112162,0.111079,0.367224
1929,0,3.8026,-0.120378,0.109459,0.354808
1936,0,3.80928,-0.09447,0.106758,0.371072
1939,0,3.80446,-0.123374,0.10799,0.346467
1945,0,3.80377,-0.117805,0.114364,0.367263
1947,0,3.80253,-0.117875,0.116924,0.376629
1949,0,3.80559,-0.113525,0.11666,0.380157
1951,0,3.80102,-0.121659,0.119245,0.38177
1953,0,3.80451,-0.113845,0.118376,0.385264
1955,0,3.80439,-0.113733,0.118543,0.385358
1957,0,3.79932,-0.124421,0.121054,0.386987
1959,0,3.79836,-0.123901,0.121551,0.387416
1961,0,3.8039,-0.116488,0.119175,0.385806
1963,0,3.80104,-0.118285,0.120855,0.390548
1965,0,3.79919,-0.123344,0.121381,0.387469
1967,0,3.80641,-0.108564,0.103866,0.348993
1969,0,3.805,-0.116229,0.102783,0.335657
1970,0,3.80759,-0.113218,0.101079,0.334519