File: calce_correlation_analysis/matrices/CALCE_CX2_33_cycle_feature_matrix.csv
cycle_number,rul,voltage,current,capacity,charge_capacity
187,535,3.79427,-0.298931,0.466062,0.484608
189,533,3.82026,-0.0387494,0.344876,0.950547
191,531,3.81922,-0.0403776,0.344244,0.944233
193,529,3.82118,-0.0407541,0.344241,0.945275
195,527,3.82152,-0.0380604,0.342748,0.948778
197,525,3.82254,-0.0379222,0.342757,0.948082
199,523,3.81798,-0.0412719,0.345507,0.94511
201,521,3.81996,-0.0397022,0.343433,0.94485
203,519,3.81994,-0.0396733,0.343424,0.943675
205,517,3.82241,-0.0367163,0.339256,0.942898
210,515,3.82051,-0.0390543,0.341794,0.940247
212,513,3.8223,-0.0382927,0.344034,0.947525
214,511,3.82145,-0.0395604,0.34204,0.940324
216,509,3.82401,-0.0415138,0.3428,0.937582
218,507,3.81929,-0.0340382,0.337723,0.942879
220,505,3.82057,-0.0401349,0.34064,0.936269
222,503,3.82508,-0.0388353,0.341309,0.939638
224,501,3.82065,-0.0423023,0.340513,0.934424
227,499,3.82551,-0.0413027,0.342734,0.935086
229,497,3.8237,-0.038532,0.34264,0.942189
231,495,3.82525,-0.0358453,0.341208,0.946818
233,493,3.82296,-0.0371641,0.343268,0.946183
235,491,3.82419,-0.0356985,0.342553,0.948841
237,489,3.82455,-0.0353261,0.342564,0.9492
239,487,3.82118,-0.0327888,0.338335,0.947393
243,485,3.82888,-0.0397417,0.342005,0.935715
246,483,3.82384,-0.0391603,0.337228,0.928556
248,481,3.82402,-0.0431424,0.342061,0.930038
251,479,3.82156,-0.0390591,0.335712,0.925049
253,477,3.81923,-0.0405543,0.337814,0.928505
255,475,3.82293,-0.0331401,0.334196,0.937787
260,473,3.82108,-0.0397033,0.340663,0.938006
262,471,3.82304,-0.037143,0.341926,0.944588
264,469,3.82346,-0.0368963,0.341912,0.944076
266,467,3.82446,-0.0356491,0.341179,0.94674
268,465,3.82381,-0.0356035,0.341161,0.946219
270,463,3.82397,-0.0356098,0.341159,0.945474
272,461,3.82534,-0.0340867,0.340432,0.947001
274,459,3.82408,-0.0373853,0.336386,0.931235
276,457,3.82162,-0.0391354,0.337103,0.929928
278,455,3.8223,-0.0333314,0.334199,0.936935
280,453,3.82226,-0.0392085,0.335775,0.92479
282,451,3.827,-0.0404458,0.339199,0.928497
285,449,3.82249,-0.0405178,0.336441,0.922179
287,447,3.82375,-0.0390313,0.335706,0.924794
289,445,3.82229,-0.0333266,0.334107,0.935407
291,443,3.81968,-0.0497344,0.347486,0.929046
293,441,3.8274,-0.0405224,0.33916,0.927461
297,439,3.82859,-0.0377144,0.337712,0.930074
299,437,3.82405,-0.0361993,0.338299,0.935853
301,435,3.8245,-0.0361207,0.338327,0.935238
303,433,3.82551,-0.0345385,0.337629,0.938213
305,431,3.82575,-0.0347127,0.337631,0.937584
307,429,3.82598,-0.0345884,0.337641,0.937571
309,427,3.82849,-0.0446918,0.340743,0.923044
313,425,3.82281,-0.0381293,0.33846,0.931445
315,423,3.82394,-0.0402364,0.339202,0.929719
317,421,3.81982,-0.0319238,0.332056,0.933137
319,419,3.82097,-0.0371029,0.333582,0.921798
321,417,3.8263,-0.0393182,0.33709,0.924317
323,415,3.8219,-0.0377742,0.332206,0.91931
325,413,3.82392,-0.037213,0.332168,0.918654
328,411,3.81832,-0.0337264,0.330636,0.924606
330,409,3.82382,-0.0392907,0.332867,0.916835
335,407,3.81747,-0.0349498,0.327909,0.917405
337,405,3.82049,-0.0413578,0.330809,0.908028
341,403,3.82254,-0.0380824,0.333462,0.92243
343,401,3.82295,-0.0397542,0.331454,0.912819
345,399,3.82509,-0.0369918,0.33003,0.916468
348,397,3.82162,-0.0383981,0.330699,0.913395
350,395,3.82353,-0.0383903,0.330706,0.913002
352,393,3.82571,-0.0364222,0.331377,0.917957
354,391,3.82515,-0.0386068,0.329345,0.909858
356,389,3.82252,-0.0386794,0.329317,0.908988
358,387,3.82429,-0.0355755,0.329212,0.916799
360,385,3.82395,-0.038807,0.329291,0.908784
362,383,3.82675,-0.0399477,0.331453,0.91004
364,381,3.82515,-0.0370524,0.331332,0.916759
366,379,3.82616,-0.0370329,0.331375,0.916106
368,377,3.82459,-0.0369654,0.332698,0.919188
370,375,3.82375,-0.0373372,0.33344,0.917903
372,373,3.82483,-0.0367769,0.332706,0.918884
374,371,3.8237,-0.0374646,0.333479,0.917471
376,369,3.82367,-0.038697,0.329339,0.907943
378,367,3.82465,-0.0374979,0.3272,0.905992
380,365,3.82423,-0.0371995,0.32992,0.911972
382,363,3.82492,-0.0385855,0.329286,0.906885
384,361,3.82541,-0.0402849,0.331369,0.908089
386,359,3.82274,-0.0349109,0.326451,0.908468
388,357,3.82443,-0.0371713,0.328504,0.909131
390,355,3.8236,-0.0364534,0.331363,0.920419
394,353,3.82387,-0.0384961,0.330675,0.912515
396,351,3.82441,-0.0395324,0.331032,0.913404
398,349,3.82525,-0.0368448,0.331352,0.915897
400,347,3.82648,-0.0356961,0.330643,0.91817
402,345,3.82636,-0.0355909,0.330638,0.917856
404,343,3.82598,-0.0356588,0.330618,0.917764
406,341,3.82621,-0.0355423,0.330609,0.917683
408,339,3.82512,-0.0360942,0.331419,0.916104
410,337,3.82533,-0.0369858,0.327253,0.905891
412,335,3.82405,-0.0374222,0.327159,0.905337
414,333,3.82568,-0.037035,0.329943,0.910502
416,331,3.82379,-0.0391128,0.327846,0.902308
418,329,3.82291,-0.0396652,0.332009,0.904321
422,327,3.82365,-0.0389971,0.327836,0.901763
426,325,3.82245,-0.0346546,0.325653,0.908212
428,323,3.82466,-0.0374984,0.325734,0.90092
431,321,3.82626,-0.0374995,0.327149,0.903366
437,319,3.82664,-0.037569,0.325749,0.900103
439,317,3.83246,-0.0522036,0.331242,0.883446
444,315,3.82408,-0.0383381,0.3238,0.895243
448,313,3.81955,-0.0357767,0.320875,0.898127
451,311,3.74412,-0.48933,0.522592,0.220128
453,309,3.82349,-0.0435062,0.324569,0.883801
457,307,3.82255,-0.0403027,0.320299,0.880234
459,305,3.82443,-0.0447067,0.325248,0.880147
462,303,3.8217,-0.042506,0.32099,0.87774
464,301,3.82173,-0.0411166,0.318864,0.876574
467,299,3.8231,-0.0398161,0.318138,0.880825
469,297,3.82301,-0.0411463,0.320242,0.878807
472,295,3.82493,-0.0362014,0.319428,0.88928
474,293,3.82399,-0.0398222,0.319489,0.881185
477,291,3.82463,-0.0393182,0.322256,0.886245
479,289,3.82576,-0.0377397,0.321539,0.889276
481,287,3.82463,-0.0394192,0.323623,0.88956
483,285,3.82519,-0.0380439,0.322893,0.891956
485,283,3.82496,-0.0379568,0.322943,0.892062
488,281,3.82574,-0.0385257,0.321619,0.887834
490,279,3.82255,-0.0398956,0.318177,0.876634
492,277,3.82335,-0.0391546,0.318086,0.876609
494,275,3.82675,-0.038105,0.320161,0.885325
499,273,3.82516,-0.0430547,0.322305,0.875374
501,271,3.82968,-0.0581516,0.325732,0.852918
505,269,3.82418,-0.038853,0.319565,0.884821
507,267,3.82396,-0.0394191,0.319538,0.882572
511,265,3.82511,-0.039697,0.318168,0.878548
513,263,3.82277,-0.0409104,0.320249,0.878607
515,261,3.82548,-0.0347857,0.315954,0.885331
517,259,3.82472,-0.0395112,0.31675,0.874007
519,257,3.82686,-0.0427162,0.320975,0.875956
521,255,3.82267,-0.0364956,0.316617,0.880503
523,253,3.82501,-0.0399241,0.318106,0.875814
526,251,3.82598,-0.0380596,0.320147,0.884492
528,249,3.8263,-0.0381908,0.320163,0.884019
530,247,3.82497,-0.0379452,0.321492,0.887702
532,245,3.82514,-0.0380163,0.321558,0.88719
534,243,3.82511,-0.0383445,0.32157,0.88661
537,241,3.82453,-0.0380795,0.321566,0.887805
539,239,3.8238,-0.0402574,0.319524,0.87743
541,237,3.82507,-0.0380332,0.317344,0.877605
543,235,3.82556,-0.0382337,0.320097,0.882838
545,233,3.82474,-0.0403537,0.318083,0.874045
548,231,3.82672,-0.039805,0.320862,0.879441
556,229,3.82475,-0.0361095,0.315351,0.881542
558,227,3.82281,-0.0397543,0.315371,0.871027
562,225,3.82272,-0.0397797,0.313964,0.867676
564,223,3.82454,-0.0429002,0.315465,0.862672
567,221,3.82429,-0.0397181,0.311199,0.860297
570,219,3.82246,-0.0398999,0.309782,0.858393
574,217,3.8257,-0.0429688,0.312651,0.85464
576,215,3.82552,-0.0401762,0.311183,0.857664
578,213,3.82476,-0.0405219,0.312535,0.86142
580,211,3.82468,-0.0397759,0.312582,0.860083
582,209,3.82389,-0.0399688,0.312574,0.860322
584,207,3.82628,-0.0388479,0.310497,0.86002
586,205,3.82415,-0.0402748,0.312554,0.860292
588,203,3.82617,-0.0392185,0.310485,0.859658
591,201,3.82512,-0.0404595,0.312505,0.861029
593,199,3.82545,-0.0386581,0.310417,0.859678
595,197,3.82583,-0.0404236,0.310261,0.856668
597,195,3.82554,-0.0398336,0.312518,0.858984
599,193,3.82543,-0.0387015,0.310372,0.859375
602,191,3.82392,-0.0377993,0.311792,0.863888
604,189,3.82358,-0.0403095,0.31112,0.858315
607,187,3.82402,-0.0399755,0.311099,0.858052
609,185,3.82431,-0.0405518,0.308362,0.850331
612,183,3.82337,-0.0421537,0.308841,0.849847
614,181,3.82301,-0.0401681,0.306939,0.847272
616,179,3.82362,-0.0425562,0.306351,0.840616
618,177,3.82421,-0.042473,0.306369,0.84052
620,175,3.82346,-0.0427209,0.306357,0.839935
622,173,3.8206,-0.0419469,0.308395,0.839566
624,171,3.82237,-0.0428237,0.306307,0.840086
626,169,3.82463,-0.0414267,0.304232,0.83907
628,167,3.82144,-0.0445931,0.307048,0.83674
632,165,3.82399,-0.0411608,0.304229,0.837546
634,163,3.82332,-0.0430024,0.304943,0.835489
636,161,3.82265,-0.0412776,0.30621,0.839243
638,159,3.82474,-0.0414394,0.302763,0.835647
640,157,3.82479,-0.0429546,0.30351,0.832255
642,155,3.82444,-0.041317,0.302765,0.834073
644,153,3.82193,-0.0428652,0.302069,0.828566
647,151,3.8243,-0.0424835,0.302097,0.827874
651,149,3.83043,-0.0644931,0.315454,0.811874
653,147,3.82253,-0.0419671,0.304907,0.838103
655,145,3.82406,-0.0424926,0.303556,0.834013
657,143,3.82495,-0.0414584,0.304154,0.837509
659,141,3.82383,-0.0430499,0.301779,0.830287
661,139,3.82111,-0.0425132,0.305565,0.833512
663,137,3.82385,-0.0411,0.302774,0.83515
665,135,3.82317,-0.0414725,0.301365,0.83235
667,133,3.82407,-0.0431838,0.300743,0.825382
670,131,3.82723,-0.109251,0.331178,0.717394
672,129,3.8225,-0.0417667,0.302744,0.834574
674,127,3.82241,-0.0426231,0.302118,0.829741
676,125,3.82476,-0.0409196,0.301404,0.832037
678,123,3.82427,-0.0422045,0.299999,0.825722
680,121,3.82139,-0.0449557,0.30146,0.822563
683,119,3.82131,-0.041015,0.300003,0.82828
685,117,3.82092,-0.0450952,0.300111,0.818796
687,115,3.82263,-0.0449598,0.300117,0.818276
689,113,3.8199,-0.043457,0.300066,0.818456
691,111,3.82162,-0.0440009,0.29796,0.815836
693,109,3.82407,-0.0438904,0.297996,0.817271
695,107,3.82064,-0.0436304,0.29796,0.816994
697,105,3.82406,-0.0436776,0.295545,0.813859
699,103,3.82196,-0.0438536,0.296571,0.811688
701,101,3.82061,-0.0454707,0.297306,0.81057
703,99,3.82258,-0.0437424,0.295205,0.809839
705,97,3.82483,-0.0428948,0.294472,0.810636
707,95,3.82163,-0.0439948,0.295184,0.80948
709,93,3.82135,-0.0439471,0.295185,0.808376
711,91,3.82234,-0.0455734,0.29768,0.812106
713,89,3.82229,-0.0428041,0.295779,0.812793
715,87,3.82081,-0.0461053,0.295905,0.806002
717,85,3.82242,-0.0441277,0.295176,0.808485
719,83,3.82275,-0.0444466,0.293805,0.80541
725,81,3.82271,-0.0435205,0.29662,0.813336
727,79,3.82252,-0.0438763,0.29522,0.810321
729,77,3.82083,-0.0456094,0.295927,0.807244
731,75,3.82289,-0.0437767,0.293821,0.806789
733,73,3.82324,-0.0430124,0.293059,0.807508
735,71,3.8206,-0.0461176,0.294537,0.803151
737,69,3.82404,-0.0438907,0.293804,0.805147
739,67,3.82215,-0.0441789,0.293799,0.804733
741,65,3.82259,-0.0440309,0.293792,0.804842
743,63,3.82198,-0.0437077,0.295153,0.807264
745,61,3.82196,-0.0439359,0.293773,0.804047
747,59,3.82363,-0.0445548,0.291414,0.801758
749,57,3.822,-0.0445871,0.293051,0.802337
752,55,3.8222,-0.043878,0.290233,0.799986
754,53,3.82133,-0.0463183,0.293105,0.798608
756,51,3.82088,-0.0447415,0.292363,0.800101
758,49,3.82381,-0.0436341,0.290264,0.797118
760,47,3.82402,-0.0447129,0.292382,0.80029
762,45,3.82174,-0.0430785,0.29161,0.7996
764,43,3.82258,-0.0443648,0.291542,0.799753
766,41,3.82538,-0.0433837,0.291636,0.798844
768,39,3.82074,-0.0444795,0.292343,0.799218
770,37,3.83186,-0.064158,0.301449,0.77874
773,35,3.82338,-0.043058,0.291684,0.803344
775,33,3.82487,-0.0434127,0.291685,0.80246
777,31,3.82138,-0.0445466,0.291034,0.798136
780,29,3.82195,-0.0445459,0.289632,0.797316
782,27,3.8234,-0.0438907,0.290286,0.797736
784,25,3.82294,-0.0438349,0.29025,0.797548
786,23,3.82113,-0.0464229,0.290366,0.790793
791,21,3.82279,-0.0432038,0.288872,0.792779
793,19,3.82378,-0.043206,0.287465,0.790918
795,17,3.82446,-0.0449951,0.288224,0.789255
797,15,3.8203,-0.0448844,0.288178,0.788148
799,13,3.82357,-0.0442422,0.286067,0.786465
801,11,3.82199,-0.0448231,0.288185,0.788545
803,9,3.82232,-0.0437502,0.28741,0.789435
805,7,3.82395,-0.0434708,0.286077,0.787888
807,5,3.8239,-0.0449856,0.288206,0.787167
809,3,3.82325,-0.043245,0.286067,0.787066
811,1,3.82126,-0.045153,0.285409,0.781193
813,0,3.82105,-0.0469627,0.287532,0.781136
815,0,3.8214,-0.0456184,0.28404,0.777583
817,0,3.82186,-0.0457319,0.284011,0.776075
819,0,3.8243,-0.0424449,0.28391,0.783758
821,0,3.82271,-0.0435918,0.282917,0.779602
823,0,3.82086,-0.0458666,0.283987,0.775861
825,0,3.82188,-0.0436135,0.283239,0.778703
827,0,3.82173,-0.0457743,0.28262,0.773781
829,0,3.82146,-0.0467595,0.282607,0.771889
831,0,3.82389,-0.0447267,0.283259,0.777398
833,0,3.82179,-0.0449941,0.281874,0.773603
835,0,3.82259,-0.0459141,0.282626,0.773024
837,0,3.82007,-0.0477995,0.284723,0.773567
839,0,3.82155,-0.0446636,0.283213,0.777234
842,0,3.82025,-0.0434985,0.284657,0.785837
844,0,3.82274,-0.0442245,0.28329,0.780511
846,0,3.82341,-0.0441886,0.284668,0.782991
848,0,3.82067,-0.0450262,0.283263,0.778174
850,0,3.82105,-0.0468012,0.282629,0.772785
852,0,3.82311,-0.0449024,0.283276,0.777591
854,0,3.82201,-0.0442741,0.283269,0.778444
856,0,3.82205,-0.0448499,0.283267,0.777936
858,0,3.8223,-0.0442116,0.284636,0.781203
860,0,3.82232,-0.0453688,0.284013,0.775815
862,0,3.82207,-0.0452705,0.281879,0.773212
864,0,3.82074,-0.0446376,0.283227,0.77651
866,0,3.82258,-0.0439008,0.2805,0.772526
868,0,3.82074,-0.0466354,0.27973,0.768556
871,0,3.82189,-0.0454994,0.280458,0.77029
873,0,3.82094,-0.0454817,0.27909,0.766213
875,0,3.82236,-0.0463697,0.279849,0.765648
877,0,3.82262,-0.0454514,0.279098,0.765666
879,0,3.82183,-0.0437356,0.27695,0.765492
881,0,3.82287,-0.0482413,0.279656,0.762432
883,0,3.82054,-0.0466248,0.279832,0.764176
885,0,3.81968,-0.0463468,0.278437,0.760669
887,0,3.82168,-0.0472973,0.279803,0.763663
889,0,3.82064,-0.0441559,0.27907,0.7668
892,0,3.82335,-0.0411123,0.281774,0.781862
894,0,3.82368,-0.0431038,0.281148,0.777041
898,0,3.82406,-0.0430483,0.281186,0.774456
900,0,3.82162,-0.0423169,0.279757,0.774103
902,0,3.82439,-0.04542,0.28052,0.770196
904,0,3.82299,-0.0429409,0.276996,0.765979
906,0,3.82116,-0.0452036,0.277721,0.763252
908,0,3.82391,-0.0452229,0.279129,0.767182
910,0,3.82206,-0.0436831,0.276961,0.765167
912,0,3.8234,-0.0434379,0.275606,0.760683
914,0,3.82336,-0.0457732,0.276342,0.759669
916,0,3.82068,-0.0457633,0.275112,0.759549
918,0,3.82285,-0.0464523,0.274271,0.754191
920,0,3.82333,-0.0472778,0.27569,0.753385
922,0,3.8216,-0.0463325,0.274927,0.754524
924,0,3.82206,-0.0463635,0.273535,0.752129
926,0,3.8232,-0.0461977,0.274929,0.7552
928,0,3.82211,-0.0438396,0.27279,0.753872
930,0,3.81941,-0.0483177,0.274261,0.748052
932,0,3.82186,-0.0468565,0.275,0.752636
934,0,3.82159,-0.0443581,0.272759,0.753433
936,0,3.8214,-0.0468106,0.271832,0.747
938,0,3.82328,-0.0447714,0.272779,0.752856
940,0,3.82891,-0.0751591,0.289292,0.724929
942,0,3.82156,-0.0426794,0.278344,0.767855
944,0,3.82278,-0.0441039,0.276986,0.765195
946,0,3.82378,-0.0455174,0.279149,0.765087
948,0,3.82184,-0.0429907,0.278395,0.767251
950,0,3.82214,-0.0435943,0.277029,0.764477
952,0,3.82421,-0.0411071,0.276314,0.768659
954,0,3.82453,-0.0412294,0.274916,0.763984
956,0,3.82402,-0.0441993,0.273634,0.757578
958,0,3.82313,-0.0441698,0.275642,0.759095
960,0,3.81853,-0.0457751,0.276323,0.758075
962,0,3.82176,-0.0465875,0.273601,0.750961
964,0,3.82077,-0.046254,0.273573,0.750955
966,0,3.82127,-0.0443074,0.274225,0.755425
968,0,3.82019,-0.0462775,0.273573,0.750525
970,0,3.82314,-0.0441372,0.27146,0.750454
973,0,3.82393,-0.0428284,0.270718,0.750532
975,0,3.82311,-0.0448621,0.271449,0.749208
977,0,3.82154,-0.0439159,0.272828,0.75296
979,0,3.82002,-0.0456231,0.27357,0.749734
982,0,3.82411,-0.0451183,0.271454,0.749101
984,0,3.8224,-0.0445614,0.271455,0.74842
986,0,3.82272,-0.0443751,0.270074,0.745883
988,0,3.8223,-0.0469996,0.272178,0.745346
990,0,3.82754,-0.0654678,0.28258,0.733271
992,0,3.82332,-0.0418854,0.271951,0.758363
994,0,3.82365,-0.0439144,0.272835,0.754963
997,0,3.80365,-0.235485,0.346633,0.469622
999,0,3.82272,-0.0415366,0.273419,0.758642
1001,0,3.82222,-0.0434727,0.272789,0.75255
1003,0,3.82323,-0.0415331,0.27345,0.757433
1005,0,3.82348,-0.0423184,0.272086,0.754049
1007,0,3.82371,-0.0428004,0.270697,0.752036
1009,0,3.82248,-0.0433176,0.271419,0.749851
1011,0,3.82177,-0.0427429,0.270665,0.751481
1013,0,3.82111,-0.0436105,0.270022,0.745464
1015,0,3.82131,-0.0447268,0.271401,0.747595
1018,0,3.82183,-0.0453624,0.268626,0.741728
1021,0,3.82116,-0.0449138,0.26862,0.741567
1023,0,3.81957,-0.0465816,0.269348,0.73968
1025,0,3.82219,-0.0451647,0.268622,0.741192
1027,0,3.82113,-0.0451413,0.268625,0.741067
1029,0,3.81931,-0.0451467,0.270734,0.741295
1031,0,3.82165,-0.0443988,0.26862,0.742467
1033,0,3.82093,-0.0465287,0.270747,0.742194
1035,0,3.82159,-0.0454754,0.268616,0.740028
1037,0,3.82012,-0.0449249,0.268612,0.740675
1039,0,3.82081,-0.0472317,0.269369,0.738366
1044,0,3.8219,-0.0450113,0.270014,0.742731
1046,0,3.82041,-0.045029,0.269983,0.742488
1048,0,3.82225,-0.0449609,0.268204,0.739548
1050,0,3.82119,-0.0434571,0.266395,0.739073
1052,0,3.82009,-0.0455252,0.2672,0.736248
1054,0,3.82151,-0.0452725,0.265879,0.732975
1057,0,3.81877,-0.0465394,0.265187,0.726416
1059,0,3.82077,-0.0462833,0.263073,0.725922
1061,0,3.82052,-0.0457883,0.263065,0.726048
1063,0,3.81841,-0.0477254,0.263797,0.72291
1065,0,3.81812,-0.0471145,0.263786,0.723212
1067,0,3.81812,-0.0474114,0.263789,0.722957
1069,0,3.81959,-0.0475639,0.262417,0.718263
1071,0,3.81965,-0.0494994,0.263931,0.720261
1073,0,3.81864,-0.0471747,0.26514,0.726057
1075,0,3.81996,-0.0457193,0.263011,0.725622
1077,0,3.81925,-0.0481901,0.26377,0.722361
1079,0,3.81868,-0.0478694,0.265148,0.725554
1081,0,3.8169,-0.0473515,0.265129,0.72581
1083,0,3.8181,-0.0481714,0.263749,0.721948
1085,0,3.81996,-0.0478907,0.263763,0.721886
1087,0,3.81615,-0.0479037,0.263725,0.721768
1092,0,3.81906,-0.0419907,0.266453,0.740097
1094,0,3.8207,-0.0425782,0.265135,0.736408
1096,0,3.82039,-0.0450137,0.265893,0.732779
1098,0,3.81967,-0.0432406,0.266479,0.739217
1100,0,3.81955,-0.0455058,0.265831,0.731817
1102,0,3.81775,-0.0493481,0.268706,0.731355
1104,0,3.82027,-0.0425997,0.265088,0.73674
1106,0,3.81424,-0.0474218,0.268648,0.730368
1108,0,3.81613,-0.0473997,0.266513,0.730754
1110,0,3.81876,-0.0455119,0.265814,0.733848
1113,0,3.82011,-0.0437732,0.263686,0.731129
1116,0,3.81777,-0.0475143,0.265027,0.726876
1118,0,3.81681,-0.0470087,0.265156,0.725593
1120,0,3.81886,-0.0455265,0.263026,0.726037
1122,0,3.81754,-0.048135,0.263766,0.723268
1124,0,3.8174,-0.0469481,0.263757,0.723274
1126,0,3.81691,-0.0480404,0.263753,0.721586
1128,0,3.81636,-0.0477508,0.263743,0.722399
1130,0,3.81713,-0.0466071,0.263756,0.723177
1132,0,3.81778,-0.0463766,0.263074,0.725622
1134,0,3.81522,-0.0498831,0.264537,0.719429
1136,0,3.81581,-0.0466819,0.2616,0.71958
1138,0,3.81469,-0.0449747,0.263709,0.721897
1140,0,3.81643,-0.047347,0.262347,0.718366
1142,0,3.8185,-0.0464431,0.261611,0.71987
1144,0,3.81791,-0.0461668,0.261611,0.721265
1146,0,3.81646,-0.0484277,0.262353,0.717451
1148,0,3.81632,-0.0482933,0.262341,0.718137
1150,0,3.81571,-0.0464354,0.260186,0.717119
1152,0,3.81652,-0.0483986,0.259548,0.711065
1155,0,3.81235,-0.141845,0.294922,0.568452
1157,0,3.81554,-0.0486612,0.260931,0.714581
1159,0,3.81741,-0.0477755,0.259559,0.710637
1161,0,3.81583,-0.0479168,0.259543,0.710692
1163,0,3.81586,-0.0477253,0.25953,0.70981
1165,0,3.8142,-0.0510129,0.260278,0.707239
1167,0,3.81495,-0.0492857,0.259208,0.707237
1169,0,3.81622,-0.0480452,0.258142,0.706895
1171,0,3.81667,-0.048682,0.257845,0.70689
1173,0,3.81727,-0.0485529,0.25994,0.713073
1175,0,3.81761,-0.0461591,0.258816,0.71229
1177,0,3.81474,-0.0481876,0.259528,0.710531
1179,0,3.81594,-0.0488284,0.260946,0.713512
1181,0,3.81676,-0.0466886,0.258804,0.712156
1183,0,3.81472,-0.0489148,0.259538,0.708957
1185,0,3.81636,-0.048396,0.259556,0.709796
1187,0,3.81707,-0.0465373,0.258816,0.712809
1189,0,3.81575,-0.0474915,0.259558,0.709286
1191,0,3.81939,-0.0453808,0.25813,0.711495
1193,0,3.81429,-0.0479776,0.259527,0.710099
1195,0,3.8155,-0.0491433,0.258145,0.705976
1197,0,3.815,-0.0490206,0.259524,0.709733
1199,0,3.81615,-0.046557,0.257403,0.708698
1201,0,3.81535,-0.0487407,0.256761,0.702494
1203,0,3.81493,-0.0489837,0.256752,0.70263
1206,0,3.81879,-0.0446443,0.259541,0.720849
1210,0,3.81349,-0.0447789,0.264457,0.727611
1212,0,3.81752,-0.0444975,0.26235,0.726628
1216,0,3.81314,-0.0451066,0.263079,0.725086
1219,0,3.81151,-0.0517176,0.265267,0.714768
1227,0,3.81555,-0.0499796,0.267309,0.728878
1229,0,3.81382,-0.0481808,0.270134,0.735511
1231,0,3.81565,-0.0457356,0.270807,0.742693
1240,0,3.81444,-0.0401984,0.268582,0.752093
1247,0,3.8166,-0.0474071,0.269427,0.733517
1254,0,3.81647,-0.0456531,0.26726,0.734905
1256,0,3.81515,-0.0458832,0.269418,0.737681
1258,0,3.81502,-0.0457457,0.270813,0.741954
1260,0,3.81384,-0.0454608,0.272197,0.746019
1262,0,3.81477,-0.045861,0.272222,0.746242
1267,0,3.81199,-0.042034,0.269301,0.749035
1272,0,3.81416,-0.0513536,0.2667,0.720951
1275,0,3.81144,-0.0487634,0.262368,0.717668
1277,0,3.81183,-0.0465371,0.260215,0.716595
1280,0,3.81185,-0.0425135,0.260124,0.725391
1282,0,3.80932,-0.0506056,0.2617,0.712154
1286,0,3.81177,-0.0453154,0.261625,0.722812
1288,0,3.81039,-0.0509715,0.260319,0.708367
1290,0,3.81006,-0.0508156,0.260303,0.70689
1292,0,3.81209,-0.0456595,0.26161,0.722235
1297,0,3.81429,-0.0506589,0.261743,0.711262
1299,0,3.81391,-0.0479546,0.263809,0.722662
1301,0,3.81291,-0.047541,0.266585,0.72992
1311,0,3.80879,-0.0408031,0.261544,0.731387
1315,0,3.81036,-0.0530996,0.26465,0.710938
1320,0,3.808,-0.0531519,0.260099,0.706089
1324,0,3.80857,-0.0506145,0.258925,0.705617
1326,0,3.80791,-0.0513973,0.258907,0.705008
1330,0,3.80851,-0.049289,0.258164,0.707603
1332,0,3.8095,-0.0491901,0.258157,0.706542
1336,0,3.80952,-0.0473678,0.25603,0.70568
1342,0,3.80893,-0.0534667,0.264644,0.714269
1344,0,3.81309,-0.048539,0.2638,0.721492
1346,0,3.81129,-0.0486685,0.265952,0.724137
1358,0,3.80899,-0.0567966,0.262606,0.701964
1361,0,3.80898,-0.0512056,0.256753,0.70059
1365,0,3.81328,-0.0525204,0.259687,0.701591
1368,0,3.8082,-0.0510035,0.258906,0.704087
1370,0,3.80951,-0.0491683,0.256708,0.703832
1373,0,3.80933,-0.0469676,0.258802,0.71379
1375,0,3.80978,-0.0511694,0.257528,0.699892
1383,0,3.80774,-0.0497382,0.256767,0.7013
1385,0,3.81033,-0.0470959,0.254595,0.701656
1390,0,3.80744,-0.0514259,0.258228,0.695497
1396,0,3.80491,-0.0540856,0.254037,0.685936
1399,0,3.80981,-0.0580307,0.255382,0.68244
1406,0,3.80904,-0.0551354,0.256236,0.685935
1408,0,3.80969,-0.0512542,0.257523,0.70003
1410,0,3.81018,-0.0514634,0.258929,0.702903
1412,0,3.80968,-0.0503742,0.260327,0.707412
1424,0,3.80956,-0.0548655,0.259041,0.693571
1428,0,3.80704,-0.0558801,0.256202,0.68801
1430,0,3.80751,-0.0454712,0.251065,0.698621
1434,0,3.80753,-0.0528159,0.255465,0.690479
1436,0,3.80651,-0.0497998,0.252591,0.690148
1445,0,3.80728,-0.0530956,0.259671,0.700728
1447,0,3.80846,-0.0506809,0.260313,0.707709
1449,0,3.80722,-0.0528136,0.262469,0.708051
1461,0,3.80383,-0.0581514,0.255586,0.679935
1464,0,3.80413,-0.0524591,0.250488,0.680747
1470,0,3.80317,-0.0502006,0.246945,0.678025
1480,0,3.8064,-0.0489771,0.246163,0.680386
1484,0,3.80469,-0.0549897,0.251282,0.679991
1486,0,3.80438,-0.0530375,0.247707,0.674767
1490,0,3.80408,-0.0550282,0.249853,0.675833
1493,0,3.80348,-0.063478,0.254345,0.668497
1501,0,3.80479,-0.0583291,0.246441,0.666581
1506,0,3.80209,-0.046657,0.243456,0.675245
1508,0,3.80233,-0.0596435,0.247183,0.65622
1512,0,3.80482,-0.0511396,0.244848,0.673677
1518,0,3.80267,-0.0590962,0.2514,0.668632
1520,0,3.80473,-0.0572615,0.252051,0.675691
1522,0,3.80306,-0.0565582,0.254828,0.683649
1532,0,3.79888,-0.0600937,0.247175,0.659499
1535,0,3.80136,-0.0646746,0.248749,0.655312
1539,0,3.79888,-0.0607149,0.242989,0.646565
1543,0,3.8062,-0.056578,0.244266,0.660364
1557,0,3.79272,-0.0671098,0.246717,0.641545
1561,0,3.79504,-0.063755,0.242349,0.642843
1564,0,3.79152,-0.0675409,0.241184,0.635798
1572,0,3.79562,-0.0655323,0.245938,0.645832
1574,0,3.79948,-0.0609778,0.245827,0.655914
1576,0,3.79727,-0.062614,0.24936,0.660552
1591,0,3.79454,-0.0554492,0.23644,0.642681
1593,0,3.79477,-0.066115,0.235313,0.620843
1595,0,3.79079,-0.0656857,0.232546,0.610935
1607,0,3.79463,-0.0639265,0.236729,0.621741
1609,0,3.79693,-0.0621075,0.235995,0.625572
1620,0,3.79404,-0.0725468,0.229935,0.596089
1624,0,3.79197,-0.0587736,0.223201,0.605371
1629,0,3.78704,-0.0736331,0.227123,0.58829
1633,0,3.78918,-0.072016,0.225998,0.589219
1636,0,3.78933,-0.0790688,0.2282,0.583517
1641,0,3.78713,-0.07372,0.22567,0.583642
1645,0,3.79014,-0.0727071,0.229933,0.594766
1647,0,3.78872,-0.0718714,0.232715,0.603004
1649,0,3.78981,-0.0692494,0.233317,0.610695
1652,0,3.79263,-0.0687607,0.233316,0.616827
1661,0,3.78867,-0.0740726,0.223502,0.585602
1666,0,3.78667,-0.0662015,0.221894,0.589624
1670,0,3.78413,-0.0826612,0.225152,0.567901
1673,0,3.7857,-0.0720932,0.218543,0.572081
1677,0,3.78299,-0.0797486,0.219287,0.562721
1682,0,3.78123,-0.0709673,0.216698,0.574328
1684,0,3.78285,-0.0806904,0.214914,0.552859
1686,0,3.77678,-0.09177,0.221329,0.550451
1695,0,3.78158,-0.0768611,0.212356,0.553871
1702,0,3.77918,-0.0844695,0.216128,0.548409
1704,0,3.78029,-0.082866,0.218161,0.556003
1706,0,3.78083,-0.0816917,0.220037,0.559103
1716,0,3.77941,-0.0647088,0.208524,0.563506
1718,0,3.77582,-0.0868389,0.208789,0.531156
1720,0,3.76938,-0.0939353,0.210397,0.525733
1724,0,3.77384,-0.0939976,0.204687,0.515137
1726,0,3.77476,-0.0907349,0.204909,0.517814
1730,0,3.77217,-0.0854924,0.2053,0.528866
1732,0,3.77005,-0.0915093,0.20623,0.520606
1735,0,3.77016,-0.0941514,0.203679,0.513394
1740,0,3.76478,-0.0922417,0.203741,0.513404
1742,0,3.76642,-0.0985745,0.20127,0.501954
1744,0,3.76884,-0.0983173,0.200489,0.498584
1747,0,3.77157,-0.0923603,0.201277,0.509225
1750,0,3.77307,-0.0885356,0.196501,0.504389
1752,0,3.7698,-0.0991159,0.198226,0.492356
1754,0,3.76941,-0.0958703,0.199095,0.49845
1756,0,3.77295,-0.090409,0.194886,0.495813
1758,0,3.77078,-0.0941691,0.1944,0.48933
1760,0,3.76849,-0.0973791,0.196308,0.48985
1762,0,3.76965,-0.0935888,0.189289,0.481165
1764,0,3.76724,-0.0996028,0.193488,0.481804
1766,0,3.76667,-0.0990162,0.191992,0.477521
1768,0,3.76525,-0.101654,0.192228,0.476705
1770,0,3.76472,-0.102346,0.189368,0.470669
1772,0,3.76382,-0.104126,0.187801,0.465425
1774,0,3.76251,-0.106458,0.187732,0.460335
1776,0,3.7628,-0.106196,0.18755,0.459911
1780,0,3.76878,-0.105147,0.185068,0.467512
1782,0,3.7636,-0.107993,0.188796,0.460691
1784,0,3.76235,-0.105871,0.188505,0.463069
1793,0,3.76559,-0.0953123,0.194479,0.490474
1795,0,3.7646,-0.093323,0.194827,0.489428
1797,0,3.7603,-0.100116,0.1958,0.48259
1799,0,3.76646,-0.0964631,0.193321,0.485206
1801,0,3.7648,-0.0964665,0.191764,0.481381
1803,0,3.75709,-0.0979579,0.190671,0.474339
1805,0,3.76209,-0.102522,0.187566,0.46596
1807,0,3.76517,-0.0959767,0.181154,0.460227
1809,0,3.76202,-0.105731,0.183756,0.453779
1811,0,3.76487,-0.0986577,0.180512,0.453487
1813,0,3.75931,-0.105779,0.182465,0.447982
1815,0,3.76056,-0.105082,0.179756,0.445881
1817,0,3.7638,-0.105338,0.179624,0.444623
1819,0,3.76047,-0.104938,0.178085,0.442367
1821,0,3.76089,-0.105199,0.177771,0.437281
1823,0,3.76328,-0.100759,0.176584,0.437652
1825,0,3.76137,-0.10563,0.17917,0.440405
1827,0,3.7633,-0.101554,0.177798,0.441453
1829,0,3.76262,-0.101426,0.176874,0.438639
1831,0,3.75879,-0.108767,0.178735,0.437701
1833,0,3.7598,-0.106037,0.178975,0.438
1835,0,3.76019,-0.107478,0.180691,0.440676
1837,0,3.76231,-0.102116,0.179578,0.443596
1840,0,3.76281,-0.0881614,0.171982,0.44438
1843,0,3.76089,-0.101203,0.172974,0.433479
1845,0,3.75892,-0.10434,0.172458,0.423282
1848,0,3.76258,-0.0940544,0.167968,0.426472
1850,0,3.76037,-0.102529,0.16976,0.421388
1853,0,3.76093,-0.104046,0.167341,0.410501
1855,0,3.7613,-0.0989756,0.167885,0.41728
1865,0,3.76343,-0.095797,0.167506,0.423421
1867,0,3.76348,-0.102127,0.171088,0.424848
1869,0,3.76374,-0.0977383,0.169478,0.421671
1871,0,3.75741,-0.105011,0.173822,0.424903
1873,0,3.76234,-0.0991768,0.169682,0.422092
1878,0,3.7609,-0.104224,0.167798,0.409209
1885,0,3.76001,-0.101377,0.160214,0.395954
1887,0,3.76229,-0.101113,0.155042,0.383791