File: calce_correlation_analysis/matrices/CALCE_CS2_35_cycle_feature_matrix.csv
cycle_number,rul,voltage,current,capacity,charge_capacity
7,519,3.8574,-0.00857841,0.19179,0.739076
8,518,3.85835,-0.0109275,0.19224,0.734582
9,517,3.86016,-0.0100284,0.190778,0.729877
10,516,3.85844,-0.0115806,0.191239,0.727748
11,515,3.86165,-0.0155904,0.19378,0.727882
12,514,3.86032,-0.01119,0.192253,0.732902
13,513,3.85962,-0.0103409,0.192252,0.733356
14,512,3.85928,-0.0101415,0.192253,0.733234
15,511,3.85909,-0.0102479,0.192243,0.733216
16,510,3.85897,-0.010349,0.192244,0.733031
17,509,3.85882,-0.0103784,0.192239,0.732954
18,508,3.8585,-0.0101867,0.192227,0.732706
19,507,3.85835,-0.0101472,0.19221,0.732347
20,506,3.86139,-0.00711169,0.189771,0.731017
21,505,3.86039,-0.00897311,0.190271,0.730187
22,504,3.86036,-0.00871648,0.190272,0.72976
23,503,3.86026,-0.00887724,0.190264,0.729648
24,502,3.86,-0.00879008,0.190251,0.729375
25,501,3.85988,-0.00875522,0.19024,0.729096
26,500,3.85976,-0.00865354,0.190238,0.728712
27,499,3.85754,-0.00578312,0.187651,0.727367
28,498,3.86108,-0.00989952,0.187139,0.717866
29,497,3.86437,-0.00826929,0.185164,0.713825
30,496,3.86382,-0.00958202,0.185641,0.711585
31,495,3.86231,-0.0113941,0.18611,0.709664
32,494,3.86687,-0.0129226,0.188183,0.710913
33,493,3.86275,-0.0102448,0.187709,0.715695
34,492,3.86261,-0.0054143,0.184157,0.717364
35,491,3.86443,-0.00855269,0.183638,0.708497
36,490,3.86535,-0.00988412,0.184115,0.705422
37,489,3.8643,-0.0113338,0.184607,0.703865
38,488,3.86353,-0.0115139,0.184574,0.703141
39,487,3.86674,-0.0145414,0.187168,0.704007
40,486,3.86456,-0.00998938,0.185664,0.71045
41,485,3.86225,-0.00851769,0.185088,0.712088
42,484,3.8624,-0.00975204,0.184038,0.705301
43,483,3.86643,-0.0100273,0.182606,0.699731
44,482,3.86622,-0.00987346,0.182597,0.699462
45,481,3.8658,-0.00981393,0.182571,0.699109
46,480,3.86609,-0.0145496,0.185626,0.698553
47,479,3.86599,-0.00989613,0.184142,0.704421
48,478,3.86261,-0.0115314,0.186082,0.707391
61,477,3.85635,-0.0119743,0.186633,0.710552
63,476,3.86001,-0.0119748,0.186641,0.708659
64,475,3.85973,-0.00979807,0.184091,0.706542
65,474,3.86007,-0.0151033,0.186124,0.700034
66,473,3.8639,-0.0117881,0.183128,0.699294
67,472,3.86427,-0.011394,0.183111,0.698779
68,471,3.86142,-0.0132574,0.183564,0.696937
69,470,3.86438,-0.0149365,0.184113,0.694813
70,469,3.86242,-0.0136513,0.18411,0.695509
71,468,3.86373,-0.00976137,0.181077,0.695206
72,467,3.86419,-0.0134533,0.182068,0.6909
73,466,3.86341,-0.0137234,0.18257,0.689394
74,465,3.86348,-0.0137619,0.182563,0.688914
75,464,3.86463,-0.0116841,0.180059,0.687697
76,463,3.86594,-0.0147229,0.182563,0.687324
77,462,3.86431,-0.0130384,0.182039,0.689695
78,461,3.86383,-0.0134456,0.182024,0.689196
79,460,3.86266,-0.014961,0.182515,0.688046
80,459,3.86613,-0.0118462,0.18006,0.686464
81,458,3.8667,-0.0118822,0.180061,0.686001
82,457,3.86603,-0.0117979,0.180051,0.685988
83,456,3.86464,-0.0134162,0.180533,0.684721
84,455,3.8647,-0.0132496,0.180525,0.684026
85,454,3.86485,-0.0134059,0.180508,0.683406
86,453,3.86354,-0.0146677,0.181004,0.6824
87,452,3.86364,-0.0150894,0.180993,0.681717
88,451,3.86598,-0.0124219,0.179054,0.679409
89,450,3.86401,-0.0149445,0.180989,0.681194
90,449,3.86538,-0.0123511,0.179035,0.67906
91,448,3.86568,-0.0136523,0.179021,0.678683
92,447,3.86589,-0.0135701,0.179012,0.678247
98,446,3.87598,-0.144783,0.221087,0.505924
99,445,3.86483,-0.0124323,0.179018,0.678967
100,444,3.86274,-0.0142925,0.17951,0.677629
101,443,3.86536,-0.0155822,0.181568,0.679305
102,442,3.86415,-0.0123424,0.180533,0.683727
109,441,3.85677,-0.00962553,0.181068,0.697532
110,440,3.86209,-0.0137552,0.182605,0.689709
111,439,3.86243,-0.0142452,0.182618,0.689725
112,438,3.8609,-0.0142498,0.18259,0.689805
113,437,3.86028,-0.0157306,0.18308,0.687588
114,436,3.864,-0.0157847,0.184625,0.690957
115,435,3.86158,-0.0125928,0.183598,0.695743
116,434,3.85638,-0.0112026,0.18152,0.693115
117,433,3.86208,-0.0139545,0.181075,0.68444
118,432,3.86106,-0.0157804,0.181564,0.682417
119,431,3.86154,-0.0158136,0.181551,0.681476
120,430,3.86322,-0.0137361,0.179066,0.679782
121,429,3.86552,-0.0188977,0.184132,0.681192
123,428,3.858,-0.0114377,0.17999,0.687321
124,427,3.86169,-0.0153939,0.179505,0.677033
125,426,3.86284,-0.0175109,0.180555,0.673837
128,425,3.86625,-0.0185815,0.180568,0.672057
129,424,3.86439,-0.0150936,0.181003,0.67997
130,423,3.86388,-0.0136087,0.1805,0.682019
131,422,3.86268,-0.0142112,0.181009,0.681343
132,421,3.86258,-0.0144048,0.181012,0.681313
133,420,3.86251,-0.0140182,0.181011,0.681087
134,419,3.8626,-0.0140679,0.181016,0.681074
135,418,3.86232,-0.0144415,0.181006,0.681369
136,417,3.86214,-0.0142304,0.181002,0.681248
137,416,3.86203,-0.0142526,0.180996,0.680996
138,415,3.86539,-0.0113155,0.178553,0.679825
139,414,3.86535,-0.0113648,0.178542,0.679615
140,413,3.86537,-0.0112273,0.17854,0.679383
141,412,3.86532,-0.0110265,0.178542,0.679309
142,411,3.86534,-0.0109564,0.178542,0.679217
143,410,3.86566,-0.0112112,0.178558,0.679287
144,409,3.86181,-0.0141455,0.181004,0.68078
146,408,3.8614,-0.00801216,0.174443,0.675313
147,407,3.86582,-0.0159474,0.177037,0.663796
148,406,3.86462,-0.0143632,0.176476,0.665063
149,405,3.86563,-0.0156461,0.176456,0.663986
150,404,3.86219,-0.0176109,0.177455,0.661492
151,403,3.86701,-0.0176405,0.17904,0.664695
153,402,3.86078,-0.00982145,0.173433,0.666954
154,401,3.86561,-0.0161149,0.17546,0.657797
155,400,3.86972,-0.0210596,0.178529,0.657121
159,399,3.86446,-0.0107495,0.173425,0.66623
160,398,3.86343,-0.019257,0.177978,0.659035
161,397,3.86436,-0.0172783,0.176937,0.661597
162,396,3.86294,-0.0176435,0.177442,0.660772
163,395,3.86386,-0.0190061,0.177468,0.660645
164,394,3.86506,-0.0177506,0.178997,0.66476
166,393,3.86166,-0.00943792,0.173444,0.66603
167,392,3.86551,-0.0160875,0.175485,0.658171
169,391,3.86476,-0.0139143,0.174418,0.661994
170,390,3.86685,-0.0151705,0.174966,0.658238
171,389,3.86835,-0.0189516,0.177536,0.659781
172,388,3.86378,-0.0160136,0.178461,0.667556
173,387,3.86337,-0.0144221,0.177956,0.669526
176,386,3.86428,-0.0176147,0.177483,0.660051
178,385,3.86333,-0.0130613,0.177461,0.671856
179,384,3.86344,-0.0146843,0.177979,0.669658
180,383,3.86329,-0.0145953,0.177986,0.669835
181,382,3.86418,-0.0131212,0.177483,0.67069
182,381,3.86415,-0.0128072,0.177484,0.670795
183,380,3.86407,-0.0129941,0.177488,0.670951
184,379,3.86446,-0.0131201,0.177506,0.671311
185,378,3.86364,-0.0130829,0.177514,0.671753
186,377,3.8647,-0.0114624,0.176997,0.672564
187,376,3.86464,-0.011374,0.176995,0.672631
188,375,3.86472,-0.0116033,0.177004,0.672784
189,374,3.86458,-0.0115808,0.177012,0.672978
190,373,3.86451,-0.0115698,0.177009,0.673072
191,372,3.86446,-0.0115478,0.177005,0.67308
192,371,3.86437,-0.0115117,0.177029,0.673152
193,370,3.86418,-0.0119996,0.177028,0.673383
194,369,3.86417,-0.0116739,0.177026,0.673265
195,368,3.86416,-0.0119446,0.177029,0.673373
196,367,3.86093,-0.00871412,0.174449,0.671753
202,366,3.86248,-0.0162639,0.178447,0.666646
203,365,3.86541,-0.01149,0.175482,0.667567
205,364,3.86578,-0.00502229,0.178061,0.702871
206,363,3.86315,-0.0191958,0.184151,0.685285
207,362,3.8631,-0.0143129,0.18262,0.68953
208,361,3.86204,-0.0146198,0.182643,0.690412
209,360,3.86141,-0.0142385,0.182641,0.690562
210,359,3.86087,-0.0143755,0.182644,0.690601
211,358,3.86168,-0.0131044,0.182126,0.691356
212,357,3.86157,-0.0129524,0.182129,0.691339
213,356,3.86105,-0.0130726,0.182122,0.691474
214,355,3.86072,-0.0131213,0.182115,0.691305
215,354,3.86042,-0.0127263,0.182113,0.690959
216,353,3.86017,-0.0129151,0.182092,0.690679
217,352,3.85971,-0.0145125,0.1826,0.689449
218,351,3.85974,-0.0129053,0.182084,0.690224
219,350,3.85932,-0.0143371,0.182594,0.689088
220,349,3.85938,-0.0141913,0.18259,0.688944
222,348,3.85906,-0.0130066,0.182063,0.690856
223,347,3.85595,-0.0110718,0.180002,0.687171
224,346,3.85704,-0.0160431,0.180013,0.676927
225,345,3.86043,-0.0190542,0.181083,0.67304
226,344,3.85828,-0.0173786,0.180528,0.674135
227,343,3.86012,-0.015879,0.17855,0.671364
228,342,3.86432,-0.020757,0.181655,0.671
229,341,3.85942,-0.0173337,0.182045,0.678673
230,340,3.86095,-0.0127701,0.179031,0.679259
231,339,3.85701,-0.0158526,0.178489,0.671821
233,338,3.85993,-0.0176341,0.178994,0.669081
234,337,3.86361,-0.0156339,0.176526,0.666257
235,336,3.8601,-0.0176766,0.177531,0.663625
236,335,3.86509,-0.0177951,0.179086,0.666733
238,334,3.85801,-0.0128477,0.175982,0.66933
239,333,3.86058,-0.018794,0.177482,0.662948
240,332,3.85977,-0.0193674,0.177984,0.660693
241,331,3.863,-0.0178606,0.176034,0.657998
242,330,3.86044,-0.0197456,0.176521,0.656734
243,329,3.86722,-0.0202099,0.17808,0.659878
244,328,3.86131,-0.0177501,0.178998,0.666701
245,327,3.8612,-0.0137094,0.175953,0.667457
246,326,3.85882,-0.0172211,0.175431,0.659194
247,325,3.86125,-0.0213354,0.177014,0.653768
248,324,3.8612,-0.0201338,0.17647,0.654963
249,323,3.86086,-0.0208309,0.176457,0.654362
250,322,3.86549,-0.0212551,0.177085,0.65282
251,321,3.86161,-0.0193701,0.178015,0.660222
252,320,3.86173,-0.0179214,0.177498,0.662033
255,319,3.87128,-0.0260351,0.178141,0.648964
256,318,3.86349,-0.0193958,0.178048,0.660317
257,317,3.86238,-0.0178583,0.177525,0.662989
258,316,3.86388,-0.0155855,0.176483,0.664706
259,315,3.86269,-0.0160864,0.17701,0.663857
260,314,3.86275,-0.0159128,0.177012,0.663756
261,313,3.86244,-0.0164402,0.177009,0.664204
262,312,3.86243,-0.0161669,0.17701,0.664079
263,311,3.86211,-0.0162404,0.177006,0.664059
264,310,3.86202,-0.0158962,0.177004,0.663678
265,309,3.86196,-0.0162772,0.177001,0.663786
266,308,3.8629,-0.0155882,0.176477,0.664464
267,307,3.8619,-0.0162857,0.176995,0.663524
268,306,3.86194,-0.016412,0.176993,0.663531
269,305,3.86186,-0.0163129,0.176996,0.663466
270,304,3.86173,-0.016088,0.176991,0.663375
271,303,3.86268,-0.0145752,0.176469,0.664139
272,302,3.86252,-0.0143351,0.176454,0.663912
273,301,3.85828,-0.0127491,0.172893,0.65787
274,300,3.86223,-0.018833,0.174412,0.650462
275,299,3.86145,-0.0206659,0.174944,0.648888
276,298,3.86381,-0.0173938,0.172457,0.647333
277,297,3.86326,-0.0194766,0.172965,0.645148
278,296,3.86491,-0.0229522,0.17755,0.649098
279,295,3.86247,-0.0182089,0.175989,0.656086
280,294,3.85957,-0.0130872,0.172889,0.655968
281,293,3.86091,-0.0180158,0.172947,0.646143
282,292,3.86301,-0.019873,0.173476,0.643587
283,291,3.86299,-0.0209764,0.173473,0.643779
284,290,3.86331,-0.0187751,0.172937,0.644616
285,289,3.86554,-0.0241297,0.176053,0.644758
286,288,3.86304,-0.0178859,0.174497,0.650838
288,287,3.85908,-0.0156961,0.171856,0.649805
289,286,3.86116,-0.0223849,0.173939,0.641449
290,285,3.86033,-0.0225986,0.173929,0.641127
291,284,3.86116,-0.0232695,0.174477,0.639693
292,283,3.86013,-0.0235659,0.174475,0.640197
293,282,3.86471,-0.0217645,0.175508,0.645075
295,281,3.85872,-0.0152684,0.171873,0.648947
296,280,3.86165,-0.0199845,0.171961,0.639468
297,279,3.86457,-0.019356,0.171453,0.639278
298,278,3.86411,-0.0192413,0.171432,0.639206
299,277,3.86088,-0.0221521,0.172465,0.637253
300,276,3.8664,-0.0249866,0.175077,0.637339
301,275,3.86258,-0.0209567,0.174935,0.647121
302,274,3.86404,-0.0167551,0.172464,0.647373
305,273,3.86932,-0.0234113,0.172506,0.632496
306,272,3.86329,-0.0210915,0.171958,0.638448
307,271,3.86618,-0.0218392,0.174037,0.640977
308,270,3.86072,-0.0216895,0.175466,0.646769
309,269,3.86109,-0.0200362,0.174934,0.648071
310,268,3.86094,-0.0201961,0.174942,0.648266
311,267,3.86097,-0.0199887,0.174941,0.648223
312,266,3.86302,-0.0182351,0.174444,0.649146
313,265,3.86226,-0.0184707,0.174452,0.65
314,264,3.86209,-0.0179011,0.17446,0.650027
315,263,3.86299,-0.0168158,0.173939,0.651122
316,262,3.86296,-0.0161606,0.173936,0.650879
317,261,3.86289,-0.01678,0.173944,0.651307
318,260,3.8628,-0.0164823,0.173943,0.651253
319,259,3.86285,-0.016838,0.173945,0.651509
320,258,3.86274,-0.0169617,0.173967,0.65155
321,257,3.86281,-0.0164492,0.173979,0.651586
322,256,3.86234,-0.016991,0.173969,0.651856
323,255,3.86241,-0.0170241,0.173966,0.651784
324,254,3.85651,-0.0134103,0.171338,0.650022
325,253,3.86139,-0.0193249,0.17142,0.639738
326,252,3.86152,-0.0220496,0.172477,0.636433
327,251,3.8623,-0.0201607,0.17195,0.637125
328,250,3.86,-0.0223099,0.172453,0.636428
329,249,3.86453,-0.0265115,0.175049,0.636958
330,248,3.86391,-0.018696,0.172964,0.644134
332,247,3.85776,-0.0154535,0.170368,0.644734
333,246,3.8609,-0.0219113,0.172444,0.635851
334,245,3.86186,-0.0222218,0.17244,0.635793
335,244,3.85855,-0.0237489,0.172944,0.634913
336,243,3.86138,-0.0204252,0.17044,0.632539
337,242,3.86597,-0.0252366,0.175041,0.635739
339,241,3.86201,-0.0136329,0.169898,0.644659
340,240,3.86067,-0.0190994,0.169929,0.635416
341,239,3.8599,-0.02418,0.172937,0.63365
342,238,3.86139,-0.0231438,0.172423,0.63476
343,237,3.85912,-0.0239994,0.172941,0.634337
344,236,3.86308,-0.0235442,0.173003,0.633811
347,235,3.85698,-0.0169384,0.170841,0.641972
348,234,3.85904,-0.0235694,0.172916,0.634584
349,233,3.85982,-0.0241945,0.172923,0.634157
350,232,3.86246,-0.0206894,0.170455,0.632958
351,231,3.86196,-0.0203113,0.170435,0.632089
352,230,3.865,-0.0240323,0.173002,0.633963
353,229,3.86053,-0.0207898,0.170416,0.633305
354,228,3.86139,-0.0229245,0.170925,0.630458
355,227,3.86782,-0.0273382,0.173491,0.627899
356,226,3.85957,-0.0240156,0.172944,0.634617
357,225,3.86117,-0.0222909,0.170972,0.63182
358,224,3.86743,-0.0211076,0.171984,0.63586
359,223,3.8605,-0.0221573,0.173942,0.640815
360,222,3.86119,-0.0205354,0.173426,0.642131
361,221,3.86099,-0.0203212,0.173432,0.642381
362,220,3.86082,-0.0203647,0.173437,0.642583
363,219,3.86095,-0.0202804,0.173441,0.642704
365,218,3.87372,-0.0423337,0.180044,0.61167
366,217,3.8649,-0.0189606,0.172995,0.645194
367,216,3.86262,-0.0189391,0.174443,0.649561
368,215,3.86188,-0.0188379,0.174459,0.650392
369,214,3.85757,-0.0166445,0.172393,0.647518
370,213,3.8613,-0.0197915,0.173444,0.642623
371,212,3.86271,-0.0208134,0.173479,0.643441
372,211,3.86306,-0.0190265,0.172991,0.645603
373,210,3.86233,-0.0172345,0.172466,0.647038
374,209,3.86333,-0.0185425,0.174464,0.648877
375,208,3.86199,-0.0166189,0.173949,0.651283
376,207,3.86147,-0.0141094,0.171441,0.650931
377,206,3.86056,-0.0188036,0.172945,0.645366
378,205,3.86053,-0.0202964,0.173465,0.643587
379,204,3.86238,-0.0192686,0.172979,0.64516
380,203,3.86206,-0.0169176,0.17246,0.646435
381,202,3.85891,-0.0223813,0.175465,0.646644
382,201,3.861,-0.0191099,0.174444,0.649426
383,200,3.86028,-0.0191267,0.17445,0.650137
384,199,3.85662,-0.01742,0.172393,0.647467
385,198,3.86027,-0.0207386,0.173445,0.643086
386,197,3.85967,-0.0209241,0.173435,0.643141
387,196,3.85915,-0.0208536,0.173421,0.642873
388,195,3.86151,-0.0171014,0.17094,0.641053
389,194,3.8646,-0.0209852,0.17349,0.642209
390,193,3.86269,-0.0176893,0.172461,0.646411
391,192,3.85926,-0.0175218,0.172407,0.646928
392,191,3.86125,-0.0173919,0.170925,0.641349
393,190,3.86239,-0.0193659,0.171461,0.639743
394,189,3.85961,-0.0203856,0.173409,0.641673
395,188,3.86074,-0.0208503,0.173433,0.642371
396,187,3.86049,-0.0209379,0.173444,0.642675
397,186,3.86321,-0.0176307,0.172452,0.645522
398,185,3.86212,-0.0175519,0.172466,0.646659
399,184,3.86295,-0.0159084,0.171951,0.647562
400,183,3.86276,-0.0159346,0.171955,0.647751
401,182,3.86271,-0.015981,0.171956,0.647786
402,181,3.8599,-0.0191991,0.174423,0.648931
403,180,3.86027,-0.0177227,0.173902,0.65013
404,179,3.86012,-0.0176885,0.173902,0.650273
405,178,3.86005,-0.0175789,0.173905,0.650301
406,177,3.86001,-0.0177232,0.173908,0.650379
407,176,3.85981,-0.0171694,0.1739,0.650148
408,175,3.8599,-0.017478,0.173903,0.650246
409,174,3.8599,-0.0172703,0.173904,0.650104
410,173,3.85998,-0.017689,0.173902,0.65023
411,172,3.85988,-0.0177416,0.173901,0.650261
412,171,3.85987,-0.0175171,0.173894,0.650216
413,170,3.85968,-0.0177085,0.173897,0.650221
414,169,3.85665,-0.0161834,0.17185,0.647433
415,168,3.87695,-0.0311493,0.17776,0.634847
416,167,3.8632,-0.0144587,0.172959,0.656583
417,166,3.86417,-0.0155699,0.173487,0.653717
418,165,3.86476,-0.0162981,0.175004,0.658058
419,164,3.86397,-0.01482,0.174505,0.66077
420,163,3.85999,-0.0126607,0.172461,0.65869
421,162,3.86183,-0.0176283,0.173997,0.653361
422,161,3.86323,-0.0156689,0.173483,0.65394
423,160,3.86284,-0.0157121,0.173475,0.653953
424,159,3.86072,-0.0175621,0.173962,0.652802
425,158,3.8634,-0.0205096,0.176526,0.653576
426,157,3.86101,-0.0176017,0.175487,0.657859
427,156,3.85967,-0.015707,0.174925,0.658809
428,155,3.85847,-0.0173083,0.173924,0.652853
429,154,3.86173,-0.018512,0.17446,0.649644
430,153,3.85993,-0.0189505,0.174457,0.650542
431,152,3.85795,-0.0170019,0.172405,0.647277
432,151,3.86107,-0.0222087,0.173994,0.641791
433,150,3.86253,-0.0206986,0.174997,0.647885
434,149,3.86188,-0.0174699,0.173962,0.651703
435,148,3.85444,-0.0173243,0.172394,0.647933
436,147,3.85933,-0.0208503,0.171949,0.639025
440,146,3.86528,-0.0256012,0.175037,0.636655
441,145,3.86239,-0.0189359,0.172953,0.644231
442,144,3.86274,-0.0171059,0.172441,0.645724
444,143,3.86242,-0.0158293,0.171933,0.648668
445,142,3.86345,-0.0156307,0.171928,0.647373
446,141,3.86322,-0.0157256,0.17194,0.647771
447,140,3.86291,-0.0151674,0.17194,0.647765
448,139,3.86263,-0.0158762,0.171936,0.648044
449,138,3.86236,-0.0156858,0.171911,0.647413
450,137,3.8616,-0.0172788,0.172424,0.646274
451,136,3.86154,-0.0174118,0.172418,0.646048
452,135,3.86142,-0.0174326,0.172414,0.645762
453,134,3.86165,-0.0175355,0.17241,0.645654
454,133,3.86149,-0.0171404,0.172404,0.645471
455,132,3.86135,-0.0172225,0.172403,0.645392
456,131,3.86131,-0.0173522,0.172392,0.645349
457,130,3.86119,-0.0175174,0.17239,0.645216
458,129,3.8546,-0.0155893,0.168794,0.638167
459,128,3.86273,-0.0206358,0.168928,0.626743
463,127,3.86709,-0.0262533,0.172024,0.624276
464,126,3.86421,-0.0190262,0.169938,0.632551
465,125,3.87109,-0.0230201,0.169475,0.626447
466,124,3.86091,-0.0226589,0.16943,0.626109
467,123,3.86308,-0.0288019,0.172521,0.624014
470,122,3.85598,-0.0191479,0.168326,0.629157
471,121,3.86143,-0.0228522,0.167905,0.619668
472,120,3.8611,-0.0242915,0.168411,0.616972
474,119,3.81633,-0.490815,0.303938,0.217284
475,118,3.861,-0.0202773,0.165338,0.617083
476,117,3.86053,-0.0275041,0.168903,0.614036
477,116,3.86485,-0.0262473,0.168996,0.614118
478,115,3.8643,-0.0233575,0.169441,0.623253
480,114,3.85744,-0.0196024,0.166844,0.623216
481,113,3.86003,-0.0267712,0.168935,0.616138
482,112,3.86012,-0.0264856,0.168929,0.615592
483,111,3.8581,-0.028391,0.169443,0.614233
484,110,3.86156,-0.0250321,0.166937,0.612427
485,109,3.86678,-0.0283146,0.169561,0.613904
486,108,3.8619,-0.0246771,0.169937,0.62206
487,107,3.86055,-0.0229491,0.169371,0.623955
488,106,3.8602,-0.0214672,0.165869,0.616522
489,105,3.86198,-0.0269806,0.167471,0.611097
490,104,3.85967,-0.0267913,0.167426,0.610682
491,103,3.86059,-0.0276658,0.167401,0.609503
492,102,3.86096,-0.0272958,0.167402,0.608936
493,101,3.86417,-0.0268947,0.16895,0.613259
494,100,3.86323,-0.0231205,0.167904,0.61788
495,99,3.85768,-0.0195192,0.165286,0.61675
496,98,3.85971,-0.0284496,0.167929,0.608364
497,97,3.86169,-0.0268047,0.167408,0.609183
498,96,3.86003,-0.0262774,0.167399,0.6091
499,95,3.86105,-0.0251552,0.166853,0.610101
500,94,3.8642,-0.0287594,0.168014,0.607748
501,93,3.86197,-0.0246643,0.168395,0.61532
502,92,3.86249,-0.0230706,0.167866,0.617012
503,91,3.86008,-0.0193832,0.163834,0.612221
504,90,3.8643,-0.0228139,0.164893,0.606686
505,89,3.86367,-0.0232768,0.16489,0.607037
506,88,3.86438,-0.0217365,0.164352,0.60796
507,87,3.86209,-0.0238894,0.16484,0.606569
508,86,3.86618,-0.0263415,0.167447,0.607198
509,85,3.86459,-0.0222877,0.165868,0.613038
510,84,3.86431,-0.0210973,0.165876,0.613341
511,83,3.86397,-0.0211949,0.165875,0.613653
512,82,3.86401,-0.0208284,0.165876,0.613429
513,81,3.86401,-0.0210829,0.165871,0.613499
514,80,3.86391,-0.0212635,0.165868,0.61367
516,79,3.86372,-0.0188991,0.165334,0.616266
517,78,3.86383,-0.0209762,0.165866,0.613554
519,77,3.86378,-0.019556,0.165327,0.616294
520,76,3.86365,-0.0212197,0.165853,0.613358
521,75,3.86354,-0.0209208,0.165849,0.612935
522,74,3.86295,-0.0208919,0.16583,0.612392
523,73,3.8633,-0.0210962,0.165819,0.612107
524,72,3.87366,-0.0249074,0.165434,0.605074
525,71,3.8631,-0.0209261,0.164323,0.608426
526,70,3.86654,-0.0241144,0.164889,0.605829
527,69,3.86516,-0.0218313,0.165828,0.611757
528,68,3.86393,-0.0220471,0.165829,0.612627
529,67,3.85846,-0.021059,0.164266,0.608203
530,66,3.86413,-0.023051,0.163356,0.601209
531,65,3.86567,-0.0225588,0.162822,0.601601
532,64,3.8622,-0.0249101,0.163873,0.599511
533,63,3.86247,-0.0251984,0.163846,0.598679
534,62,3.86401,-0.028625,0.166423,0.599435
535,61,3.86281,-0.0250411,0.165371,0.603949
536,60,3.86358,-0.0228946,0.164839,0.605264
537,59,3.86023,-0.0217093,0.162728,0.602538
538,58,3.86393,-0.0251699,0.162367,0.594277
539,57,3.86466,-0.0233767,0.161817,0.594607
540,56,3.8639,-0.0245766,0.161793,0.594569
541,55,3.86526,-0.0245784,0.1618,0.593815
542,54,3.86624,-0.0267885,0.164378,0.595634
543,53,3.86538,-0.0218676,0.162783,0.600889
544,52,3.86278,-0.0225253,0.162725,0.600922
545,51,3.86221,-0.0238846,0.161748,0.594705
546,50,3.86392,-0.024759,0.160304,0.590005
547,49,3.86296,-0.0270457,0.162818,0.589872
548,48,3.86462,-0.0230261,0.159758,0.59065
549,47,3.86406,-0.0246091,0.160251,0.588109
550,46,3.86773,-0.0266602,0.162346,0.590465
551,45,3.86653,-0.0226315,0.161299,0.595508
552,44,3.86096,-0.0208715,0.160643,0.596238
553,43,3.86196,-0.026585,0.160761,0.587327
554,42,3.86547,-0.02536,0.1608,0.58649
555,41,3.86511,-0.0243081,0.160259,0.587994
556,40,3.86434,-0.0245459,0.160239,0.587659
557,39,3.86533,-0.0267711,0.160799,0.585809
558,38,3.86446,-0.0261764,0.162274,0.590812
559,37,3.8643,-0.0246488,0.161741,0.592605
560,36,3.86439,-0.0244962,0.161752,0.592861
561,35,3.86426,-0.0239251,0.161748,0.593213
563,34,3.86522,-0.0202574,0.160691,0.597315
564,33,3.86549,-0.0221717,0.161232,0.594183
565,32,3.86547,-0.0225454,0.161235,0.594151
566,31,3.86532,-0.0227248,0.161236,0.594193
567,30,3.86524,-0.0228371,0.161239,0.594166
568,29,3.86535,-0.0224242,0.161247,0.594385
569,28,3.86534,-0.0222715,0.161246,0.594597
570,27,3.86588,-0.0206358,0.160707,0.595155
571,26,3.86502,-0.0227284,0.161236,0.594235
572,25,3.8661,-0.0204079,0.160701,0.595052
573,24,3.86609,-0.0209343,0.160709,0.594912
574,23,3.8739,-0.0281887,0.159827,0.582063
575,22,3.86263,-0.0261513,0.159229,0.582497
576,21,3.86433,-0.0301145,0.160169,0.578239
577,20,3.86436,-0.0272748,0.16129,0.583608
578,19,3.86516,-0.024219,0.160229,0.586991
579,18,3.86099,-0.0230105,0.158165,0.584273
580,17,3.86247,-0.0278434,0.159736,0.578837
581,16,3.86231,-0.0288787,0.159719,0.578277
582,15,3.86331,-0.0277313,0.159743,0.578301
583,14,3.86229,-0.0291193,0.159733,0.578174
584,13,3.86543,-0.0291762,0.159795,0.577785
585,12,3.8662,-0.0249536,0.15876,0.581914
586,11,3.86678,-0.0230438,0.158228,0.583202
587,10,3.86207,-0.0225892,0.156681,0.579876
588,9,3.86351,-0.0264023,0.157708,0.575068
589,8,3.86551,-0.0272135,0.157726,0.573946
590,7,3.86475,-0.0267271,0.157719,0.574752
591,6,3.86427,-0.0271413,0.157702,0.574073
592,5,3.86793,-0.0270359,0.157776,0.573724
593,4,3.86765,-0.0227092,0.156722,0.577697
594,3,3.86351,-0.0267402,0.159188,0.578872
595,2,3.86244,-0.0231699,0.155167,0.574185
596,1,3.8641,-0.0262243,0.156193,0.568951
597,0,3.86493,-0.0277016,0.156196,0.567865
598,0,3.8642,-0.0275521,0.156171,0.567843
599,0,3.86277,-0.0289629,0.156683,0.566608
600,0,3.86646,-0.0327524,0.159326,0.567676
601,0,3.86656,-0.0244659,0.157206,0.575067
602,0,3.86723,-0.0230716,0.156682,0.576416
604,0,3.8643,-0.02316,0.155098,0.573679
605,0,3.86571,-0.0270707,0.156197,0.568179
606,0,3.86666,-0.0250133,0.155693,0.56952
607,0,3.86604,-0.0252467,0.155681,0.56991
608,0,3.86517,-0.0289148,0.158226,0.570648
609,0,3.86784,-0.0230777,0.156684,0.575688
610,0,3.86828,-0.0209881,0.156171,0.577685
611,0,3.86802,-0.0205854,0.156172,0.578233
612,0,3.86783,-0.0211821,0.156178,0.578311
613,0,3.86782,-0.0208826,0.156181,0.578537
614,0,3.86782,-0.0208203,0.156187,0.578641
615,0,3.86864,-0.0181913,0.155659,0.57921
616,0,3.86865,-0.0189855,0.155653,0.579199
617,0,3.8686,-0.0191552,0.15565,0.57909
618,0,3.86847,-0.0195024,0.155649,0.579009
619,0,3.86846,-0.0194313,0.155644,0.578948
620,0,3.86831,-0.0188408,0.155637,0.578992
621,0,3.86815,-0.0194957,0.155629,0.578655
623,0,3.8678,-0.0176613,0.155099,0.582463
624,0,3.87631,-0.0249905,0.157217,0.574375
625,0,3.865,-0.0211852,0.156085,0.578499
626,0,3.867,-0.0214894,0.154654,0.573236
627,0,3.86873,-0.0228249,0.156698,0.575308
628,0,3.86856,-0.01968,0.155636,0.578681
629,0,3.86576,-0.0164038,0.153592,0.576565
630,0,3.86691,-0.0198017,0.152608,0.569519
631,0,3.86882,-0.0216761,0.153138,0.566022
632,0,3.86872,-0.0215876,0.153142,0.566347
633,0,3.86697,-0.021947,0.153113,0.566314
634,0,3.86656,-0.0235802,0.153634,0.564768
635,0,3.8722,-0.0238243,0.155221,0.568052
637,0,3.86688,-0.0174115,0.153563,0.574974
638,0,3.86659,-0.0196335,0.152568,0.568214
639,0,3.86632,-0.0235633,0.153606,0.564224
640,0,3.86767,-0.0238252,0.153628,0.563826
641,0,3.8661,-0.0229815,0.153601,0.564382
642,0,3.86656,-0.0239645,0.153585,0.563342
643,0,3.86991,-0.0259288,0.155665,0.565766
644,0,3.86815,-0.0203263,0.154626,0.570468
645,0,3.86805,-0.0199451,0.154077,0.572142
646,0,3.86778,-0.0159476,0.150023,0.566959
647,0,3.86727,-0.0221497,0.151531,0.55923
651,0,3.86129,-0.0157932,0.148436,0.562222
653,0,3.86919,-0.0317008,0.152658,0.542947
656,0,3.86268,-0.0204587,0.144866,0.541188
658,0,3.86703,-0.0246999,0.142676,0.528946
659,0,3.86521,-0.0315256,0.144094,0.518557
660,0,3.86839,-0.0296871,0.142097,0.514744
661,0,3.86539,-0.0343515,0.142877,0.511371
665,0,3.86551,-0.0278094,0.13985,0.51257
666,0,3.86646,-0.0337252,0.14137,0.504738
667,0,3.8677,-0.0321598,0.139317,0.502139
668,0,3.8673,-0.0349447,0.139809,0.499694
670,0,3.86609,-0.0481759,0.144714,0.492913
671,0,3.86928,-0.0344175,0.141971,0.503878
673,0,3.86666,-0.0192683,0.134728,0.506469
674,0,3.86659,-0.0320346,0.135993,0.490489
675,0,3.86838,-0.0365473,0.137153,0.485894
676,0,3.86621,-0.0369122,0.137073,0.486156
677,0,3.86651,-0.0367039,0.137044,0.484877
678,0,3.8624,-0.0411944,0.137933,0.482015
679,0,3.86586,-0.0380687,0.135292,0.480298
681,0,3.86487,-0.0413043,0.136331,0.475321
684,0,3.86651,-0.0427901,0.136496,0.47475
685,0,3.86872,-0.042209,0.138536,0.480518
686,0,3.86954,-0.0357058,0.137162,0.486049
687,0,3.86595,-0.0353163,0.136971,0.486884
688,0,3.8674,-0.0370972,0.137595,0.484066
689,0,3.8668,-0.0352278,0.137022,0.485984
690,0,3.86945,-0.0341419,0.137145,0.484607
691,0,3.87009,-0.0327737,0.136665,0.487298
692,0,3.86828,-0.0331248,0.136629,0.487915
693,0,3.87089,-0.0330721,0.136739,0.486748
694,0,3.86973,-0.0308062,0.136175,0.48902
695,0,3.86883,-0.0329066,0.136711,0.487179
696,0,3.8683,-0.0330894,0.136651,0.486958
697,0,3.8681,-0.0316416,0.136621,0.485941
698,0,3.87092,-0.0298626,0.134629,0.483888
702,0,3.87113,-0.0191581,0.133748,0.504559
703,0,3.87059,-0.0290048,0.135742,0.491262
704,0,3.86782,-0.0335192,0.136705,0.488237
705,0,3.86792,-0.0335445,0.136653,0.486742
706,0,3.87125,-0.0313636,0.134685,0.484364
708,0,3.87156,-0.0218843,0.132715,0.495705
709,0,3.87219,-0.0289275,0.134289,0.48479
710,0,3.87297,-0.0269175,0.132285,0.482141
711,0,3.87045,-0.0315469,0.133195,0.4782
712,0,3.86903,-0.033907,0.133635,0.476014
713,0,3.86888,-0.0325858,0.133592,0.474456
714,0,3.87221,-0.0319981,0.131621,0.4725
716,0,3.87098,-0.0265146,0.130456,0.479953
717,0,3.87061,-0.0352364,0.134228,0.471635
719,0,3.86924,-0.028843,0.130814,0.473844
720,0,3.87262,-0.0295043,0.129197,0.46716
721,0,3.87015,-0.0345944,0.1301,0.463822
722,0,3.86859,-0.0371766,0.130562,0.461675
723,0,3.87164,-0.0348444,0.12854,0.458897
724,0,3.86981,-0.0371791,0.129021,0.45719
726,0,3.86959,-0.0311597,0.127817,0.463706
727,0,3.86989,-0.0361541,0.129108,0.455447
728,0,3.87101,-0.0374647,0.129116,0.455381
729,0,3.86904,-0.0374183,0.129083,0.456001
730,0,3.87103,-0.0346284,0.126917,0.45249
731,0,3.86956,-0.0375162,0.127361,0.450135
732,0,3.86943,-0.035592,0.125132,0.447082
733,0,3.86654,-0.0428499,0.126617,0.441915
734,0,3.86606,-0.0436586,0.126532,0.440504
735,0,3.86523,-0.0454307,0.127076,0.43872
736,0,3.86594,-0.0442074,0.127196,0.438588
738,0,3.86663,-0.0369299,0.125493,0.448561
739,0,3.86884,-0.039941,0.124627,0.437752
740,0,3.86639,-0.043797,0.125013,0.435971
741,0,3.8655,-0.0467977,0.125519,0.433855
742,0,3.86451,-0.0458044,0.125455,0.433021
743,0,3.86297,-0.0490222,0.12598,0.431757
744,0,3.86805,-0.0437848,0.123454,0.429912
745,0,3.86754,-0.0444679,0.123394,0.429518
746,0,3.86937,-0.043931,0.123495,0.428755
747,0,3.86835,-0.0426051,0.123554,0.429258
748,0,3.86916,-0.0442799,0.123585,0.429795
752,0,3.86628,-0.0428203,0.124578,0.436845
753,0,3.86801,-0.0427091,0.12306,0.432182
754,0,3.86668,-0.0432619,0.123511,0.42889
755,0,3.864,-0.0473057,0.12398,0.427539
756,0,3.86346,-0.0500089,0.124532,0.425488
757,0,3.86439,-0.0503991,0.124645,0.425652
758,0,3.86683,-0.0456976,0.123753,0.427901
759,0,3.86713,-0.0419685,0.121482,0.425008
760,0,3.86754,-0.0440752,0.119863,0.42006
761,0,3.86372,-0.0494619,0.120844,0.416257
762,0,3.86456,-0.0501038,0.119221,0.411218
763,0,3.86195,-0.0528253,0.119643,0.408128
764,0,3.86594,-0.0498332,0.117655,0.404564
765,0,3.8637,-0.0539345,0.118148,0.403181
766,0,3.86518,-0.0534461,0.118174,0.402021
767,0,3.86627,-0.0527982,0.118344,0.402965
768,0,3.86734,-0.0500103,0.117781,0.404133
769,0,3.86355,-0.0549087,0.120387,0.404908
770,0,3.86231,-0.0454345,0.116913,0.404293
771,0,3.86269,-0.0532428,0.11653,0.397456
772,0,3.86135,-0.0571319,0.117072,0.394893
773,0,3.86076,-0.0559722,0.117001,0.393471
774,0,3.86456,-0.0546489,0.115025,0.391338
775,0,3.86421,-0.0540465,0.114988,0.390053
776,0,3.86491,-0.057196,0.115669,0.389145
777,0,3.86266,-0.0570979,0.117164,0.392686
778,0,3.86651,-0.0500631,0.11459,0.391617
779,0,3.86329,-0.052403,0.115065,0.389664
780,0,3.86351,-0.0518658,0.112886,0.386841
781,0,3.86139,-0.0584683,0.113945,0.382533
782,0,3.86338,-0.0551719,0.111881,0.379696
783,0,3.86187,-0.0591242,0.112397,0.37744
790,0,3.86635,-0.0632537,0.115293,0.381601
791,0,3.864,-0.0562712,0.115755,0.385447
800,0,3.86233,-0.0457471,0.110279,0.38467
801,0,3.85838,-0.0572306,0.110349,0.373788
802,0,3.85964,-0.0581993,0.108737,0.366608
803,0,3.86096,-0.0590832,0.107217,0.361347
804,0,3.85545,-0.0663451,0.108263,0.358181
805,0,3.85831,-0.0647321,0.106199,0.354245
806,0,3.85655,-0.0654729,0.106733,0.35116
807,0,3.85457,-0.0686345,0.106637,0.350444
808,0,3.856,-0.0722527,0.107369,0.348666
809,0,3.85533,-0.0674756,0.106728,0.350312
810,0,3.85618,-0.0636077,0.104632,0.347342
811,0,3.85928,-0.0687955,0.105356,0.344282
812,0,3.85878,-0.0660277,0.10473,0.346224
814,0,3.85723,-0.0679733,0.101496,0.335058
815,0,3.85606,-0.0720621,0.102097,0.333365
816,0,3.85586,-0.0741983,0.104247,0.335452
817,0,3.85706,-0.0714002,0.103723,0.338379
818,0,3.85833,-0.0669642,0.103134,0.339513
819,0,3.85892,-0.0649796,0.103172,0.339307
821,0,3.86232,-0.0598875,0.102198,0.343807
822,0,3.85839,-0.0645458,0.102654,0.341446
823,0,3.86106,-0.0592537,0.100532,0.336799
824,0,3.85877,-0.0637794,0.101063,0.334635
825,0,3.85524,-0.0693783,0.10153,0.332892
826,0,3.85612,-0.0653136,0.0994664,0.330407
827,0,3.8542,-0.0682223,0.0977872,0.323785
828,0,3.85478,-0.0703913,0.0969459,0.316754
829,0,3.85669,-0.0730273,0.0969735,0.31589
830,0,3.85471,-0.0729021,0.0969005,0.316101
831,0,3.85127,-0.071988,0.0967606,0.314949
832,0,3.84571,-0.0823001,0.0985336,0.310702
833,0,3.84958,-0.0767655,0.0959085,0.309376
834,0,3.84644,-0.0804096,0.0964469,0.306617
838,0,3.85069,-0.0664234,0.089092,0.294817
841,0,3.84968,-0.0721139,0.082919,0.273061
842,0,3.84226,-0.0829032,0.0838447,0.267877
843,0,3.84578,-0.0798104,0.0817883,0.262672
844,0,3.84965,-0.0781139,0.0797566,0.258211
845,0,3.84213,-0.0861845,0.0807788,0.255226
846,0,3.8435,-0.0839065,0.0786102,0.251404
847,0,3.84257,-0.0892593,0.0791816,0.246369
848,0,3.84308,-0.089382,0.0792183,0.245982
849,0,3.84716,-0.0896412,0.0794375,0.246418
850,0,3.84819,-0.0850654,0.0788339,0.249104
851,0,3.84669,-0.0822236,0.0787587,0.248317
852,0,3.85195,-0.0818308,0.0768261,0.245587
853,0,3.85359,-0.0770996,0.0747099,0.242885
854,0,3.84683,-0.0841474,0.0749809,0.238125
855,0,3.84882,-0.0865075,0.0735241,0.23315
857,0,3.86565,-0.0362167,0.0666185,0.257074
858,0,3.84618,-0.0908654,0.0726038,0.225656
859,0,3.84675,-0.0883727,0.0718313,0.224352
862,0,3.86227,-0.0356837,0.064862,0.251365
863,0,3.85272,-0.0876674,0.0684308,0.216437
864,0,3.84606,-0.0945208,0.0710062,0.215767
865,0,3.85087,-0.0898047,0.070556,0.218024
871,0,3.84588,-0.0866619,0.066678,0.210455
872,0,3.83936,-0.0992206,0.0677288,0.204738
873,0,3.84768,-0.0901627,0.065165,0.201753
874,0,3.84228,-0.0961047,0.0656324,0.199795
875,0,3.8483,-0.0918714,0.0637247,0.196889
876,0,3.84686,-0.0934176,0.0636116,0.19598
877,0,3.84125,-0.099751,0.0640703,0.194613
878,0,3.85038,-0.089682,0.0615675,0.191416
879,0,3.83804,-0.104101,0.0646319,0.190584
880,0,3.84253,-0.0996352,0.0641034,0.191726
881,0,3.8435,-0.100288,0.0641619,0.193059
882,0,3.85129,-0.0895065,0.0616614,0.191836
895,0,3.84213,-0.0861845,0.0807788,0.255226
896,0,3.8435,-0.0839065,0.0786102,0.251404
897,0,3.84257,-0.0892593,0.0791816,0.246369
898,0,3.84308,-0.089382,0.0792183,0.245982
899,0,3.84716,-0.0896412,0.0794375,0.246418
900,0,3.84819,-0.0850654,0.0788339,0.249104
901,0,3.84669,-0.0822236,0.0787587,0.248317
902,0,3.85195,-0.0818308,0.0768261,0.245587
903,0,3.85359,-0.0770996,0.0747099,0.242885
904,0,3.84683,-0.0841474,0.0749809,0.238125
905,0,3.84882,-0.0865075,0.0735241,0.23315
907,0,3.86565,-0.0362167,0.0666185,0.257074
908,0,3.84618,-0.0908654,0.0726038,0.225656
909,0,3.84675,-0.0883727,0.0718313,0.224352
912,0,3.86227,-0.0356837,0.064862,0.251365
913,0,3.85272,-0.0876674,0.0684308,0.216437
914,0,3.84606,-0.0945208,0.0710062,0.215767
915,0,3.85087,-0.0898047,0.070556,0.218024
921,0,3.84588,-0.0866619,0.066678,0.210455
922,0,3.83936,-0.0992206,0.0677288,0.204738
923,0,3.84768,-0.0901627,0.065165,0.201753
924,0,3.84228,-0.0961047,0.0656324,0.199795
925,0,3.8483,-0.0918714,0.0637247,0.196889
926,0,3.84686,-0.0934176,0.0636116,0.19598
927,0,3.84125,-0.099751,0.0640703,0.194613
928,0,3.85038,-0.089682,0.0615675,0.191416
929,0,3.83804,-0.104101,0.0646319,0.190584
930,0,3.84253,-0.0996352,0.0641034,0.191726
931,0,3.8435,-0.100288,0.0641619,0.193059
932,0,3.85129,-0.0895065,0.0616614,0.191836
933,0,3.84455,-0.0966501,0.0620203,0.190305
934,0,3.84355,-0.103648,0.0626974,0.187821
935,0,3.85219,-0.0872567,0.0594598,0.187304