File: calce_correlation_analysis/matrices/CALCE_CX2_37_cycle_feature_matrix.csv
cycle_number,rul,voltage,current,capacity,charge_capacity
7,580,3.82188,-0.05877,0.254052,0.888258
8,579,3.82261,-0.0610218,0.254518,0.885235
9,578,3.82365,-0.0595992,0.252326,0.880952
10,577,3.82387,-0.0614933,0.251548,0.878389
11,576,3.82523,-0.060955,0.254545,0.883084
12,575,3.82263,-0.0592125,0.254318,0.884759
13,574,3.82086,-0.0575205,0.250304,0.881838
14,573,3.82186,-0.0618225,0.252648,0.876856
15,572,3.82352,-0.0615382,0.25154,0.877154
16,571,3.82443,-0.0602581,0.250159,0.872947
17,570,3.82467,-0.0637345,0.253245,0.874475
20,569,3.81965,-0.0589362,0.250301,0.873574
21,568,3.82212,-0.0629812,0.251094,0.868154
22,567,3.8229,-0.0625826,0.250894,0.869159
23,566,3.82442,-0.0594651,0.248438,0.866929
24,565,3.82442,-0.0649815,0.252434,0.865773
25,564,3.82464,-0.0590806,0.250286,0.871763
26,563,3.82163,-0.0626598,0.252558,0.872262
27,562,3.825,-0.0571622,0.249418,0.873853
28,561,3.8245,-0.0572697,0.249881,0.873505
29,560,3.82453,-0.0573167,0.249762,0.87325
30,559,3.82297,-0.0609971,0.251228,0.874178
31,558,3.82118,-0.0606101,0.252778,0.873682
32,557,3.82382,-0.0573782,0.25005,0.872566
33,556,3.82396,-0.0573757,0.249932,0.872455
34,555,3.82392,-0.0573542,0.249873,0.872234
35,554,3.82388,-0.0573372,0.249877,0.872055
36,553,3.82232,-0.061045,0.251349,0.873146
37,552,3.8236,-0.0577803,0.24997,0.871962
38,551,3.82372,-0.0575667,0.249777,0.871812
39,550,3.82358,-0.0572937,0.249899,0.871659
40,549,3.82012,-0.0579063,0.247753,0.866774
42,548,3.82481,-0.0581864,0.246066,0.861337
43,547,3.82496,-0.0602563,0.246487,0.85846
44,546,3.82205,-0.0660191,0.249998,0.856977
45,545,3.82511,-0.061667,0.248954,0.860333
46,544,3.82396,-0.0599126,0.248839,0.862789
52,543,3.82602,-0.0587194,0.246222,0.859438
61,542,3.82295,-0.0650329,0.249189,0.860433
62,541,3.82038,-0.0638151,0.249485,0.861049
63,540,3.81927,-0.0595548,0.24924,0.860729
64,539,3.8208,-0.0644815,0.247698,0.855334
65,538,3.82022,-0.0665678,0.248267,0.852093
66,537,3.82166,-0.0667144,0.246292,0.852408
67,536,3.82077,-0.0650704,0.245422,0.84815
68,535,3.82418,-0.0683621,0.245156,0.850466
69,534,3.82223,-0.0646142,0.245595,0.847267
71,533,3.82256,-0.0633914,0.243315,0.844364
72,532,3.82125,-0.0633407,0.246469,0.845194
73,531,3.82221,-0.0670824,0.244832,0.844927
74,530,3.82191,-0.0654707,0.243495,0.840905
75,529,3.82445,-0.065817,0.243873,0.840404
76,528,3.82373,-0.0635646,0.243312,0.843174
77,527,3.82219,-0.0672535,0.24467,0.84442
78,526,3.82297,-0.0655155,0.243649,0.840051
79,525,3.82317,-0.0656089,0.243537,0.840002
80,524,3.82315,-0.0658577,0.243628,0.839948
81,523,3.82272,-0.0660054,0.243438,0.840067
82,522,3.82241,-0.0654284,0.243901,0.839826
83,521,3.82138,-0.0681688,0.244494,0.83707
84,520,3.82115,-0.0679893,0.244574,0.836986
85,519,3.82187,-0.0681201,0.243972,0.83715
86,518,3.82209,-0.0673626,0.243777,0.836694
87,517,3.8248,-0.0643807,0.241521,0.835743
88,516,3.82213,-0.068242,0.243376,0.837059
89,515,3.82345,-0.0661999,0.241924,0.832544
90,514,3.82272,-0.0664651,0.241596,0.83271
91,513,3.8234,-0.0643717,0.239277,0.829479
92,512,3.82312,-0.0692479,0.240117,0.82457
93,511,3.82212,-0.0693778,0.240798,0.824577
95,510,3.67558,-0.948101,0.522227,0.15672
96,509,3.8244,-0.0683569,0.241466,0.829578
97,508,3.82225,-0.0688767,0.242018,0.82908
98,507,3.82482,-0.0705162,0.243692,0.831945
100,506,3.82058,-0.0648739,0.240761,0.83266
101,505,3.82495,-0.0684794,0.239775,0.830095
102,504,3.82231,-0.0689041,0.242555,0.828241
103,503,3.82357,-0.065499,0.239406,0.82709
104,502,3.82236,-0.0677557,0.240287,0.824682
105,501,3.82474,-0.0671108,0.242185,0.829644
106,500,3.82398,-0.0647008,0.241443,0.831963
107,499,3.82046,-0.0635019,0.238209,0.829275
108,498,3.82291,-0.0677531,0.239809,0.824488
109,497,3.82286,-0.067777,0.240145,0.824581
110,496,3.82056,-0.0695689,0.240622,0.821426
111,495,3.82102,-0.0717713,0.241161,0.819102
112,494,3.82371,-0.0693865,0.241559,0.826806
113,493,3.82545,-0.0636729,0.23916,0.828061
114,492,3.82064,-0.0638162,0.236939,0.822791
115,491,3.82328,-0.067754,0.237954,0.817589
116,490,3.82376,-0.0682991,0.237842,0.817343
118,489,3.82508,-0.0706993,0.238636,0.815333
119,488,3.82322,-0.0679171,0.240124,0.822647
120,487,3.82261,-0.0679999,0.240179,0.822173
121,486,3.82436,-0.0653175,0.239726,0.824447
122,485,3.82502,-0.0638233,0.239062,0.827124
123,484,3.825,-0.0636581,0.239014,0.826614
124,483,3.82502,-0.063838,0.239029,0.826277
125,482,3.82305,-0.0674612,0.241004,0.827169
126,481,3.82566,-0.0614479,0.238417,0.828711
127,480,3.82604,-0.061792,0.238328,0.828758
128,479,3.82583,-0.0617762,0.238548,0.828535
129,478,3.82585,-0.0616089,0.238444,0.828343
130,477,3.82579,-0.0619015,0.238521,0.828216
131,476,3.82576,-0.0616426,0.238498,0.827999
132,475,3.82587,-0.0617936,0.238402,0.827896
133,474,3.8257,-0.0620072,0.23849,0.827917
134,473,3.82438,-0.06156,0.237784,0.82801
140,472,3.82304,-0.0681007,0.239742,0.82118
141,471,3.82365,-0.0658663,0.239449,0.823132
150,470,3.82287,-0.0670434,0.239664,0.824136
151,469,3.82138,-0.0692489,0.239824,0.820806
152,468,3.82373,-0.0650956,0.237607,0.819183
153,467,3.82042,-0.0718081,0.241065,0.818578
156,466,3.82118,-0.0639897,0.235252,0.822196
157,465,3.82289,-0.0678289,0.237951,0.816858
158,464,3.82282,-0.0679558,0.237656,0.816383
160,463,3.8247,-0.0703008,0.23851,0.81429
161,462,3.82268,-0.0699788,0.240151,0.818611
162,461,3.8225,-0.0677377,0.239788,0.820952
163,460,3.82295,-0.067872,0.239209,0.820643
164,459,3.82257,-0.0676687,0.239568,0.82034
165,458,3.82355,-0.0655318,0.239258,0.823373
166,457,3.82314,-0.0656461,0.239524,0.822916
167,456,3.82325,-0.0654106,0.239424,0.822749
168,455,3.82293,-0.0655938,0.239423,0.822569
169,454,3.82365,-0.0657478,0.238835,0.822547
170,453,3.82315,-0.0658801,0.239215,0.822438
171,452,3.82279,-0.0659902,0.239613,0.822445
172,451,3.82305,-0.0659589,0.239425,0.822325
173,450,3.82333,-0.0656567,0.23913,0.822176
174,449,3.82304,-0.065852,0.239516,0.822083
175,448,3.82322,-0.0660082,0.239595,0.821576
176,447,3.82617,-0.0603573,0.236074,0.823309
177,446,3.82186,-0.06234,0.234472,0.815727
178,445,3.82374,-0.069064,0.235902,0.807591
179,444,3.82205,-0.0692866,0.236163,0.807633
180,443,3.82505,-0.0653862,0.233016,0.806566
181,442,3.82663,-0.0711222,0.236054,0.806107
182,441,3.82361,-0.0685058,0.237775,0.812906
183,440,3.8265,-0.0622865,0.234283,0.81432
184,439,3.82134,-0.0652653,0.23317,0.806622
185,438,3.82367,-0.0694299,0.234284,0.801152
186,437,3.82322,-0.0691394,0.233916,0.80069
188,436,3.82391,-0.0738802,0.237224,0.802786
189,435,3.82611,-0.0673719,0.234651,0.80878
190,434,3.82684,-0.0646527,0.233129,0.811112
195,433,3.83657,-0.0833766,0.241802,0.798053
198,432,3.82216,-0.0638127,0.238291,0.826176
199,431,3.82202,-0.0660118,0.236387,0.818183
200,430,3.82283,-0.0681593,0.237781,0.815166
201,429,3.8267,-0.0715472,0.238994,0.817881
202,428,3.82374,-0.0659764,0.239128,0.82277
203,427,3.82208,-0.0657065,0.239648,0.822514
204,426,3.82239,-0.0658351,0.239404,0.822369
205,425,3.82226,-0.0654424,0.239655,0.822014
206,424,3.82264,-0.065445,0.239264,0.821906
207,423,3.82235,-0.065932,0.239501,0.821729
208,422,3.82463,-0.0660579,0.237792,0.821572
209,421,3.82339,-0.0638713,0.238653,0.824505
210,420,3.8218,-0.0659791,0.239759,0.821185
211,419,3.82204,-0.0661415,0.239492,0.821105
212,418,3.82249,-0.0662982,0.239008,0.820934
213,417,3.82507,-0.0623107,0.236699,0.81974
214,416,3.82386,-0.0663527,0.237642,0.820838
215,415,3.82529,-0.062048,0.236562,0.819563
216,414,3.82487,-0.0624413,0.236568,0.819505
217,413,3.82412,-0.0660309,0.237122,0.820649
218,412,3.82476,-0.0621499,0.23664,0.819401
219,411,3.82231,-0.0622884,0.23616,0.819168
220,410,3.82142,-0.0663811,0.234911,0.809875
221,409,3.82256,-0.0670369,0.235529,0.808867
222,408,3.82412,-0.0652344,0.232541,0.804834
223,407,3.82253,-0.0674558,0.23349,0.802031
224,406,3.82545,-0.0712902,0.237087,0.804613
225,405,3.82512,-0.0648998,0.235187,0.810411
226,404,3.82334,-0.0629773,0.234364,0.813
227,403,3.82114,-0.0678591,0.233023,0.801961
228,402,3.82286,-0.0697876,0.234218,0.799434
229,401,3.82316,-0.0672139,0.233557,0.802312
230,400,3.82404,-0.0637276,0.230319,0.801211
231,399,3.82519,-0.0716571,0.235376,0.797987
232,398,3.82235,-0.0696486,0.236215,0.804767
233,397,3.82453,-0.0633899,0.232226,0.806116
234,396,3.82139,-0.0661093,0.230853,0.798337
235,395,3.82381,-0.068139,0.231769,0.795795
237,394,3.82176,-0.0705837,0.232331,0.793387
238,393,3.82656,-0.0706635,0.232548,0.794246
239,392,3.82401,-0.0679461,0.233938,0.801033
240,391,3.82338,-0.065158,0.233192,0.803409
245,390,3.83346,-0.0826551,0.237087,0.783839
246,389,3.82365,-0.0691595,0.233934,0.801766
248,388,3.83666,-0.128559,0.253039,0.726942
252,387,3.81932,-0.0652464,0.232941,0.807814
253,386,3.82411,-0.0676021,0.232172,0.798544
254,385,3.82307,-0.0677776,0.232041,0.798271
256,384,3.61196,-1.14436,0.568545,0.0219308
257,383,3.82349,-0.0677206,0.231549,0.79753
258,382,3.82439,-0.0699753,0.231288,0.794937
259,381,3.82292,-0.0739252,0.235858,0.796101
262,380,3.81991,-0.0658496,0.229818,0.800108
263,379,3.82432,-0.0684424,0.230252,0.790742
264,378,3.8247,-0.0663314,0.228234,0.793627
265,377,3.82087,-0.0703837,0.232077,0.791157
267,376,3.82504,-0.070307,0.2322,0.793944
268,375,3.82256,-0.0699675,0.2329,0.799407
269,374,3.81849,-0.0646464,0.228356,0.793552
274,373,3.82589,-0.0708826,0.230919,0.785665
275,372,3.82525,-0.0664561,0.229447,0.790951
276,371,3.82275,-0.0679054,0.231774,0.794703
277,370,3.8229,-0.0684604,0.231779,0.794386
278,369,3.82361,-0.0677189,0.231262,0.794026
279,368,3.82296,-0.0682306,0.231911,0.793767
280,367,3.82478,-0.0662324,0.230832,0.796517
281,366,3.82509,-0.0661657,0.230388,0.796437
282,365,3.82619,-0.0658955,0.22966,0.796227
283,364,3.82407,-0.0660404,0.231119,0.796153
284,363,3.82136,-0.0692838,0.23385,0.797282
285,362,3.8246,-0.0660946,0.231403,0.795784
286,361,3.8248,-0.0662646,0.230777,0.795843
287,360,3.8249,-0.0659677,0.230977,0.795734
288,359,3.82504,-0.0664041,0.230942,0.795428
289,358,3.82539,-0.0642074,0.230851,0.798355
290,357,3.82293,-0.060146,0.227436,0.796805
292,356,3.82469,-0.0695372,0.227571,0.781703
293,355,3.82207,-0.0692557,0.228181,0.781135
294,354,3.82421,-0.0675703,0.225397,0.777206
295,353,3.82451,-0.0753279,0.232178,0.780586
297,352,3.82494,-0.0620864,0.226495,0.787865
298,351,3.82247,-0.0694003,0.225435,0.78154
299,350,3.8245,-0.0699206,0.225926,0.774718
300,349,3.82525,-0.0676018,0.224995,0.777646
302,348,3.82466,-0.0733255,0.229494,0.77705
303,347,3.82626,-0.0673623,0.227317,0.78308
304,346,3.82563,-0.0651534,0.226974,0.785584
306,345,3.83351,-0.0907558,0.236451,0.764855
307,344,3.82468,-0.0687133,0.22788,0.784768
311,343,3.81982,-0.0644228,0.226627,0.788479
312,342,3.8221,-0.0707489,0.228708,0.781366
313,341,3.82135,-0.0713294,0.228733,0.78095
316,340,3.82332,-0.0730712,0.231256,0.783403
317,339,3.82271,-0.0708521,0.230223,0.785724
318,338,3.82469,-0.0679736,0.228723,0.788162
319,337,3.82337,-0.068232,0.229804,0.787881
320,336,3.82345,-0.0686272,0.230135,0.787718
321,335,3.82533,-0.0661852,0.228431,0.790339
322,334,3.82503,-0.0659523,0.228608,0.78996
323,333,3.82396,-0.0662944,0.229548,0.790047
324,332,3.82401,-0.0666426,0.229492,0.789936
325,331,3.82394,-0.0663342,0.229509,0.789825
326,330,3.82625,-0.0663789,0.227449,0.789761
327,329,3.82423,-0.0658751,0.229292,0.789461
328,328,3.82485,-0.0666222,0.228932,0.789571
330,327,3.82416,-0.0662834,0.228542,0.790148
331,326,3.82479,-0.0662001,0.228826,0.789163
332,325,3.82265,-0.0625429,0.229126,0.78904
333,324,3.82275,-0.0676215,0.223523,0.777297
334,323,3.82171,-0.0718931,0.226701,0.771947
335,322,3.82533,-0.0680109,0.22323,0.771076
336,321,3.82432,-0.0674941,0.223382,0.77125
337,320,3.82636,-0.0743879,0.226917,0.770815
340,319,3.82192,-0.0657463,0.222715,0.7738
341,318,3.82437,-0.0703756,0.22369,0.768662
342,317,3.82278,-0.070136,0.223946,0.768363
343,316,3.82289,-0.0724218,0.224812,0.765301
344,315,3.82191,-0.0763942,0.227064,0.766461
345,314,3.82461,-0.0697154,0.226175,0.773617
347,313,3.81998,-0.0649444,0.222896,0.772908
348,312,3.82511,-0.0685182,0.221599,0.764962
349,311,3.82481,-0.0688011,0.221283,0.764223
350,310,3.82519,-0.0712224,0.221938,0.761964
351,309,3.82436,-0.0709024,0.222148,0.761697
354,308,3.82099,-0.0637475,0.220518,0.767885
355,307,3.82036,-0.0747752,0.225453,0.763067
356,306,3.82978,-0.0704399,0.22232,0.761708
357,305,3.82416,-0.0697161,0.22173,0.760915
358,304,3.82071,-0.0730539,0.222501,0.75856
359,303,3.82699,-0.0748176,0.224839,0.761217
361,302,3.82142,-0.0635398,0.220449,0.766725
362,301,3.82443,-0.0684502,0.219958,0.757313
363,300,3.8224,-0.0732694,0.222546,0.758672
366,299,3.82598,-0.0749871,0.225312,0.761749
368,298,3.82442,-0.0681618,0.223474,0.770495
369,297,3.82187,-0.0703062,0.226883,0.767407
370,296,3.8262,-0.0684188,0.223152,0.769161
371,295,3.82629,-0.0684738,0.224,0.769016
372,294,3.82402,-0.0704382,0.225845,0.772535
373,293,3.82358,-0.0699511,0.226361,0.772258
374,292,3.82425,-0.0700024,0.225868,0.772073
375,291,3.82421,-0.0699748,0.225921,0.771936
376,290,3.82502,-0.0680812,0.225555,0.775041
377,289,3.82477,-0.0680919,0.225691,0.774905
378,288,3.82578,-0.067971,0.224915,0.77476
379,287,3.82603,-0.067635,0.224809,0.774599
380,286,3.82574,-0.0679384,0.225026,0.77439
381,285,3.82529,-0.0678727,0.225236,0.774278
382,284,3.82514,-0.0680958,0.225503,0.774128
383,283,3.82176,-0.0602471,0.219211,0.77129
384,282,3.82255,-0.0708559,0.222065,0.760206
385,281,3.82174,-0.0737218,0.222971,0.757384
386,280,3.82128,-0.073255,0.22288,0.757398
388,279,3.82672,-0.0750541,0.225419,0.760983
390,278,3.82388,-0.0645835,0.219458,0.766245
391,277,3.82347,-0.0695995,0.21999,0.756483
392,276,3.82306,-0.0725173,0.222791,0.756927
393,275,3.82248,-0.0737743,0.222159,0.757568
394,274,3.82473,-0.0691474,0.219453,0.756203
395,273,3.82436,-0.0798693,0.225977,0.757012
397,272,3.82277,-0.0706368,0.224219,0.765071
398,271,3.82456,-0.0669379,0.218517,0.759732
399,270,3.82285,-0.0759545,0.222264,0.754294
400,269,3.82381,-0.0726683,0.221875,0.756688
401,268,3.82461,-0.0695521,0.220166,0.756017
402,267,3.82426,-0.0739644,0.223258,0.757399
405,266,3.82225,-0.065099,0.2187,0.760911
406,265,3.83438,-0.0785406,0.22266,0.747761
407,264,3.8226,-0.0732014,0.222684,0.75921
408,263,3.82526,-0.0644791,0.218405,0.760304
409,262,3.82284,-0.0713268,0.220615,0.754609
410,261,3.82497,-0.0734199,0.218621,0.752909
411,260,3.82291,-0.0739192,0.220881,0.751479
412,259,3.82351,-0.0711493,0.220366,0.754326
415,258,3.82506,-0.0757394,0.223646,0.75424
416,257,3.8244,-0.0714263,0.222319,0.759321
417,256,3.82508,-0.067949,0.221944,0.761584
418,255,3.82493,-0.0691545,0.22196,0.761675
419,254,3.82303,-0.0730703,0.223625,0.762557
420,253,3.82566,-0.0688836,0.221598,0.761307
423,252,3.82688,-0.0722103,0.222498,0.761878
424,251,3.82713,-0.072448,0.2237,0.761274
425,250,3.82504,-0.0708479,0.224127,0.763836
426,249,3.82713,-0.0641254,0.220565,0.765684
427,248,3.82451,-0.0693938,0.221541,0.761139
428,247,3.82523,-0.0712752,0.222463,0.758277
429,246,3.82696,-0.0689884,0.221955,0.760421
430,245,3.82382,-0.0710699,0.224404,0.764036
431,244,3.82482,-0.0705127,0.22405,0.764114
432,243,3.82519,-0.0681669,0.223829,0.766457
433,242,3.82603,-0.0683836,0.222891,0.766286
434,241,3.82106,-0.0660119,0.223504,0.764242
435,240,3.82491,-0.0682319,0.221522,0.760539
436,239,3.824,-0.0730629,0.22376,0.761391
437,238,3.82701,-0.0667051,0.220645,0.76288
438,237,3.82504,-0.0691035,0.221515,0.76003
439,236,3.82454,-0.0708109,0.224253,0.763709
440,235,3.82452,-0.0686826,0.223806,0.766459
441,234,3.82254,-0.0667673,0.220643,0.761776
442,233,3.82486,-0.071717,0.221305,0.757666
443,232,3.82424,-0.0710587,0.221761,0.757113
444,231,3.82417,-0.0716239,0.222012,0.757396
445,230,3.82576,-0.0675352,0.219287,0.755828
446,229,3.82788,-0.0704813,0.221792,0.75705
447,228,3.82687,-0.0667999,0.221282,0.762329
448,227,3.82395,-0.067248,0.221158,0.761828
449,226,3.82278,-0.0715671,0.221809,0.757156
450,225,3.82456,-0.0716073,0.222017,0.757191
451,224,3.8214,-0.0705529,0.224894,0.757916
452,223,3.82474,-0.0689592,0.221722,0.759738
453,222,3.82605,-0.0714407,0.222391,0.757483
454,221,3.82741,-0.0672549,0.221209,0.762207
455,220,3.82355,-0.0710585,0.224225,0.763076
456,219,3.82476,-0.0685255,0.22358,0.766034
457,218,3.8249,-0.0686894,0.223408,0.765994
458,217,3.82462,-0.0684613,0.223773,0.765765
459,216,3.82578,-0.0689186,0.223526,0.765429
460,215,3.82637,-0.0659194,0.22303,0.768361
461,214,3.82636,-0.0663119,0.223011,0.768359
462,213,3.82628,-0.0662073,0.223061,0.768219
463,212,3.8265,-0.0665126,0.222942,0.76828
464,211,3.82617,-0.0661982,0.223224,0.768221
465,210,3.82662,-0.0664595,0.222659,0.768214
466,209,3.82632,-0.0663973,0.223155,0.768147
467,208,3.82698,-0.0665115,0.222608,0.768077
468,207,3.82621,-0.0664295,0.22328,0.767969
469,206,3.82745,-0.0664996,0.222094,0.767948
470,205,3.82513,-0.0622086,0.219849,0.766224
472,204,3.83528,-0.0759284,0.223797,0.753567
473,203,3.82656,-0.0664419,0.220681,0.763668
474,202,3.82607,-0.0728145,0.224017,0.762359
475,201,3.82574,-0.0686054,0.223546,0.766794
476,200,3.82605,-0.0685362,0.222845,0.766274
478,199,3.82456,-0.0688183,0.221284,0.761617
479,198,3.82618,-0.0690176,0.221848,0.760071
480,197,3.82469,-0.0689518,0.221909,0.759498
481,196,3.82405,-0.0691465,0.221804,0.759772
482,195,3.82671,-0.0727158,0.223661,0.760514
483,194,3.82395,-0.0707962,0.224155,0.762843
484,193,3.82505,-0.0645232,0.220613,0.764238
485,192,3.82409,-0.0715544,0.221353,0.756719
486,191,3.82722,-0.0714395,0.220822,0.756512
487,190,3.82651,-0.0691906,0.220716,0.759243
488,189,3.82489,-0.0695301,0.220978,0.759114
489,188,3.82786,-0.0718095,0.221565,0.756924
490,187,3.82424,-0.0711638,0.223755,0.762597
491,186,3.82343,-0.0704632,0.223895,0.762234
492,185,3.82517,-0.0646429,0.218676,0.758057
493,184,3.82654,-0.0696406,0.219672,0.752761
494,183,3.82727,-0.0675715,0.219166,0.755409
495,182,3.82512,-0.0717038,0.220462,0.756111
496,181,3.82566,-0.0696267,0.21994,0.752259
497,180,3.8263,-0.0692604,0.221968,0.758605
498,179,3.82687,-0.0669169,0.221293,0.761283
499,178,3.82404,-0.0651765,0.218293,0.757386
500,177,3.82555,-0.0695435,0.21963,0.752835
501,176,3.82404,-0.0695488,0.222499,0.753697
502,175,3.82628,-0.069814,0.219712,0.752022
503,174,3.82637,-0.0698354,0.217966,0.752092
504,173,3.82578,-0.0733807,0.223033,0.752916
505,172,3.8267,-0.0689936,0.220974,0.758554
506,171,3.82605,-0.0692621,0.221349,0.758305
508,170,3.82588,-0.0667942,0.220547,0.762199
509,169,3.8266,-0.0668644,0.221079,0.761154
510,168,3.82698,-0.0667582,0.221049,0.7609
511,167,3.82629,-0.0671327,0.221281,0.760644
512,166,3.82751,-0.0669095,0.22033,0.760653
513,165,3.82631,-0.0670927,0.221349,0.760655
514,164,3.82633,-0.0670277,0.221217,0.760584
515,163,3.82663,-0.0670414,0.220895,0.760563
516,162,3.82664,-0.0672166,0.221122,0.76055
517,161,3.82422,-0.0709515,0.223135,0.761616
518,160,3.82694,-0.0671715,0.220835,0.760275
519,159,3.82633,-0.0670254,0.221274,0.760267
520,158,3.82492,-0.0710966,0.222465,0.761386
521,157,3.82653,-0.062866,0.218077,0.758827
522,156,3.83356,-0.0802503,0.225103,0.747978
523,155,3.82425,-0.0709317,0.221714,0.757295
524,154,3.82876,-0.0708225,0.222314,0.758254
526,153,3.82448,-0.0681113,0.222993,0.766851
527,152,3.82375,-0.0651783,0.218501,0.75795
528,151,3.82599,-0.0693712,0.219675,0.753083
529,150,3.82614,-0.0695805,0.219809,0.752862
530,149,3.82628,-0.0693041,0.219729,0.752115
531,148,3.82495,-0.0694174,0.219599,0.752075
532,147,3.82719,-0.0705974,0.222457,0.755414
534,146,3.8276,-0.0624972,0.217054,0.759174
535,145,3.82501,-0.0697967,0.219055,0.751664
536,144,3.82657,-0.0697296,0.219421,0.751723
537,143,3.82622,-0.0692654,0.219339,0.751408
538,142,3.825,-0.0693388,0.219281,0.751627
539,141,3.82857,-0.0715112,0.219953,0.749502
540,140,3.82443,-0.0715464,0.222314,0.754889
542,139,3.82638,-0.0650629,0.216058,0.751754
543,138,3.82735,-0.0697111,0.217944,0.745313
544,137,3.82782,-0.0676335,0.217169,0.747203
547,136,3.82689,-0.0743841,0.2211,0.746204
548,135,3.82689,-0.0689208,0.219235,0.751347
555,134,3.8254,-0.0726132,0.218742,0.741683
556,133,3.82769,-0.070418,0.216895,0.744297
557,132,3.82822,-0.0681473,0.216902,0.747125
558,131,3.82781,-0.0681875,0.217425,0.746927
559,130,3.82587,-0.072271,0.219619,0.748057
560,129,3.82551,-0.0696556,0.219797,0.750474
561,128,3.82628,-0.069544,0.219381,0.750412
562,127,3.82634,-0.0698851,0.218615,0.750293
563,126,3.8253,-0.0696857,0.219806,0.750612
564,125,3.82583,-0.0695394,0.219294,0.750643
565,124,3.82633,-0.0698337,0.218958,0.750691
566,123,3.82585,-0.0697608,0.219516,0.750626
567,122,3.8264,-0.06954,0.219143,0.750463
568,121,3.82695,-0.0696435,0.218722,0.750431
569,120,3.82535,-0.0697325,0.219969,0.750462
570,119,3.82533,-0.070106,0.220101,0.750274
574,118,3.82937,-0.0807667,0.219232,0.733695
577,117,3.82394,-0.0689894,0.212907,0.735747
578,116,3.82557,-0.0734533,0.214479,0.730523
579,115,3.825,-0.0734736,0.214131,0.729912
580,114,3.8274,-0.0694232,0.211529,0.728744
581,113,3.82441,-0.0747488,0.215049,0.726783
584,112,3.82441,-0.0627465,0.209694,0.735483
585,111,3.82316,-0.0740726,0.212752,0.723183
586,110,3.82425,-0.0737669,0.212502,0.722892
588,109,3.72233,-0.747027,0.402053,0.224744
589,108,3.824,-0.0724041,0.211672,0.724925
590,107,3.82386,-0.0745907,0.212582,0.722461
591,106,3.82625,-0.0810711,0.215116,0.721582
594,105,3.82477,-0.0676496,0.208445,0.730994
595,104,3.8239,-0.0772064,0.212644,0.720383
596,103,3.82429,-0.0748012,0.212456,0.72296
597,102,3.82334,-0.076289,0.21217,0.720004
598,101,3.82629,-0.0727955,0.209334,0.718978
601,100,3.82566,-0.0673259,0.210338,0.729056
602,99,3.82705,-0.0699353,0.208457,0.721485
603,98,3.82718,-0.0721203,0.210172,0.718778
604,97,3.82528,-0.0753441,0.209696,0.716386
605,96,3.82486,-0.0748713,0.210265,0.716406
606,95,3.82477,-0.0819604,0.214485,0.715439
609,94,3.82251,-0.0694106,0.208486,0.721782
610,93,3.82712,-0.0747257,0.210173,0.715697
611,92,3.82398,-0.0768603,0.212451,0.719445
612,91,3.82618,-0.0722047,0.210607,0.718067
614,90,3.82711,-0.0743989,0.212469,0.725044
617,89,3.82509,-0.0699607,0.209446,0.720711
618,88,3.8273,-0.0723614,0.210586,0.718147
619,87,3.82434,-0.0764094,0.212301,0.718974
620,86,3.82415,-0.0767913,0.212183,0.7191
622,85,3.82782,-0.0743947,0.212762,0.721277
623,84,3.82734,-0.0720483,0.212307,0.724005
624,83,3.82458,-0.0738594,0.214718,0.727941
625,82,3.82484,-0.0737997,0.214549,0.727902
626,81,3.82584,-0.0735883,0.213815,0.727788
627,80,3.82494,-0.0737268,0.214685,0.727726
628,79,3.82673,-0.0734557,0.213731,0.727557
629,78,3.82662,-0.0712158,0.214131,0.73039
630,77,3.82659,-0.0711992,0.213985,0.730242
631,76,3.8269,-0.0714432,0.213823,0.730281
632,75,3.82719,-0.0706861,0.213379,0.730082
633,74,3.82852,-0.0713974,0.212293,0.730156
634,73,3.82622,-0.0716991,0.214173,0.73028
635,72,3.82723,-0.0714104,0.212793,0.730554
636,71,3.82682,-0.070648,0.213267,0.730229
637,70,3.82681,-0.0712968,0.213305,0.730471
638,69,3.83531,-0.0907518,0.216026,0.714302
639,68,3.82338,-0.0746354,0.212998,0.723492
640,67,3.82771,-0.0763671,0.213278,0.720951
641,66,3.82642,-0.0731482,0.215015,0.72895
643,65,3.82578,-0.0717964,0.209025,0.725648
644,64,3.82711,-0.0721725,0.210182,0.71855
645,63,3.82695,-0.0726698,0.210258,0.718363
646,62,3.82662,-0.072702,0.209737,0.718384
647,61,3.82733,-0.0717518,0.209224,0.719328
648,60,3.82783,-0.0737102,0.213159,0.721293
649,59,3.82707,-0.0711352,0.21216,0.723574
650,58,3.82671,-0.0653429,0.208286,0.725151
651,57,3.82443,-0.0721889,0.209978,0.717733
652,56,3.82789,-0.0752624,0.209698,0.715329
653,55,3.82546,-0.0720906,0.210449,0.717629
654,54,3.82435,-0.0751132,0.210861,0.714907
655,53,3.82478,-0.0786641,0.213413,0.716318
656,52,3.82532,-0.0740636,0.212928,0.720823
657,51,3.82623,-0.0707409,0.212262,0.72323
658,50,3.82555,-0.067814,0.207323,0.716393
659,49,3.82606,-0.073226,0.208629,0.711071
660,48,3.82869,-0.0708513,0.207812,0.713929
661,47,3.82751,-0.0705989,0.207649,0.713569
662,46,3.82413,-0.0720656,0.208541,0.710455
663,45,3.82831,-0.0744534,0.211179,0.714614
664,44,3.82465,-0.0760149,0.212424,0.717914
665,43,3.82721,-0.0656998,0.20664,0.71826
666,42,3.82523,-0.0729126,0.207471,0.710846
667,41,3.82702,-0.0726188,0.208421,0.710713
668,40,3.82615,-0.0728789,0.208376,0.710551
669,39,3.82624,-0.0726207,0.208185,0.710421
670,38,3.82606,-0.0793608,0.210529,0.709419
671,37,3.82577,-0.0748202,0.210941,0.714087
672,36,3.82674,-0.0716935,0.210274,0.71665
673,35,3.82678,-0.0726437,0.21019,0.716997
674,34,3.82668,-0.0723595,0.210449,0.71668
675,33,3.82377,-0.0723666,0.213499,0.717801
676,32,3.82753,-0.0723741,0.209973,0.716239
677,31,3.82779,-0.0699177,0.209946,0.719236
678,30,3.82523,-0.0743157,0.212082,0.720377
679,29,3.8251,-0.0741559,0.212274,0.720248
680,28,3.82483,-0.0737066,0.212571,0.719911
681,27,3.82505,-0.0743483,0.212577,0.720011
682,26,3.82459,-0.0739243,0.212822,0.719707
683,25,3.8253,-0.0742958,0.212379,0.719838
684,24,3.82528,-0.0734985,0.212469,0.719175
685,23,3.82598,-0.0718006,0.212324,0.722716
686,22,3.82831,-0.0720026,0.210467,0.722624
687,21,3.82595,-0.0720711,0.212261,0.722721
690,20,3.82631,-0.0812799,0.209879,0.702982
691,19,3.82844,-0.0746112,0.208832,0.707843
693,18,3.82528,-0.0713316,0.205624,0.707913
694,17,3.82781,-0.0735687,0.206563,0.704872
695,16,3.82459,-0.0773618,0.209004,0.705431
696,15,3.82538,-0.0756081,0.208796,0.708356
697,14,3.82536,-0.0782244,0.20811,0.705211
698,13,3.828,-0.0756303,0.209027,0.707334
699,12,3.82734,-0.0732867,0.208366,0.709976
700,11,3.82711,-0.0686661,0.20545,0.7082
701,10,3.82597,-0.0732614,0.206778,0.703442
702,9,3.82727,-0.0731945,0.206609,0.703598
703,8,3.82472,-0.0779577,0.208872,0.704779
704,7,3.82719,-0.0735185,0.206296,0.70327
705,6,3.82457,-0.0777873,0.209806,0.704677
706,5,3.82571,-0.0754371,0.20922,0.706838
707,4,3.82716,-0.0730763,0.208246,0.710037
708,3,3.82625,-0.0711116,0.204059,0.707371
710,2,3.82443,-0.0755742,0.206592,0.702334
711,1,3.82488,-0.0763346,0.206503,0.701109
712,0,3.82543,-0.0745606,0.206167,0.701562
713,0,3.8282,-0.0753318,0.207032,0.700632
714,0,3.82546,-0.0756432,0.209222,0.707019
715,0,3.82709,-0.0755934,0.207864,0.706535
716,0,3.82628,-0.0713829,0.206105,0.705769
717,0,3.82622,-0.0734708,0.206417,0.70266
718,0,3.82806,-0.0738679,0.206621,0.702627
719,0,3.82877,-0.0713181,0.205841,0.70512
720,0,3.82476,-0.0750488,0.208418,0.705888
721,0,3.82712,-0.0758161,0.209388,0.706027
722,0,3.82556,-0.0774783,0.209947,0.709526
723,0,3.82866,-0.070704,0.207817,0.711248
725,0,3.82909,-0.0686571,0.20683,0.716064
726,0,3.82575,-0.075204,0.210511,0.712732
727,0,3.82554,-0.0751028,0.210848,0.712367
728,0,3.82683,-0.0729369,0.210297,0.715536
729,0,3.82662,-0.0725174,0.210529,0.715232
730,0,3.82727,-0.0724858,0.210059,0.715109
731,0,3.82674,-0.0729108,0.210469,0.715113
732,0,3.82862,-0.0723292,0.208912,0.714798
733,0,3.82713,-0.0730505,0.20999,0.714959
734,0,3.8265,-0.0729005,0.210643,0.714972
735,0,3.82705,-0.0729151,0.210599,0.714924
736,0,3.82642,-0.0721106,0.210617,0.71438
737,0,3.82659,-0.0728677,0.210491,0.714672
738,0,3.83954,-0.083486,0.211635,0.702855
739,0,3.82609,-0.0747745,0.20999,0.713968
740,0,3.82648,-0.0745911,0.210938,0.713834
741,0,3.82886,-0.0724026,0.210442,0.715735
742,0,3.82918,-0.0699086,0.209817,0.718469
743,0,3.82654,-0.0692345,0.209212,0.717846
744,0,3.82762,-0.0708862,0.207734,0.711956
745,0,3.82951,-0.0706331,0.207527,0.711895
747,0,3.82738,-0.0702988,0.207763,0.713116
748,0,3.82602,-0.0773402,0.211612,0.710232
749,0,3.82943,-0.0719309,0.2098,0.715984
751,0,3.82793,-0.0683324,0.207164,0.713711
752,0,3.8286,-0.070539,0.207292,0.711415
753,0,3.82822,-0.0731266,0.20811,0.70843
754,0,3.82689,-0.0730402,0.208364,0.708336
756,0,3.82987,-0.0697933,0.207883,0.712947
757,0,3.82744,-0.0724719,0.210548,0.714965
758,0,3.82733,-0.0723182,0.210203,0.714446
759,0,3.8278,-0.0707334,0.206388,0.710732
760,0,3.82623,-0.0732021,0.208199,0.708473
764,0,3.82502,-0.0664521,0.203442,0.706926
765,0,3.82853,-0.0748737,0.203248,0.692627
768,0,3.82657,-0.0667582,0.203687,0.705915
769,0,3.8279,-0.0701281,0.201264,0.692318
770,0,3.82799,-0.0753983,0.201478,0.686942
771,0,3.82893,-0.0734982,0.20042,0.683554
772,0,3.82868,-0.0731562,0.200381,0.683258
773,0,3.82708,-0.0799437,0.203955,0.682149
776,0,3.82287,-0.0704761,0.200661,0.691477
777,0,3.82825,-0.0738377,0.199458,0.682317
778,0,3.82563,-0.0784382,0.201154,0.678199
779,0,3.82763,-0.0761826,0.199974,0.679717
780,0,3.82363,-0.0758753,0.201571,0.675486
781,0,3.82884,-0.087903,0.203398,0.675455
784,0,3.82535,-0.0688521,0.196917,0.683212
785,0,3.82559,-0.0793473,0.199794,0.672047
786,0,3.82579,-0.0792825,0.199336,0.671752
787,0,3.82877,-0.0789256,0.197389,0.673407
788,0,3.82607,-0.0774618,0.197203,0.668376
794,0,3.82975,-0.0823812,0.199813,0.669008
795,0,3.82638,-0.0808218,0.201865,0.675248
796,0,3.82964,-0.0738971,0.198385,0.677151
797,0,3.83119,-0.0723276,0.197944,0.677743
798,0,3.8239,-0.0784186,0.204081,0.679403
799,0,3.82676,-0.0783394,0.201509,0.67787
800,0,3.82699,-0.0785473,0.201199,0.677847
801,0,3.82898,-0.07567,0.199993,0.680805
802,0,3.83089,-0.0751792,0.198862,0.681734
803,0,3.82962,-0.0741466,0.199597,0.681295
804,0,3.82735,-0.075964,0.200791,0.680755
805,0,3.82734,-0.0756815,0.200666,0.680766
806,0,3.82581,-0.0780078,0.201314,0.677543
807,0,3.82584,-0.0783619,0.201306,0.677734
808,0,3.82605,-0.0778397,0.200953,0.677425
809,0,3.82588,-0.0784017,0.201281,0.677701
810,0,3.82594,-0.0785697,0.201445,0.677489
811,0,3.82571,-0.0783343,0.201471,0.677275
812,0,3.83812,-0.0962867,0.208438,0.669362
813,0,3.82873,-0.0745387,0.202156,0.687882
814,0,3.82582,-0.0778908,0.203807,0.689827
815,0,3.82609,-0.077227,0.202908,0.684961
816,0,3.82978,-0.0730332,0.200417,0.684111
817,0,3.83063,-0.0742537,0.200097,0.681681
818,0,3.82582,-0.0802119,0.203917,0.682121
819,0,3.82657,-0.0772238,0.203513,0.684123
820,0,3.82755,-0.0776903,0.203037,0.684451
821,0,3.83045,-0.0702493,0.199771,0.68582
822,0,3.83019,-0.0726109,0.199376,0.682978
823,0,3.82936,-0.0748665,0.19973,0.679967
824,0,3.82704,-0.0799552,0.201412,0.681519
825,0,3.82724,-0.075932,0.200932,0.68034
826,0,3.82897,-0.0751429,0.200232,0.681323
828,0,3.8243,-0.0703388,0.199029,0.685684
829,0,3.82846,-0.0733969,0.198012,0.676064
830,0,3.82416,-0.0755689,0.20148,0.674905
831,0,3.82564,-0.0790387,0.199121,0.671239
832,0,3.82939,-0.0744405,0.196109,0.670289
833,0,3.82712,-0.0766188,0.197225,0.666975
834,0,3.82913,-0.0768434,0.197129,0.66766
835,0,3.82723,-0.0771329,0.198418,0.672237
836,0,3.82669,-0.0786102,0.199018,0.671043
837,0,3.82774,-0.0738543,0.196663,0.669578
838,0,3.82723,-0.0765789,0.196888,0.667079
839,0,3.82746,-0.0749951,0.194259,0.662935
841,0,3.82486,-0.0772163,0.194904,0.662719
842,0,3.82731,-0.0792488,0.19503,0.65956
843,0,3.82557,-0.0804846,0.195892,0.657772
844,0,3.82702,-0.0786316,0.195036,0.658815
845,0,3.8255,-0.0800745,0.194949,0.657093
846,0,3.83026,-0.0747059,0.191478,0.65775
847,0,3.82498,-0.0831797,0.194985,0.654949
848,0,3.82696,-0.0780666,0.193479,0.65365
849,0,3.82832,-0.0784897,0.19239,0.654168
850,0,3.82816,-0.0799614,0.192616,0.65234
851,0,3.83018,-0.0768632,0.192554,0.655418
852,0,3.83166,-0.0767181,0.191467,0.656328
853,0,3.82895,-0.0777363,0.192725,0.654644
854,0,3.82502,-0.0832595,0.195516,0.655114
855,0,3.82769,-0.0784043,0.19328,0.653745
856,0,3.8292,-0.077477,0.192803,0.654905
857,0,3.82797,-0.0781113,0.193139,0.653598
858,0,3.82788,-0.0781073,0.193023,0.653731
859,0,3.82648,-0.0810694,0.193899,0.650705
860,0,3.82801,-0.0786699,0.192874,0.654002
861,0,3.82782,-0.080207,0.1931,0.651863
862,0,3.83697,-0.110844,0.205362,0.639901
863,0,3.82912,-0.0748491,0.194271,0.663841
864,0,3.8285,-0.0776962,0.19466,0.660873
865,0,3.82764,-0.0827301,0.195449,0.660519
866,0,3.82682,-0.0804111,0.195708,0.658026
867,0,3.82589,-0.0848995,0.19613,0.65918
871,0,3.82307,-0.0776635,0.197991,0.661563
872,0,3.82974,-0.07549,0.191224,0.656395
873,0,3.8269,-0.0799313,0.193105,0.652641
874,0,3.83034,-0.0737397,0.190387,0.652098
875,0,3.8265,-0.0837254,0.192615,0.648716
877,0,3.82612,-0.0809127,0.193582,0.653568
878,0,3.82634,-0.0811827,0.194033,0.651581
879,0,3.82549,-0.0781026,0.192886,0.653512
880,0,3.82815,-0.078358,0.190484,0.648742
881,0,3.82525,-0.0818956,0.192002,0.644541
882,0,3.82571,-0.0818205,0.191662,0.644766
883,0,3.82548,-0.0819627,0.191448,0.64481
884,0,3.82641,-0.0821409,0.192028,0.645029
885,0,3.82905,-0.0783681,0.190414,0.648198
886,0,3.82839,-0.0779868,0.19064,0.648341
887,0,3.82543,-0.0798685,0.190941,0.645153
888,0,3.82599,-0.0817446,0.190814,0.645581
889,0,3.82842,-0.0793234,0.188723,0.641318
890,0,3.82874,-0.0777582,0.188865,0.641832
894,0,3.82586,-0.0865284,0.192483,0.640749
895,0,3.82721,-0.0823488,0.192118,0.643626
896,0,3.82564,-0.082304,0.193502,0.648748
897,0,3.82655,-0.0808704,0.193247,0.651234
898,0,3.82523,-0.0809703,0.193965,0.649783
899,0,3.82644,-0.0803792,0.193466,0.650734
900,0,3.82536,-0.0809234,0.194022,0.649414
901,0,3.82806,-0.0784964,0.192384,0.652567
902,0,3.82712,-0.0782007,0.193371,0.652369
903,0,3.82821,-0.0776233,0.192787,0.653803
904,0,3.82692,-0.0822569,0.193424,0.654809
905,0,3.82785,-0.0767561,0.192661,0.654021
906,0,3.82742,-0.0782121,0.19279,0.652549
908,0,3.82521,-0.0717028,0.187151,0.648706
909,0,3.82753,-0.0799421,0.189148,0.640133
910,0,3.8287,-0.0790208,0.188561,0.641241
911,0,3.82355,-0.0826796,0.190276,0.636954
912,0,3.83619,-0.103435,0.197054,0.628887
913,0,3.82946,-0.0799583,0.19069,0.646724
914,0,3.82878,-0.0764252,0.187563,0.64438
915,0,3.82494,-0.0827234,0.190231,0.638007
916,0,3.82573,-0.0865475,0.1917,0.640788
917,0,3.82779,-0.0802329,0.189666,0.640427
918,0,3.82526,-0.0840422,0.191709,0.642459
919,0,3.82743,-0.0818035,0.19133,0.643883
920,0,3.82861,-0.0811933,0.190025,0.644336
921,0,3.82914,-0.0751267,0.188269,0.64341
922,0,3.82392,-0.0849721,0.191868,0.640638
923,0,3.82812,-0.0785891,0.188936,0.641134
924,0,3.82545,-0.0817548,0.188561,0.638146
925,0,3.82722,-0.0809327,0.187428,0.633154
926,0,3.82882,-0.0798102,0.186897,0.634529
927,0,3.82741,-0.081137,0.187101,0.633513
931,0,3.82274,-0.24019,0.231421,0.502567
932,0,3.82576,-0.084716,0.191084,0.645258
933,0,3.82879,-0.0815968,0.189152,0.644067
934,0,3.82374,-0.085157,0.192183,0.640708
935,0,3.82518,-0.0824768,0.191548,0.642403
936,0,3.82258,-0.0881133,0.192841,0.638322
937,0,3.82623,-0.083068,0.18994,0.637329
938,0,3.82459,-0.0868534,0.192215,0.639793
939,0,3.8261,-0.0833527,0.191637,0.642735
940,0,3.82598,-0.0849279,0.191221,0.641048
941,0,3.82609,-0.0850454,0.189993,0.642706
942,0,3.8273,-0.0809065,0.188904,0.638998
943,0,3.8264,-0.081378,0.189512,0.639148
944,0,3.82452,-0.0849238,0.190286,0.63579
945,0,3.8233,-0.0855801,0.19061,0.63474
946,0,3.82474,-0.0858985,0.19052,0.635164
947,0,3.82761,-0.0820052,0.189648,0.638765
948,0,3.82685,-0.0818899,0.189466,0.638188
949,0,3.82544,-0.0804635,0.188553,0.638687
950,0,3.82293,-0.0886829,0.189253,0.632146
951,0,3.82703,-0.0830559,0.186617,0.632217
952,0,3.82246,-0.0870681,0.18915,0.62846
953,0,3.82227,-0.0866918,0.188922,0.628398
954,0,3.82524,-0.0849303,0.187937,0.630015
955,0,3.82313,-0.0865109,0.18831,0.627724
957,0,3.8224,-0.086586,0.188167,0.630583
958,0,3.82652,-0.0837706,0.185594,0.625588
959,0,3.82599,-0.0819755,0.185857,0.625948
960,0,3.8279,-0.0835513,0.184397,0.625924
961,0,3.82563,-0.0873553,0.185725,0.627419
962,0,3.8262,-0.0856386,0.185594,0.623317
963,0,3.82571,-0.084658,0.186574,0.624021
964,0,3.82539,-0.0847022,0.186288,0.623865
965,0,3.82488,-0.0856405,0.187221,0.629133
966,0,3.82532,-0.0833942,0.185547,0.625266
967,0,3.82511,-0.083897,0.185851,0.625626
968,0,3.82686,-0.0866514,0.184314,0.622447
969,0,3.82435,-0.0863731,0.185992,0.622654
970,0,3.82568,-0.0868407,0.184961,0.622613
971,0,3.8235,-0.0862225,0.186376,0.622924
972,0,3.82384,-0.0865442,0.186037,0.622878
973,0,3.82257,-0.087678,0.186603,0.621429
974,0,3.82783,-0.082106,0.183452,0.621449
975,0,3.82628,-0.0849342,0.183828,0.618483
976,0,3.82526,-0.0859309,0.184153,0.617468
977,0,3.8252,-0.0855785,0.184165,0.617173
978,0,3.82274,-0.0838749,0.186759,0.620166
979,0,3.82364,-0.0843006,0.186588,0.619925
980,0,3.82409,-0.0874247,0.186693,0.620171
981,0,3.83655,-0.130266,0.198407,0.60074
982,0,3.82547,-0.0842153,0.187967,0.631324
983,0,3.82596,-0.0903523,0.188279,0.630964
984,0,3.82512,-0.086867,0.188102,0.627391
985,0,3.82483,-0.0847127,0.188289,0.629149
986,0,3.8239,-0.086849,0.188375,0.627913
987,0,3.82504,-0.0848278,0.187717,0.629674
988,0,3.82499,-0.0845485,0.188218,0.629492
989,0,3.82505,-0.0852927,0.188409,0.629627
990,0,3.82343,-0.0867252,0.188389,0.628072
991,0,3.82557,-0.084616,0.186028,0.624139
992,0,3.82825,-0.0831052,0.184189,0.626111
993,0,3.82462,-0.0858951,0.186157,0.623243
994,0,3.82379,-0.0869297,0.186469,0.622999
995,0,3.82479,-0.0860409,0.185748,0.623679
996,0,3.82591,-0.085738,0.18435,0.617796
997,0,3.82566,-0.0860876,0.184527,0.617869
998,0,3.8287,-0.0819772,0.182975,0.620958
999,0,3.82641,-0.0876449,0.18365,0.620412
1000,0,3.82606,-0.0846799,0.183752,0.619039
1001,0,3.82564,-0.0848473,0.183991,0.61914
1002,0,3.82506,-0.0855948,0.183791,0.616207
1003,0,3.82535,-0.0874644,0.183766,0.617307
1004,0,3.82629,-0.0873811,0.184327,0.616572
1005,0,3.8276,-0.0847951,0.183184,0.618631
1006,0,3.82697,-0.084581,0.183337,0.618484
1007,0,3.82575,-0.084492,0.183922,0.618493
1008,0,3.82599,-0.0836444,0.183723,0.618843
1009,0,3.82695,-0.0847668,0.182922,0.61852
1010,0,3.8257,-0.0831238,0.183655,0.618605
1011,0,3.82672,-0.0850381,0.183793,0.618217
1012,0,3.82909,-0.0816535,0.182284,0.6209
1014,0,3.8278,-0.0816859,0.183106,0.62372
1015,0,3.82508,-0.0828935,0.183647,0.618432
1016,0,3.82458,-0.0848671,0.184032,0.61826
1017,0,3.82687,-0.0822888,0.180634,0.615398
1018,0,3.82576,-0.0850661,0.181457,0.61201
1019,0,3.827,-0.0847064,0.180995,0.613326
1020,0,3.82703,-0.085803,0.181826,0.611706
1021,0,3.82771,-0.0824825,0.181441,0.614188
1022,0,3.82749,-0.0823913,0.181248,0.61388
1023,0,3.82404,-0.0844794,0.181893,0.611393
1024,0,3.8251,-0.0878719,0.181061,0.608691
1025,0,3.82632,-0.0834629,0.179726,0.607267
1028,0,3.82487,-0.0868594,0.182066,0.608719
1029,0,3.82666,-0.083874,0.181566,0.611043
1030,0,3.82615,-0.0846502,0.181613,0.611241
1031,0,3.83717,-0.112543,0.193094,0.603475
1032,0,3.82501,-0.0837105,0.184963,0.625457
1033,0,3.82711,-0.0827205,0.183467,0.61953
1034,0,3.82676,-0.0826972,0.183473,0.619477
1035,0,3.82746,-0.0809886,0.183005,0.621101
1036,0,3.82504,-0.0838252,0.184134,0.617989
1038,0,3.82537,-0.0831189,0.184003,0.618779
1039,0,3.82723,-0.0814326,0.183012,0.62027
1040,0,3.82357,-0.0856785,0.18395,0.616105
1041,0,3.82474,-0.0843571,0.1833,0.617974
1042,0,3.82685,-0.0823885,0.181226,0.613519
1043,0,3.82683,-0.0814231,0.180996,0.61373
1044,0,3.8249,-0.0868867,0.181671,0.609083
1045,0,3.82482,-0.0858409,0.181894,0.610515
1046,0,3.8246,-0.0859217,0.181982,0.610582
1047,0,3.82504,-0.0868695,0.181108,0.609271
1048,0,3.82841,-0.081168,0.178687,0.609239
1049,0,3.82454,-0.0831474,0.17919,0.606436
1050,0,3.82434,-0.0879874,0.178883,0.602427
1051,0,3.82605,-0.0850838,0.177593,0.599414
1052,0,3.82569,-0.0841113,0.177816,0.599943
1053,0,3.82676,-0.0850831,0.177341,0.599561
1054,0,3.8235,-0.0889757,0.180638,0.601184
1055,0,3.8225,-0.0901608,0.180563,0.600146
1056,0,3.8232,-0.0895247,0.180133,0.600423
1058,0,3.8272,-0.0840216,0.176339,0.602726
1059,0,3.82476,-0.0853403,0.1781,0.596609
1060,0,3.82287,-0.0890363,0.178728,0.595141
1061,0,3.82586,-0.087835,0.178094,0.596593
1062,0,3.82359,-0.0898885,0.180142,0.600209
1063,0,3.82274,-0.0884936,0.180334,0.600803
1064,0,3.82534,-0.0844802,0.177221,0.598863
1065,0,3.82839,-0.0858136,0.174871,0.597814
1066,0,3.82698,-0.0807951,0.175155,0.595606
1067,0,3.82579,-0.0859724,0.175236,0.592326
1068,0,3.82325,-0.0909457,0.176696,0.593898
1069,0,3.82149,-0.0888497,0.178733,0.590858
1070,0,3.82257,-0.0932405,0.178113,0.591177
1071,0,3.82672,-0.0860041,0.1746,0.592135
1072,0,3.82357,-0.0918339,0.176495,0.592211
1073,0,3.82214,-0.0887104,0.1762,0.589681
1074,0,3.8218,-0.0914888,0.176023,0.586926
1078,0,3.82597,-0.0908341,0.17531,0.587368
1079,0,3.82446,-0.0876649,0.176534,0.589869
1081,0,3.83383,-0.122739,0.188457,0.578986
1082,0,3.82596,-0.0837409,0.176533,0.599906
1083,0,3.82624,-0.0854992,0.176529,0.596389
1084,0,3.82472,-0.089873,0.177293,0.597819
1085,0,3.823,-0.0906819,0.177965,0.593674
1086,0,3.82706,-0.0850773,0.174843,0.592701
1087,0,3.82361,-0.0902666,0.178809,0.594307
1089,0,3.82515,-0.0854911,0.176978,0.599716
1090,0,3.82705,-0.0858093,0.175175,0.592249
1091,0,3.82474,-0.0849223,0.175305,0.592967
1092,0,3.82326,-0.0881554,0.176061,0.58992
1093,0,3.8239,-0.0910208,0.174918,0.587037
1094,0,3.82528,-0.0868881,0.173784,0.58532
1095,0,3.82291,-0.0912641,0.176448,0.587222
1096,0,3.82386,-0.0867424,0.175973,0.589345
1097,0,3.82366,-0.088011,0.176028,0.589425
1099,0,3.82708,-0.082557,0.17322,0.591474
1100,0,3.82569,-0.085964,0.174008,0.585358
1101,0,3.82691,-0.0865997,0.17294,0.584973
1102,0,3.82557,-0.0918721,0.173918,0.587247
1103,0,3.8264,-0.084422,0.173556,0.584991
1104,0,3.82318,-0.09118,0.176253,0.586059
1105,0,3.82444,-0.0882118,0.1763,0.589171
1106,0,3.82635,-0.0838166,0.173584,0.586977
1107,0,3.82572,-0.0866348,0.173359,0.584601
1108,0,3.82543,-0.0851332,0.173266,0.584831
1109,0,3.82553,-0.0840992,0.171446,0.580224
1110,0,3.82553,-0.0872972,0.171002,0.578077
1111,0,3.82427,-0.0910453,0.171684,0.574915
1112,0,3.82662,-0.0909132,0.172087,0.574993
1113,0,3.82672,-0.0866028,0.171212,0.577679
1114,0,3.82534,-0.08933,0.173922,0.581722
1115,0,3.8245,-0.0890607,0.172118,0.581878
1116,0,3.82148,-0.0904605,0.172697,0.574978
1117,0,3.82537,-0.0878615,0.170221,0.570982
1119,0,3.82674,-0.0884551,0.169333,0.575615
1120,0,3.82367,-0.093571,0.172161,0.57286
1121,0,3.82228,-0.0897109,0.175948,0.575972
1122,0,3.82602,-0.0856762,0.171266,0.577061
1123,0,3.82527,-0.0868782,0.171908,0.577432
1124,0,3.82303,-0.0904779,0.172432,0.57412
1125,0,3.82566,-0.0819671,0.169421,0.571999
1126,0,3.82492,-0.0878645,0.169729,0.570738
1127,0,3.82252,-0.0909727,0.170918,0.567746
1138,0,3.82673,-0.0852095,0.17062,0.580923
1143,0,3.82493,-0.0875816,0.170782,0.58086
1144,0,3.82711,-0.0845536,0.168813,0.574212
1145,0,3.82554,-0.0881027,0.169385,0.571305
1146,0,3.82395,-0.0910611,0.170163,0.568441
1147,0,3.82635,-0.0919165,0.169771,0.568518
1148,0,3.82347,-0.0929943,0.173215,0.57217
1149,0,3.82651,-0.0903997,0.170606,0.574815
1150,0,3.8235,-0.0890173,0.172682,0.574289
1151,0,3.82678,-0.0824126,0.169329,0.572914
1152,0,3.82571,-0.0879442,0.16982,0.570698
1153,0,3.82357,-0.0939111,0.171042,0.571942
1154,0,3.82496,-0.0870664,0.170287,0.570598
1155,0,3.82658,-0.0888519,0.169314,0.570429
1156,0,3.82394,-0.0933383,0.17222,0.571849
1157,0,3.82709,-0.0852432,0.169326,0.572966
1158,0,3.8276,-0.0852806,0.169169,0.572651
1160,0,3.82677,-0.0861633,0.169249,0.573745
1161,0,3.82282,-0.0919542,0.170856,0.567595
1162,0,3.82356,-0.0921634,0.169873,0.567469
1163,0,3.8262,-0.0879708,0.167442,0.563261
1164,0,3.8236,-0.0938029,0.169712,0.564976
1165,0,3.82737,-0.0835782,0.167507,0.565276
1166,0,3.82685,-0.0855373,0.166991,0.566169
1167,0,3.82409,-0.094183,0.168296,0.564459
1168,0,3.82217,-0.0865767,0.167953,0.562459
1169,0,3.82506,-0.0879062,0.165579,0.555701
1170,0,3.82389,-0.0898198,0.164448,0.556164
1171,0,3.82422,-0.0920056,0.164213,0.549516
1172,0,3.82485,-0.0904697,0.163615,0.551208
1173,0,3.82266,-0.0967189,0.167085,0.551407
1174,0,3.82395,-0.0934864,0.165463,0.553744
1175,0,3.82275,-0.0944856,0.166501,0.553363
1176,0,3.82709,-0.0927071,0.163875,0.554726
1177,0,3.82202,-0.093776,0.166396,0.55345
1178,0,3.82553,-0.0883254,0.163988,0.552332
1180,0,3.82237,-0.10028,0.165179,0.547768
1185,0,3.82585,-0.0867795,0.165407,0.559687
1186,0,3.82608,-0.0899974,0.163298,0.557374
1187,0,3.81966,-0.0965151,0.166658,0.55129
1188,0,3.82496,-0.091586,0.164159,0.550534
1189,0,3.82551,-0.0969737,0.166711,0.556578
1190,0,3.82677,-0.0897208,0.165349,0.557052
1191,0,3.82476,-0.0904202,0.165631,0.556234
1192,0,3.82159,-0.0934919,0.166837,0.553456
1193,0,3.8205,-0.0942026,0.167711,0.554455
1194,0,3.82642,-0.0876243,0.163154,0.553527
1195,0,3.82345,-0.0965873,0.164288,0.550366
1196,0,3.81759,-0.0962583,0.170013,0.551565
1197,0,3.82294,-0.0933025,0.166516,0.55299
1198,0,3.82428,-0.0933119,0.16487,0.552951
1199,0,3.82164,-0.0943672,0.1671,0.552824
1200,0,3.82584,-0.0865045,0.16289,0.551152
1201,0,3.8207,-0.0911,0.166551,0.549887
1202,0,3.82491,-0.0922787,0.16302,0.548751
1203,0,3.82072,-0.093256,0.165086,0.545507
1204,0,3.82073,-0.0950282,0.164392,0.546122
1205,0,3.82307,-0.0940933,0.1645,0.546194
1206,0,3.8217,-0.0941805,0.164968,0.545742
1207,0,3.82156,-0.0926802,0.164949,0.545233
1208,0,3.82237,-0.0942236,0.163959,0.545375
1209,0,3.8244,-0.0895356,0.161795,0.54461
1210,0,3.82383,-0.092436,0.161872,0.541804
1214,0,3.82311,-0.0968276,0.163297,0.538794
1215,0,3.82558,-0.0889621,0.161685,0.544322
1218,0,3.82284,-0.0892641,0.168006,0.562641
1219,0,3.82394,-0.0913797,0.167326,0.560076
1220,0,3.8229,-0.0909177,0.167252,0.559844
1221,0,3.82409,-0.0899722,0.166399,0.556201
1222,0,3.82472,-0.090964,0.165667,0.55642
1223,0,3.82593,-0.0903172,0.164877,0.556585
1224,0,3.82545,-0.0899895,0.165316,0.556714
1225,0,3.82608,-0.0891157,0.16499,0.556551
1226,0,3.82382,-0.0901844,0.166001,0.556972
1227,0,3.82321,-0.0897043,0.166157,0.556793
1228,0,3.8205,-0.0944619,0.16634,0.55377
1231,0,3.83517,-0.137907,0.181136,0.535462
1235,0,3.82499,-0.0895131,0.166665,0.563042
1236,0,3.82201,-0.0926972,0.167726,0.560241
1237,0,3.82455,-0.0884618,0.165194,0.555662
1238,0,3.82693,-0.0948032,0.16599,0.558994
1239,0,3.82623,-0.0870315,0.165911,0.558909
1240,0,3.82236,-0.0912504,0.168527,0.559908
1241,0,3.8234,-0.0899597,0.16585,0.555455
1242,0,3.82503,-0.0935566,0.164413,0.552859
1243,0,3.8223,-0.0935906,0.166079,0.552911
1244,0,3.82479,-0.090461,0.163697,0.548599
1245,0,3.8253,-0.09109,0.162007,0.548536
1246,0,3.82,-0.0982718,0.165417,0.543065
1247,0,3.82711,-0.0942334,0.161674,0.54718
1248,0,3.82135,-0.0980413,0.165436,0.54302
1249,0,3.82138,-0.0941629,0.164851,0.545122
1250,0,3.82392,-0.0920012,0.162063,0.540995
1251,0,3.82046,-0.0962474,0.162108,0.538397
1252,0,3.82312,-0.093215,0.159518,0.534073
1255,0,3.82104,-0.101038,0.161437,0.528867
1256,0,3.8231,-0.0964146,0.161033,0.531658
1257,0,3.82087,-0.0999618,0.163346,0.535283
1259,0,3.82432,-0.0933646,0.159463,0.533828
1260,0,3.82213,-0.0964556,0.159891,0.530502
1261,0,3.8197,-0.100363,0.160647,0.527873
1262,0,3.82366,-0.0954833,0.158086,0.526742
1263,0,3.8239,-0.093117,0.157677,0.527622
1264,0,3.82186,-0.0990238,0.158277,0.523476
1265,0,3.82287,-0.0992303,0.158261,0.523456
1266,0,3.82247,-0.0964873,0.158453,0.522841
1267,0,3.82269,-0.0937757,0.158701,0.525781
1268,0,3.82258,-0.0962558,0.157518,0.522481
1269,0,3.81889,-0.100703,0.158872,0.521564
1270,0,3.82021,-0.102038,0.158101,0.520891
1271,0,3.82224,-0.099576,0.156516,0.52007
1272,0,3.81729,-0.105333,0.159095,0.517593
1273,0,3.82145,-0.0999951,0.156824,0.516459
1274,0,3.82172,-0.0982423,0.156784,0.516064
1275,0,3.8191,-0.107235,0.161756,0.522074
1276,0,3.82293,-0.0952396,0.157734,0.525774
1277,0,3.81993,-0.099013,0.158835,0.523075
1278,0,3.82236,-0.0930115,0.156357,0.517734
1279,0,3.82024,-0.0991092,0.158322,0.519426
1280,0,3.81833,-0.100928,0.159289,0.520511