File: calce_correlation_analysis/matrices/CALCE_CS2_36_cycle_feature_matrix.csv
cycle_number,rul,voltage,current,capacity,charge_capacity
7,488,3.85399,-0.01003,0.195365,0.748137
8,487,3.85774,-0.00970959,0.193392,0.743959
9,486,3.85817,-0.00962031,0.193362,0.742734
10,485,3.85545,-0.0115051,0.194344,0.739847
11,484,3.86187,-0.0111907,0.193896,0.740226
12,483,3.8569,-0.0109272,0.19533,0.744845
13,482,3.85624,-0.0111822,0.195334,0.745251
14,481,3.85689,-0.009517,0.194823,0.746064
15,480,3.85653,-0.00945795,0.194818,0.746086
16,479,3.85632,-0.00953939,0.194808,0.745909
17,478,3.85627,-0.00942414,0.194809,0.745908
18,477,3.85895,-0.00658924,0.192369,0.744779
19,476,3.85878,-0.00657587,0.192359,0.744583
20,475,3.85866,-0.00661932,0.192354,0.744283
21,474,3.85853,-0.00654149,0.192345,0.744068
22,473,3.85773,-0.00802754,0.192843,0.743164
23,472,3.85768,-0.00793083,0.192842,0.743007
24,471,3.85719,-0.00796387,0.19283,0.742864
25,470,3.8562,-0.00850141,0.193336,0.741506
26,469,3.85715,-0.00821329,0.19282,0.742198
27,468,3.8526,-0.00715685,0.191265,0.738142
28,467,3.85919,-0.00819405,0.189798,0.73222
29,466,3.85874,-0.0095344,0.190279,0.73012
30,465,3.85919,-0.0097929,0.190256,0.729128
31,464,3.85796,-0.0108736,0.190741,0.72766
32,463,3.85962,-0.0124352,0.192776,0.729884
33,462,3.85823,-0.00975527,0.191769,0.733989
34,461,3.85437,-0.00831907,0.189719,0.731499
35,460,3.85986,-0.00819278,0.188255,0.725723
36,459,3.86066,-0.00989456,0.188756,0.723583
37,458,3.86009,-0.00979869,0.188741,0.723482
38,457,3.86038,-0.0112895,0.189258,0.722201
39,456,3.86069,-0.0111724,0.190769,0.725991
40,455,3.85916,-0.00972998,0.190266,0.728942
41,454,3.85518,-0.00832567,0.188214,0.72632
42,453,3.85899,-0.011113,0.189211,0.721487
43,452,3.85919,-0.0109444,0.189205,0.72107
44,451,3.86238,-0.0083131,0.186761,0.719828
45,450,3.86114,-0.00962413,0.187257,0.718583
46,449,3.86338,-0.00955137,0.188771,0.721824
47,448,3.86127,-0.0079476,0.18828,0.725195
48,447,3.85795,-0.00685585,0.186247,0.722788
49,446,3.86137,-0.00972278,0.187248,0.718504
50,445,3.86112,-0.0100608,0.187231,0.717921
51,444,3.86104,-0.00994832,0.187216,0.717581
61,443,3.85595,-0.0101163,0.188788,0.725906
62,442,3.85749,-0.0128355,0.19126,0.725502
63,441,3.85904,-0.00972051,0.188793,0.724965
64,440,3.85452,-0.0118715,0.189743,0.721702
65,439,3.86105,-0.00994485,0.187281,0.719101
66,438,3.86065,-0.0101035,0.187257,0.718534
67,437,3.85995,-0.0112813,0.187752,0.717332
68,436,3.85804,-0.0128873,0.188222,0.715813
69,435,3.86034,-0.0123515,0.188242,0.715231
70,434,3.8603,-0.0113211,0.187725,0.716262
71,433,3.86019,-0.00971809,0.185736,0.713944
72,432,3.86193,-0.0113221,0.186234,0.711661
73,431,3.86139,-0.0114759,0.186224,0.71142
74,430,3.86136,-0.0114799,0.186217,0.711171
75,429,3.86038,-0.0130495,0.186708,0.709661
76,428,3.86254,-0.0113642,0.186224,0.710561
77,427,3.8613,-0.0114394,0.186215,0.71115
78,426,3.86127,-0.0114348,0.186206,0.710819
79,425,3.86157,-0.0113106,0.186201,0.710509
80,424,3.86159,-0.0114343,0.186194,0.710255
83,423,3.86068,-0.011481,0.186173,0.710756
84,422,3.86026,-0.0130324,0.186682,0.708683
85,421,3.86046,-0.0128987,0.18667,0.708396
86,420,3.86046,-0.012954,0.186671,0.708038
88,419,3.85974,-0.0124746,0.186652,0.708693
89,418,3.86085,-0.0127741,0.186662,0.707523
90,417,3.8623,-0.0112139,0.184713,0.705821
91,416,3.86247,-0.0113408,0.184702,0.705304
92,415,3.86245,-0.0113029,0.184682,0.705075
93,414,3.86242,-0.0101003,0.182676,0.701927
94,413,3.86269,-0.0133081,0.183686,0.698284
95,412,3.86261,-0.0127679,0.183668,0.697868
97,411,3.75705,-0.768237,0.431705,0.0888352
98,410,3.86077,-0.0129717,0.185183,0.703534
99,409,3.86119,-0.0114838,0.184659,0.704107
100,408,3.86238,-0.014591,0.187176,0.705432
101,407,3.86074,-0.0116153,0.186161,0.708809
102,406,3.85987,-0.00803909,0.183658,0.708206
103,405,3.86013,-0.012915,0.185159,0.703025
104,404,3.86048,-0.0131688,0.185164,0.702403
105,403,3.86016,-0.0132068,0.185157,0.702313
106,402,3.86231,-0.0100784,0.182682,0.70071
107,401,3.86579,-0.0130503,0.18521,0.701549
108,400,3.86001,-0.0131008,0.18664,0.706436
110,399,3.86001,-0.0101618,0.18266,0.702503
111,398,3.86322,-0.0117965,0.183173,0.698311
112,397,3.8627,-0.0124552,0.183683,0.697731
113,396,3.86111,-0.0130459,0.183649,0.697368
114,395,3.86433,-0.0141486,0.184206,0.695337
115,394,3.86219,-0.0131536,0.185171,0.701361
117,393,3.85743,-0.00999051,0.182614,0.701463
118,392,3.86084,-0.0146713,0.184141,0.695124
119,391,3.86136,-0.0148507,0.184139,0.69483
120,390,3.86323,-0.0117106,0.181671,0.694022
121,389,3.86261,-0.0134022,0.182162,0.691969
122,388,3.86557,-0.0131655,0.183685,0.695305
123,387,3.86081,-0.0130523,0.185109,0.700588
124,386,3.86138,-0.0130264,0.185141,0.70109
125,385,3.8617,-0.0114878,0.184642,0.70261
126,384,3.86149,-0.0116935,0.184651,0.703056
127,383,3.8613,-0.0116132,0.184662,0.703431
128,382,3.86209,-0.00981815,0.184155,0.704509
129,381,3.8621,-0.0100908,0.184166,0.70468
130,380,3.86172,-0.00987207,0.184169,0.705
131,379,3.86174,-0.0101573,0.184171,0.70495
132,378,3.86163,-0.0100187,0.184177,0.705153
133,377,3.86156,-0.0100575,0.184178,0.705232
134,376,3.86151,-0.00970325,0.184179,0.705377
135,375,3.86145,-0.00990986,0.184181,0.705413
136,374,3.86227,-0.00854666,0.183672,0.706079
137,373,3.86225,-0.00814563,0.18367,0.706175
138,372,3.86073,-0.00550843,0.181159,0.705077
139,371,3.85861,-0.0130893,0.183602,0.696581
140,370,3.8631,-0.0112553,0.18167,0.693373
141,369,3.86267,-0.0118221,0.181659,0.692997
142,368,3.86163,-0.0117995,0.181628,0.692685
143,367,3.86517,-0.0160875,0.184694,0.692569
144,366,3.8639,-0.00972728,0.18267,0.699045
145,365,3.86175,-0.0101841,0.182652,0.699858
146,364,3.85997,-0.009599,0.181114,0.694703
147,363,3.86697,-0.0178797,0.185199,0.690495
148,362,3.86224,-0.0146319,0.184184,0.695508
151,361,3.85803,-0.00803587,0.180634,0.698336
152,360,3.86265,-0.0133672,0.182167,0.691866
153,359,3.86301,-0.013059,0.182173,0.691571
154,358,3.86182,-0.0135033,0.182157,0.691173
155,357,3.86182,-0.014628,0.182674,0.689137
156,356,3.8639,-0.0147144,0.184189,0.693207
157,355,3.86292,-0.0111784,0.183178,0.697353
158,354,3.85809,-0.00955801,0.181125,0.694683
159,353,3.86142,-0.0151061,0.182646,0.688936
160,352,3.86127,-0.01498,0.182644,0.688565
161,351,3.86127,-0.0147174,0.182638,0.688675
162,350,3.85927,-0.014795,0.182608,0.688142
163,349,3.86503,-0.0164293,0.184667,0.689849
164,348,3.86199,-0.0131353,0.183656,0.694964
165,347,3.85889,-0.00875181,0.180603,0.694719
166,346,3.85889,-0.0167393,0.183129,0.686959
167,345,3.86111,-0.016334,0.18313,0.68644
168,344,3.85967,-0.0157354,0.183113,0.686908
169,343,3.86143,-0.0135188,0.180631,0.685202
170,342,3.86634,-0.0162065,0.183196,0.686304
171,341,3.8608,-0.0149445,0.184115,0.692671
173,340,3.86031,-0.0134588,0.18361,0.695369
174,339,3.86088,-0.0131047,0.183623,0.694834
175,338,3.86098,-0.0129268,0.183629,0.695085
176,337,3.86181,-0.0117287,0.183123,0.695914
177,336,3.86166,-0.0117975,0.183124,0.6961
178,335,3.86134,-0.0116666,0.183131,0.696358
179,334,3.86042,-0.012077,0.183641,0.695282
180,333,3.86132,-0.0113771,0.183127,0.696433
181,332,3.86124,-0.0118612,0.183126,0.69629
182,331,3.86031,-0.0121281,0.183642,0.695349
183,330,3.86028,-0.0122145,0.183651,0.695432
184,329,3.86118,-0.0117746,0.183138,0.69652
185,328,3.86077,-0.0121894,0.183661,0.695792
186,327,3.86186,-0.00990768,0.182637,0.697984
187,326,3.85501,-0.0108482,0.181603,0.693163
188,325,3.86002,-0.0143453,0.1826,0.687935
189,324,3.85994,-0.0148916,0.182593,0.687286
190,323,3.85911,-0.0166217,0.183097,0.68603
191,322,3.86086,-0.0136124,0.18061,0.684344
192,321,3.86624,-0.014657,0.182655,0.686458
193,320,3.86224,-0.0122087,0.182158,0.689868
194,319,3.85672,-0.0119239,0.181551,0.691257
195,318,3.86091,-0.0153722,0.18113,0.682938
196,317,3.86224,-0.0147091,0.181142,0.682584
197,316,3.86805,-0.0168263,0.181696,0.681379
198,315,3.8666,-0.0148952,0.182687,0.687685
199,314,3.86045,-0.0150126,0.184117,0.692732
200,313,3.85834,-0.0114315,0.181599,0.692484
201,312,3.86186,-0.0136862,0.180636,0.685008
202,311,3.86065,-0.0166834,0.183108,0.685364
203,310,3.86259,-0.0136805,0.180648,0.684843
205,309,3.86073,-0.0166383,0.183121,0.686474
206,308,3.8628,-0.0132476,0.182135,0.689296
207,307,3.86271,-0.0118565,0.181636,0.691086
208,306,3.85801,-0.0119337,0.180094,0.687499
209,305,3.86192,-0.0153294,0.181124,0.682988
210,304,3.86193,-0.0134986,0.180602,0.684012
211,303,3.86128,-0.0149661,0.181119,0.68299
212,302,3.86115,-0.0151438,0.181125,0.682492
213,301,3.86332,-0.0148901,0.182631,0.686725
214,300,3.8622,-0.0119768,0.181616,0.690514
215,299,3.85806,-0.0104076,0.17958,0.687788
216,298,3.86182,-0.0150604,0.181115,0.682767
217,297,3.86216,-0.0136545,0.180609,0.683757
218,296,3.86421,-0.0151779,0.182644,0.686599
219,295,3.86196,-0.0118822,0.181625,0.690711
220,294,3.86079,-0.0122416,0.182135,0.689877
221,293,3.86066,-0.0123102,0.182139,0.690037
222,292,3.86066,-0.0124019,0.182146,0.690072
223,291,3.86153,-0.0118452,0.181629,0.691083
224,290,3.86054,-0.0124014,0.182148,0.690276
225,289,3.86285,-0.0101965,0.18113,0.692101
226,288,3.86104,-0.0106427,0.181647,0.691354
227,287,3.86124,-0.0105836,0.181644,0.691284
229,286,3.86073,-0.0107306,0.181639,0.692064
230,285,3.86119,-0.0108066,0.18164,0.691385
231,284,3.86107,-0.0106869,0.181642,0.691362
232,283,3.86099,-0.010691,0.181644,0.691302
233,282,3.86104,-0.0107778,0.181644,0.691369
234,281,3.86098,-0.0108071,0.181657,0.691337
235,280,3.86091,-0.0106694,0.181655,0.691173
236,279,3.86084,-0.0108241,0.181654,0.691218
237,278,3.857,-0.00950111,0.179615,0.688249
238,277,3.86114,-0.0142092,0.181145,0.682642
239,276,3.86012,-0.0140831,0.181127,0.68253
241,275,3.86135,-0.0136878,0.179122,0.679389
242,274,3.86476,-0.015799,0.181679,0.68074
243,273,3.85992,-0.0149955,0.182598,0.686884
244,272,3.85809,-0.0107607,0.180083,0.686111
245,271,3.86024,-0.0144572,0.179651,0.67866
246,270,3.85895,-0.0177247,0.182107,0.678898
247,269,3.86847,-0.022204,0.184762,0.67734
250,268,3.85972,-0.0094135,0.18117,0.695526
251,267,3.85583,-0.0159712,0.183132,0.688968
252,266,3.85732,-0.0172618,0.183648,0.686368
253,265,3.86029,-0.0144021,0.181179,0.685115
255,264,3.77032,-0.688848,0.395002,0.127677
256,263,3.85761,-0.0149504,0.179637,0.679192
257,262,3.86402,-0.0163302,0.181686,0.681589
258,261,3.85747,-0.0162672,0.183124,0.68705
259,260,3.85562,-0.0132595,0.18061,0.686491
260,259,3.85682,-0.0164771,0.180154,0.678824
261,258,3.85965,-0.0164127,0.180159,0.677559
262,257,3.86133,-0.0154456,0.179645,0.678304
264,256,3.82535,-0.489076,0.330638,0.235987
265,255,3.85783,-0.0161275,0.180149,0.677524
266,254,3.85845,-0.0180825,0.180679,0.676403
267,253,3.8621,-0.0194401,0.182708,0.678636
268,252,3.86063,-0.0150219,0.181178,0.684495
269,251,3.8602,-0.0129746,0.180653,0.686002
270,250,3.85618,-0.0150965,0.179631,0.680734
271,249,3.85998,-0.0179931,0.180688,0.676309
272,248,3.85734,-0.0181544,0.180662,0.676729
273,247,3.85756,-0.0176753,0.180642,0.675849
274,246,3.86167,-0.0186155,0.180675,0.674943
275,245,3.85959,-0.0179795,0.182152,0.680465
276,244,3.85941,-0.0163066,0.181644,0.682317
277,243,3.85309,-0.0165319,0.180088,0.678448
278,242,3.85993,-0.0189032,0.180615,0.673979
279,241,3.85759,-0.0196023,0.181129,0.673678
280,240,3.85809,-0.0197047,0.181123,0.673705
281,239,3.85729,-0.0210198,0.181648,0.672461
282,238,3.86266,-0.0163416,0.180155,0.676238
283,237,3.85832,-0.0178154,0.1821,0.679787
284,236,3.85897,-0.0162418,0.181585,0.68098
285,235,3.85884,-0.0162617,0.181591,0.681244
286,234,3.85883,-0.0163291,0.181598,0.681456
287,233,3.85877,-0.0161253,0.181599,0.681614
288,232,3.85894,-0.0161226,0.181613,0.68187
289,231,3.85955,-0.0142968,0.181092,0.682685
290,230,3.85972,-0.0145428,0.181095,0.682871
291,229,3.85925,-0.0144949,0.18109,0.682833
292,228,3.85925,-0.0146351,0.181084,0.682744
293,227,3.8601,-0.0145115,0.181103,0.682846
294,226,3.85932,-0.0144745,0.181097,0.68295
295,225,3.85962,-0.0146241,0.181096,0.682978
296,224,3.85936,-0.0145136,0.181099,0.683138
297,223,3.8595,-0.014559,0.181106,0.683295
298,222,3.86049,-0.0112342,0.178618,0.682226
299,221,3.85832,-0.0127543,0.177571,0.675171
300,220,3.86258,-0.0160531,0.178624,0.670671
301,219,3.85979,-0.0160627,0.178599,0.671576
302,218,3.85917,-0.0178394,0.179099,0.669722
303,217,3.86486,-0.0172287,0.178632,0.66975
304,216,3.86159,-0.0159118,0.180104,0.675424
305,215,3.86212,-0.0138587,0.179082,0.678222
306,214,3.85506,-0.0145562,0.178029,0.673394
307,213,3.85921,-0.0193377,0.179596,0.667224
308,212,3.86127,-0.0162872,0.178551,0.669324
309,211,3.86003,-0.0179376,0.179068,0.668219
310,210,3.86048,-0.0164014,0.177095,0.665935
311,209,3.86499,-0.0169345,0.178619,0.669387
312,208,3.86275,-0.0143393,0.178125,0.672284
314,207,3.8676,-0.0237261,0.182184,0.66852
315,206,3.86087,-0.016167,0.178643,0.67275
316,205,3.86328,-0.0202282,0.181175,0.673192
317,204,3.86176,-0.0161512,0.180157,0.67731
318,203,3.86209,-0.0143478,0.17964,0.678432
319,202,3.85627,-0.0159185,0.178578,0.673364
320,201,3.86166,-0.0183447,0.179107,0.669238
321,200,3.8592,-0.0193217,0.179624,0.667948
322,199,3.86072,-0.017991,0.179087,0.668756
323,198,3.86167,-0.0194774,0.179613,0.667385
324,197,3.8649,-0.0154759,0.178119,0.671569
325,196,3.86097,-0.0168836,0.180065,0.674837
326,195,3.85964,-0.0175272,0.180594,0.674179
327,194,3.86048,-0.0165541,0.180069,0.675486
328,193,3.86173,-0.0154188,0.17956,0.676171
329,192,3.8612,-0.0155172,0.17956,0.676346
330,191,3.86098,-0.0154509,0.179557,0.676483
331,190,3.861,-0.0152043,0.179559,0.676441
332,189,3.8609,-0.0154562,0.179553,0.676225
333,188,3.85981,-0.0159044,0.180061,0.675207
335,187,3.86013,-0.0154767,0.179543,0.677085
336,186,3.86081,-0.0152317,0.179546,0.676029
337,185,3.86082,-0.0149651,0.17954,0.676106
339,184,3.86005,-0.0153636,0.179537,0.677065
340,183,3.86057,-0.0154052,0.17953,0.675863
341,182,3.85784,-0.0122716,0.175511,0.670599
342,181,3.86175,-0.0159109,0.177022,0.664176
343,180,3.86082,-0.0188419,0.177542,0.662595
344,179,3.86368,-0.0147023,0.175064,0.661154
345,178,3.86219,-0.0163011,0.175545,0.659288
346,177,3.8674,-0.0187509,0.177624,0.661838
347,176,3.86171,-0.0169824,0.17853,0.668435
348,175,3.85877,-0.0137838,0.17598,0.667732
349,174,3.86135,-0.0173223,0.175537,0.65959
350,173,3.86297,-0.0188555,0.176063,0.657668
351,172,3.86176,-0.0190244,0.176037,0.657396
352,171,3.86272,-0.0181669,0.176045,0.657009
353,170,3.86402,-0.0219835,0.178589,0.658314
354,169,3.86249,-0.0170883,0.177027,0.663337
355,168,3.8637,-0.0151819,0.176516,0.664778
356,167,3.85865,-0.0171577,0.175482,0.659998
357,166,3.86535,-0.0172725,0.174059,0.653786
358,165,3.86337,-0.0161597,0.174037,0.653673
359,164,3.86446,-0.0187318,0.174568,0.65242
360,163,3.86142,-0.0222505,0.177049,0.653278
361,162,3.86603,-0.0171988,0.175558,0.657744
362,161,3.86474,-0.0158349,0.175068,0.660295
363,160,3.86017,-0.0137008,0.173007,0.657514
364,159,3.86873,-0.0216157,0.177075,0.652954
365,158,3.86105,-0.0205613,0.176525,0.65559
366,157,3.86173,-0.0185789,0.174529,0.65277
367,156,3.86684,-0.0204567,0.176593,0.654409
368,155,3.86541,-0.0150726,0.175042,0.659858
369,154,3.8613,-0.0124352,0.172479,0.658725
370,153,3.8621,-0.0187772,0.174498,0.651485
371,152,3.86254,-0.0194419,0.175034,0.6498
372,151,3.86217,-0.0208753,0.175017,0.649687
373,150,3.86436,-0.0173426,0.172525,0.64827
374,149,3.86818,-0.0196183,0.175093,0.649066
375,148,3.86317,-0.0186393,0.176005,0.655477
376,147,3.8634,-0.0162356,0.175486,0.656956
377,146,3.86323,-0.0166969,0.175489,0.657189
378,145,3.86327,-0.0167705,0.175495,0.657329
379,144,3.86415,-0.0168761,0.175512,0.657611
380,143,3.86413,-0.0153879,0.174997,0.658892
381,142,3.86418,-0.0150748,0.175001,0.659209
382,141,3.86398,-0.0151185,0.175007,0.659366
383,140,3.86397,-0.0154035,0.175009,0.659425
384,139,3.86385,-0.0146273,0.175011,0.659492
385,138,3.86382,-0.0151914,0.17501,0.659536
386,137,3.86474,-0.0136646,0.174486,0.660171
387,136,3.86481,-0.0134246,0.174495,0.660245
388,135,3.86501,-0.0131232,0.1745,0.66033
390,134,3.86399,-0.0136334,0.174491,0.66172
391,133,3.86454,-0.0137217,0.174481,0.660364
392,132,3.86173,-0.0140511,0.171466,0.652762
393,131,3.86373,-0.018713,0.173006,0.646011
394,130,3.86416,-0.0190078,0.172993,0.645353
395,129,3.86373,-0.0179455,0.172978,0.644799
396,128,3.86269,-0.0199466,0.173496,0.643294
397,127,3.86522,-0.0199998,0.17502,0.647488
398,126,3.86464,-0.0164142,0.173997,0.651796
399,125,3.86005,-0.0131464,0.171416,0.650344
400,124,3.86529,-0.0171797,0.170997,0.642255
401,123,3.86318,-0.0195406,0.173464,0.642474
402,122,3.86508,-0.0171018,0.170973,0.641678
403,121,3.86323,-0.0188039,0.171459,0.639742
404,120,3.86896,-0.0222129,0.174067,0.640475
405,119,3.86733,-0.0154143,0.172007,0.647713
406,118,3.86606,-0.0133935,0.171463,0.649648
407,117,3.86228,-0.015739,0.170421,0.643623
408,116,3.86538,-0.0188302,0.171471,0.638807
409,115,3.86584,-0.0191789,0.171493,0.639033
410,114,3.86408,-0.0189937,0.171455,0.639353
411,113,3.86537,-0.0187537,0.17147,0.638674
412,112,3.86712,-0.0179361,0.172989,0.643306
413,111,3.86632,-0.0147097,0.171979,0.647384
414,110,3.86966,-0.0224488,0.174005,0.642409
415,109,3.86198,-0.0222485,0.174,0.642079
416,108,3.86336,-0.0148666,0.170453,0.643433
417,107,3.86326,-0.0197412,0.171973,0.638153
418,106,3.86232,-0.0217354,0.172478,0.636216
419,105,3.86351,-0.0221852,0.172484,0.635478
420,104,3.86292,-0.0226136,0.172472,0.635746
421,103,3.86592,-0.0189145,0.169993,0.634562
422,102,3.86484,-0.0188554,0.169957,0.633895
423,101,3.86937,-0.0215619,0.172547,0.634753
424,100,3.86729,-0.0165372,0.170995,0.640763
425,99,3.8631,-0.0202732,0.173467,0.642643
426,98,3.86395,-0.0187429,0.172939,0.643659
427,97,3.86386,-0.0185732,0.172944,0.643819
428,96,3.86383,-0.0188181,0.172947,0.643925
429,95,3.8638,-0.0187031,0.172949,0.644085
431,94,3.87115,-0.0188256,0.169953,0.633962
432,93,3.86409,-0.0168802,0.169391,0.634351
433,92,3.86853,-0.0187456,0.169985,0.631771
434,91,3.86747,-0.0147969,0.168964,0.636209
435,90,3.86792,-0.0133217,0.168448,0.637296
436,89,3.8621,-0.0131206,0.166849,0.633488
437,88,3.86543,-0.0186088,0.168397,0.626585
438,87,3.86613,-0.0191017,0.168423,0.626462
439,86,3.86546,-0.0168234,0.167879,0.627722
440,85,3.86349,-0.0185969,0.168371,0.626107
441,84,3.86733,-0.0204389,0.170427,0.627944
442,83,3.86505,-0.0169162,0.169387,0.632641
443,82,3.86484,-0.0138308,0.166847,0.63189
444,81,3.86554,-0.0151491,0.165862,0.624476
445,80,3.86606,-0.0169256,0.166377,0.622057
446,79,3.86695,-0.0165886,0.166396,0.621876
447,78,3.86766,-0.0154525,0.165881,0.623092
448,77,3.86599,-0.0170497,0.166397,0.621924
449,76,3.86876,-0.0171617,0.167923,0.625704
450,75,3.86738,-0.014723,0.167413,0.629177
451,74,3.86369,-0.0105405,0.164292,0.628768
452,73,3.86553,-0.0154611,0.16433,0.618394
453,72,3.86843,-0.017441,0.164887,0.615668
454,71,3.86497,-0.0207634,0.167369,0.617951
455,70,3.86643,-0.0150961,0.16433,0.618035
456,69,3.86847,-0.0223985,0.167964,0.615901
457,68,3.86895,-0.0150966,0.165904,0.62354
458,67,3.86556,-0.0166516,0.167848,0.626116
459,66,3.86242,-0.0135661,0.16378,0.621444
461,65,3.86589,-0.0206441,0.165861,0.612175
462,64,3.86767,-0.018693,0.165375,0.613994
464,63,3.86975,-0.0202787,0.167399,0.615823
465,62,3.86712,-0.0172179,0.166374,0.621499
466,61,3.86774,-0.0151183,0.165861,0.622932
467,60,3.86765,-0.0151679,0.16587,0.623154
468,59,3.86745,-0.0148862,0.165875,0.623277
469,58,3.86748,-0.0151034,0.165874,0.623462
470,57,3.86885,-0.013619,0.165367,0.624317
471,56,3.86829,-0.0134501,0.165365,0.624671
472,55,3.86813,-0.0135565,0.165361,0.624558
473,54,3.86826,-0.0134308,0.165362,0.62443
474,53,3.86813,-0.0132352,0.165349,0.624235
475,52,3.8681,-0.0131625,0.165346,0.624036
476,51,3.8671,-0.0149238,0.16586,0.623164
477,50,3.86706,-0.0153435,0.165857,0.62312
478,49,3.867,-0.0151861,0.16585,0.623075
479,48,3.86699,-0.0145423,0.165852,0.622762
480,47,3.86683,-0.0155169,0.165854,0.622833
481,46,3.87417,-0.0174941,0.164872,0.617445
482,45,3.86509,-0.0174213,0.164819,0.616878
483,44,3.86719,-0.0243604,0.168457,0.614084
484,43,3.86684,-0.0168375,0.166374,0.621428
485,42,3.86741,-0.0150173,0.165849,0.622526
486,41,3.86326,-0.0121837,0.161759,0.617393
487,40,3.86626,-0.0191806,0.163816,0.607937
488,39,3.86655,-0.0192502,0.163813,0.607941
489,38,3.86635,-0.0183926,0.16381,0.607893
490,37,3.86809,-0.0148241,0.161307,0.606445
491,36,3.86911,-0.0221476,0.166381,0.608185
492,35,3.86756,-0.0170465,0.164837,0.61507
493,34,3.86671,-0.0151002,0.164268,0.61659
494,33,3.86617,-0.0137141,0.160758,0.609494
495,32,3.86953,-0.0172301,0.161814,0.603616
496,31,3.86754,-0.0174173,0.161797,0.60463
497,30,3.8671,-0.0174438,0.161776,0.603962
498,29,3.86514,-0.0181715,0.162255,0.60169
499,28,3.87101,-0.0208769,0.164375,0.603988
501,27,3.86718,-0.0118789,0.160265,0.610743
502,26,3.86642,-0.0154628,0.159748,0.601176
503,25,3.86906,-0.0190876,0.160818,0.596805
504,24,3.86835,-0.0172315,0.160293,0.598429
507,23,3.87266,-0.0247598,0.162429,0.588549
508,22,3.86753,-0.0191768,0.162284,0.601011
509,21,3.86575,-0.0100946,0.15667,0.600372
515,20,3.87059,-0.0252189,0.160871,0.583578
516,19,3.86728,-0.0207704,0.161267,0.593106
517,18,3.86797,-0.0193799,0.160763,0.59553
518,17,3.86885,-0.0171388,0.160254,0.59694
519,16,3.8687,-0.0171429,0.160271,0.597411
520,15,3.87076,-0.0146308,0.159786,0.598267
521,14,3.86954,-0.0154681,0.159793,0.599743
522,13,3.86968,-0.0154794,0.159797,0.599951
523,12,3.86961,-0.0136748,0.15926,0.600709
524,11,3.8691,-0.0153123,0.159763,0.599184
525,10,3.86904,-0.0153425,0.159764,0.598843
526,9,3.86897,-0.0154705,0.15976,0.598719
527,8,3.86885,-0.0150634,0.159745,0.598363
528,7,3.86912,-0.0156293,0.159756,0.598394
529,6,3.86907,-0.0146533,0.159753,0.598101
530,5,3.86889,-0.014933,0.159757,0.598142
533,4,3.8696,-0.0302078,0.162446,0.57837
536,3,3.86406,-0.0109229,0.153628,0.589926
537,2,3.86479,-0.0219225,0.155185,0.573758
538,1,3.86707,-0.0238878,0.155712,0.569363
539,0,3.86553,-0.0262035,0.156227,0.568569
540,0,3.86875,-0.0219507,0.153719,0.567114
541,0,3.86852,-0.0282217,0.156814,0.56568
544,0,3.86323,-0.0148469,0.153064,0.579721
549,0,3.86503,-0.0197888,0.154169,0.577007
550,0,3.86613,-0.0251713,0.155748,0.569912
551,0,3.86745,-0.0270974,0.156326,0.568481
554,0,3.86348,-0.012193,0.15259,0.580821
555,0,3.86306,-0.0252182,0.154187,0.566219
556,0,3.86638,-0.0266183,0.154726,0.56234
557,0,3.86576,-0.0248021,0.152715,0.560489
558,0,3.86676,-0.0262335,0.153231,0.557395
559,0,3.86343,-0.0330806,0.156309,0.55709
562,0,3.86328,-0.0164661,0.152052,0.571791
563,0,3.86744,-0.019968,0.150141,0.557393
564,0,3.86933,-0.0251191,0.151201,0.553184
565,0,3.86645,-0.025003,0.151132,0.552608
566,0,3.86494,-0.0296869,0.152177,0.549604
567,0,3.86554,-0.0292496,0.152189,0.548326
568,0,3.86855,-0.0302496,0.155768,0.555209
570,0,3.86755,-0.0150754,0.148562,0.562947
571,0,3.86564,-0.0258572,0.151624,0.550428
572,0,3.86947,-0.0272317,0.151683,0.549711
573,0,3.86691,-0.0244759,0.151107,0.551815
574,0,3.86714,-0.025201,0.151082,0.550892
575,0,3.86867,-0.0230402,0.149109,0.548338
578,0,3.86918,-0.0184302,0.151054,0.562556
579,0,3.86983,-0.0168129,0.147542,0.553896
580,0,3.87163,-0.0231877,0.149143,0.54786
581,0,3.87109,-0.0207653,0.148593,0.549031
584,0,3.87473,-0.026348,0.151747,0.547834
585,0,3.86973,-0.0215228,0.152121,0.557327
586,0,3.87088,-0.0205071,0.151617,0.559516
587,0,3.87162,-0.017743,0.151099,0.560576
588,0,3.87151,-0.0181346,0.151102,0.561061
589,0,3.87131,-0.0180588,0.151101,0.561191
590,0,3.87107,-0.0179577,0.151099,0.561157
591,0,3.87175,-0.0183904,0.151112,0.561231
592,0,3.87232,-0.015975,0.150589,0.562291
593,0,3.87227,-0.0162425,0.150585,0.562371
594,0,3.87225,-0.0163312,0.150584,0.562316
595,0,3.87239,-0.0161046,0.150588,0.562223
596,0,3.87245,-0.0162973,0.150591,0.562368
597,0,3.87215,-0.0160738,0.150586,0.562422
598,0,3.87872,-0.023042,0.150677,0.55544
599,0,3.8717,-0.0147006,0.147044,0.555804
600,0,3.87095,-0.0213525,0.148602,0.548988
601,0,3.87064,-0.0248098,0.152621,0.553975
602,0,3.86972,-0.0205121,0.151558,0.558815
603,0,3.86794,-0.0127384,0.146425,0.556344
604,0,3.86954,-0.0214019,0.146994,0.542834
605,0,3.87072,-0.0230935,0.147521,0.539684
606,0,3.86956,-0.0231329,0.147489,0.539743
607,0,3.87139,-0.0217493,0.145511,0.537176
608,0,3.87013,-0.0234229,0.146003,0.535069
609,0,3.876,-0.0253893,0.148137,0.536821
610,0,3.87088,-0.0225899,0.149041,0.54508
612,0,3.8673,-0.0164169,0.144383,0.541463
613,0,3.87337,-0.0211895,0.144007,0.530357
614,0,3.87394,-0.0216757,0.144018,0.530594
615,0,3.87144,-0.0215801,0.143963,0.530492
616,0,3.8721,-0.0239811,0.144496,0.528258
617,0,3.87155,-0.0278638,0.147074,0.529053
620,0,3.87156,-0.0160038,0.144403,0.538978
621,0,3.87327,-0.0174138,0.141444,0.529233
622,0,3.87081,-0.0232587,0.142942,0.523117
623,0,3.87111,-0.0281544,0.145506,0.523005
624,0,3.87251,-0.0213496,0.142456,0.524849
626,0,3.87245,-0.0233028,0.142991,0.524697
627,0,3.87496,-0.0232977,0.144541,0.526778
630,0,3.87008,-0.014966,0.140863,0.53462
631,0,3.87295,-0.0257729,0.143553,0.521377
632,0,3.87233,-0.0239932,0.143013,0.523963
633,0,3.87285,-0.0238561,0.143017,0.523362
635,0,3.87304,-0.0300075,0.146131,0.522235
636,0,3.87022,-0.0253333,0.146503,0.531038
637,0,3.8707,-0.0231846,0.145986,0.532955
638,0,3.87108,-0.0235457,0.146,0.533526
639,0,3.87062,-0.023069,0.145997,0.533928
640,0,3.8713,-0.0232244,0.146022,0.534065
641,0,3.87229,-0.0212247,0.145498,0.535191
642,0,3.87261,-0.0211586,0.145515,0.535593
643,0,3.87182,-0.0214291,0.145508,0.536044
644,0,3.87178,-0.0206895,0.145507,0.535666
645,0,3.87196,-0.0211023,0.14551,0.53583
646,0,3.87343,-0.0194406,0.144991,0.536684
647,0,3.8733,-0.019262,0.144999,0.537115
648,0,3.87806,-0.0269223,0.143526,0.526139
649,0,3.86919,-0.0229132,0.140906,0.52183
651,0,3.8728,-0.0303227,0.144589,0.515453
652,0,3.87254,-0.0248594,0.142994,0.522898
653,0,3.87345,-0.0181777,0.139892,0.523042
654,0,3.87005,-0.0231879,0.139359,0.514185
655,0,3.87161,-0.0270941,0.140445,0.508733
656,0,3.87045,-0.0269171,0.140424,0.50912
657,0,3.87106,-0.026906,0.140425,0.509128
658,0,3.87045,-0.0275486,0.14041,0.508859
659,0,3.87148,-0.0309201,0.143015,0.509259
660,0,3.87324,-0.0236774,0.141452,0.515406
662,0,3.86772,-0.0185183,0.138253,0.516557
663,0,3.87198,-0.025072,0.13839,0.505258
664,0,3.87237,-0.0269722,0.13893,0.50324
665,0,3.87376,-0.0248662,0.138415,0.504258
666,0,3.87228,-0.025027,0.138383,0.504957
667,0,3.87182,-0.0275927,0.138914,0.503479
668,0,3.87447,-0.0283823,0.140989,0.505024
669,0,3.87367,-0.0248548,0.139945,0.510555
671,0,3.86987,-0.0188479,0.135295,0.50743
672,0,3.87131,-0.0275944,0.137342,0.497624
673,0,3.8734,-0.0277635,0.137413,0.49696
674,0,3.87187,-0.0274774,0.137396,0.497836
675,0,3.87068,-0.0280731,0.137353,0.497301
676,0,3.87129,-0.0296677,0.137903,0.495533
677,0,3.87258,-0.0341631,0.142019,0.50065
680,0,3.86989,-0.016665,0.136218,0.516115
681,0,3.87443,-0.0232845,0.136368,0.50121
682,0,3.87029,-0.0294026,0.139382,0.500289
683,0,3.87297,-0.0270159,0.138889,0.501731
684,0,3.8731,-0.0254379,0.138363,0.50369
685,0,3.87202,-0.0247657,0.138343,0.503812
686,0,3.87482,-0.0293682,0.140982,0.50473
687,0,3.87519,-0.0226602,0.139427,0.511603
688,0,3.87157,-0.0246172,0.141368,0.514561
689,0,3.87296,-0.0226616,0.140854,0.515812
690,0,3.87268,-0.0217704,0.140857,0.516122
691,0,3.87245,-0.022347,0.140864,0.516422
692,0,3.87287,-0.0225186,0.140871,0.51667
693,0,3.8728,-0.0226773,0.140879,0.516947
694,0,3.87386,-0.0207771,0.140352,0.517686
695,0,3.87389,-0.0206688,0.140354,0.517754
696,0,3.87352,-0.0208208,0.140349,0.517802
697,0,3.8735,-0.019362,0.140344,0.517415
698,0,3.8825,-0.0276922,0.141994,0.513695
699,0,3.87365,-0.0176299,0.13782,0.518506
701,0,3.87476,-0.0301439,0.142488,0.509978
702,0,3.87287,-0.0237073,0.140889,0.516956
704,0,3.87092,-0.0176348,0.136265,0.513092
706,0,3.87501,-0.0241891,0.136344,0.498868
708,0,3.87165,-0.0265527,0.136795,0.496905
709,0,3.87106,-0.0262834,0.136766,0.496421
713,0,3.86926,-0.0195012,0.13519,0.504988
714,0,3.87216,-0.0234229,0.134759,0.493908
715,0,3.87301,-0.0268937,0.135292,0.490774
716,0,3.87543,-0.0228574,0.132777,0.489805
717,0,3.87439,-0.0248236,0.133266,0.487209
718,0,3.87363,-0.0259723,0.133788,0.485515
719,0,3.87654,-0.0309054,0.137913,0.489853
722,0,3.8717,-0.0178491,0.131673,0.495129
723,0,3.87446,-0.0224521,0.131214,0.483716
724,0,3.87253,-0.0275415,0.132221,0.479478
733,0,3.86826,-0.0174116,0.120057,0.457967
734,0,3.87208,-0.0307857,0.119262,0.434969
735,0,3.8666,-0.040785,0.121173,0.426552
739,0,3.86538,-0.0459955,0.11891,0.410343
743,0,3.86512,-0.0265202,0.114751,0.427744
744,0,3.86586,-0.0447393,0.116769,0.407339
745,0,3.86496,-0.0513044,0.117897,0.403081
746,0,3.86687,-0.0470929,0.115223,0.400714
747,0,3.86444,-0.0518656,0.116234,0.397103
749,0,3.86653,-0.0612628,0.117885,0.390571
753,0,3.86731,-0.0299208,0.110446,0.409779
754,0,3.86636,-0.0485899,0.111934,0.390413
755,0,3.86873,-0.0542592,0.113198,0.385032
756,0,3.86659,-0.0514185,0.11252,0.38686
757,0,3.86532,-0.0524878,0.113063,0.385052
758,0,3.86662,-0.0494289,0.110308,0.382605
759,0,3.86067,-0.0588602,0.111834,0.377919
760,0,3.86494,-0.0554314,0.109844,0.37423
767,0,3.86754,-0.0664999,0.11412,0.369647
768,0,3.86967,-0.0486901,0.110805,0.380908
769,0,3.86901,-0.0484556,0.110743,0.380683
770,0,3.86778,-0.0525622,0.1113,0.379319
771,0,3.8674,-0.052216,0.111287,0.379106
772,0,3.86724,-0.0521149,0.111291,0.378974
773,0,3.8685,-0.0522754,0.11134,0.378736
774,0,3.86983,-0.0486486,0.110809,0.3798
775,0,3.86951,-0.0484011,0.110817,0.37994
779,0,3.8709,-0.0390707,0.109558,0.38716
780,0,3.87262,-0.0404796,0.107949,0.381274
781,0,3.86885,-0.0472053,0.108899,0.376595
782,0,3.87261,-0.0449498,0.106883,0.372678
783,0,3.87146,-0.0478712,0.107391,0.370413
784,0,3.86859,-0.0489906,0.107877,0.368686
786,0,3.87062,-0.0429649,0.108467,0.37844
787,0,3.8712,-0.04657,0.109036,0.375107
788,0,3.87332,-0.04245,0.107061,0.372522
789,0,3.87414,-0.0403649,0.104894,0.368848
790,0,3.8706,-0.0453553,0.105246,0.365849
791,0,3.87425,-0.0439683,0.10383,0.360171
792,0,3.87397,-0.0459976,0.103761,0.359237
793,0,3.87032,-0.0505495,0.104878,0.356674
794,0,3.86918,-0.050523,0.104799,0.35591
795,0,3.87678,-0.0434673,0.101741,0.354682
796,0,3.8709,-0.0536876,0.10549,0.353447
798,0,3.87559,-0.0248143,0.100192,0.375566
799,0,3.8755,-0.0420139,0.101663,0.356663
800,0,3.86803,-0.0479011,0.10244,0.352042
801,0,3.86997,-0.0491263,0.100922,0.346389
802,0,3.87145,-0.0501812,0.0994302,0.342063
804,0,3.87359,-0.0328608,0.0965278,0.354683
805,0,3.86784,-0.0553298,0.0997684,0.337293
806,0,3.87066,-0.0528063,0.0977434,0.334456
807,0,3.86833,-0.0560897,0.0982115,0.332163
808,0,3.87323,-0.0563337,0.0984721,0.331543
809,0,3.87106,-0.0519898,0.0978202,0.334016
810,0,3.87231,-0.0548878,0.098474,0.331793
811,0,3.87141,-0.0529987,0.0978332,0.33358
812,0,3.86912,-0.0516585,0.0961923,0.329184
813,0,3.86577,-0.05928,0.0972239,0.325111
814,0,3.86406,-0.0590959,0.0971091,0.323684
815,0,3.86669,-0.0508982,0.0922767,0.319521
816,0,3.86079,-0.0645632,0.0944174,0.310791
817,0,3.86547,-0.0599225,0.0918225,0.308922
818,0,3.86118,-0.0664923,0.0929104,0.305432
819,0,3.86372,-0.0658206,0.0929839,0.304361
820,0,3.86747,-0.0631146,0.0925598,0.306476
821,0,3.86561,-0.062628,0.0925346,0.307396
822,0,3.86389,-0.0630862,0.0924526,0.3071
823,0,3.86142,-0.0641687,0.0923604,0.305785
824,0,3.86146,-0.0643256,0.0908031,0.301575
825,0,3.8573,-0.0683217,0.0912203,0.298429
828,0,3.86273,-0.0535807,0.0893573,0.30591
829,0,3.85935,-0.061515,0.0888454,0.296458
830,0,3.86171,-0.062909,0.0873524,0.290507
831,0,3.85507,-0.0717175,0.0883546,0.287509
832,0,3.85905,-0.0675795,0.086339,0.283408
834,0,3.85963,-0.0503204,0.0839257,0.297533
835,0,3.86,-0.0687748,0.0848299,0.277383
836,0,3.85371,-0.0750248,0.0873463,0.276788
837,0,3.85939,-0.073106,0.086924,0.278746
839,0,3.86624,-0.0503,0.0805627,0.282332
840,0,3.85875,-0.0707906,0.0832351,0.270238
841,0,3.859,-0.0697425,0.0810318,0.266724
843,0,3.85875,-0.0639515,0.07671,0.259888
844,0,3.85104,-0.0832347,0.07886,0.249915
845,0,3.85324,-0.0801479,0.0767641,0.246566
846,0,3.85066,-0.0841892,0.0772998,0.242824
847,0,3.84653,-0.0913665,0.0778118,0.242311
849,0,3.84297,-0.0929298,0.0783773,0.239261
850,0,3.8471,-0.0954092,0.0807289,0.241642
851,0,3.84988,-0.081035,0.0788409,0.248497
852,0,3.84934,-0.0878697,0.0795207,0.247638
855,0,3.85792,-0.0678947,0.07358,0.24716
856,0,3.85037,-0.081735,0.0751337,0.238977
857,0,3.84852,-0.0873622,0.0757668,0.236951
858,0,3.85227,-0.0788166,0.0730797,0.23667
859,0,3.8511,-0.0808153,0.0736289,0.232091
860,0,3.84284,-0.093174,0.0761255,0.233355
861,0,3.8488,-0.0852622,0.0735622,0.233312
862,0,3.8479,-0.0898883,0.0741921,0.231239
863,0,3.84485,-0.0912529,0.0762196,0.232657
864,0,3.85121,-0.0876149,0.0758699,0.235948
865,0,3.84963,-0.0820215,0.0751757,0.238648
866,0,3.84781,-0.0840804,0.0757362,0.236359
867,0,3.85383,-0.078559,0.0731444,0.23525
868,0,3.8469,-0.0853649,0.0735042,0.23253
869,0,3.85051,-0.0793967,0.0714134,0.227243
875,0,3.84165,-0.0956044,0.0708699,0.216874
881,0,3.84787,-0.0838922,0.0699626,0.222889
882,0,3.8528,-0.0808391,0.0678959,0.217681
883,0,3.84958,-0.0877968,0.0684551,0.214182
884,0,3.84767,-0.0857941,0.0683538,0.21397
885,0,3.84328,-0.0893593,0.0688343,0.21255
886,0,3.85222,-0.0839244,0.0663611,0.21021
887,0,3.8476,-0.0883765,0.0668241,0.20907
888,0,3.84814,-0.0878243,0.0668166,0.207366
889,0,3.83794,-0.101725,0.0700926,0.207988
890,0,3.84908,-0.0840839,0.0662291,0.209828
891,0,3.85217,-0.0837428,0.0648352,0.204093
893,0,3.83571,-0.116858,0.0699374,0.195755
894,0,3.84994,-0.0882413,0.0669663,0.205601
895,0,3.85206,-0.0809451,0.0642101,0.205715
900,0,3.84046,-0.105122,0.0649527,0.190682
901,0,3.84941,-0.0895951,0.0632642,0.19536
902,0,3.8467,-0.0910328,0.0639051,0.195767
903,0,3.85178,-0.0833386,0.0626831,0.197361
904,0,3.84703,-0.0915887,0.0639374,0.19577
905,0,3.84227,-0.0946312,0.0659161,0.197555
908,0,3.84864,-0.0829758,0.0648463,0.201671
909,0,3.85093,-0.0794982,0.062828,0.199413
910,0,3.84881,-0.0806014,0.0625759,0.196927
911,0,3.84491,-0.0892043,0.0630596,0.194623
912,0,3.85469,-0.0788847,0.0606573,0.192391
913,0,3.84875,-0.0818001,0.0611,0.190633
914,0,3.84606,-0.0894855,0.0616048,0.189949
915,0,3.85488,-0.0700161,0.0561889,0.18652
916,0,3.85242,-0.0841742,0.0558056,0.175239
917,0,3.84776,-0.0935644,0.0562414,0.172544
918,0,3.85031,-0.0873041,0.0555782,0.170639
919,0,3.84778,-0.0996539,0.0570415,0.170352
920,0,3.85247,-0.084642,0.0558122,0.173031
921,0,3.84788,-0.0938139,0.0563087,0.172991
922,0,3.84565,-0.0929193,0.05616,0.171602
923,0,3.85286,-0.0891424,0.0542576,0.168877
924,0,3.85185,-0.0888092,0.0542422,0.166738
925,0,3.85092,-0.0905863,0.0541145,0.166884
926,0,3.8713,-0.0695038,0.0445833,0.100297
927,0,3.91528,0.0363722,0.0353603,0.190667
928,0,3.88304,-0.090453,0.0419111,0.129009
929,0,3.8772,-0.103018,0.0422958,0.125805
930,0,3.87699,-0.10344,0.0422588,0.124094
931,0,3.88884,-0.091592,0.0398664,0.122554
932,0,3.87991,-0.10021,0.0400905,0.120513
933,0,3.88822,-0.0956744,0.038207,0.116801
934,0,3.88661,-0.0928597,0.0380672,0.113787
935,0,3.88032,-0.106843,0.0384754,0.113358
936,0,3.87827,-0.105988,0.0383387,0.11201
937,0,3.8773,-0.103807,0.0382627,0.110463
938,0,3.87129,-0.117425,0.03874,0.11045
939,0,3.887,-0.0976281,0.0365354,0.108511
940,0,3.88659,-0.101736,0.0364907,0.108003
941,0,3.8813,-0.105835,0.0369857,0.106646
943,0,3.9106,0.00440135,0.0306994,0.146211
944,0,3.8711,-0.117546,0.0371503,0.103168
945,0,3.87531,-0.112901,0.0366114,0.104142
946,0,3.87206,-0.116346,0.0372346,0.103442
947,0,3.87321,-0.116104,0.0373637,0.104092
948,0,3.88526,-0.102867,0.036472,0.105976
949,0,3.87212,-0.114958,0.0388714,0.108495
950,0,3.89145,-0.090422,0.0361341,0.10945
951,0,3.875,-0.103049,0.038296,0.109313
952,0,3.89028,-0.0896164,0.036053,0.108776
953,0,3.8869,-0.0982161,0.0366288,0.107731
954,0,3.88407,-0.0988488,0.03648,0.108576
955,0,3.88419,-0.0949678,0.036436,0.10611
956,0,3.89455,-0.0821024,0.0339707,0.104902
957,0,3.89061,-0.097252,0.0344362,0.102346
958,0,3.88831,-0.0944634,0.0342747,0.101968
960,0,3.91456,0.00250817,0.0292874,0.139446
961,0,3.87496,-0.110903,0.0350381,0.0983883
962,0,3.87992,-0.107094,0.0345252,0.0983739
963,0,3.87464,-0.111359,0.0350219,0.0976453
964,0,3.87321,-0.110782,0.0349512,0.0972573
965,0,3.89095,-0.0957938,0.0328551,0.0957218
966,0,3.89498,-0.0929176,0.0322848,0.0961081
967,0,3.88949,-0.0959644,0.0327294,0.0948224
968,0,3.88884,-0.0971696,0.0326761,0.0946129
969,0,3.88335,-0.107456,0.0331679,0.0947338
970,0,3.88712,-0.101894,0.0325595,0.0949146
971,0,3.88316,-0.106047,0.0331214,0.0933529
972,0,3.89115,-0.0994067,0.0328277,0.0945923
973,0,3.87978,-0.108202,0.0345486,0.0970018
974,0,3.89613,-0.0908073,0.0324061,0.0976879
975,0,3.88393,-0.106196,0.0348109,0.0977961