File: calce_correlation_analysis/matrices/CALCE_CS2_38_cycle_feature_matrix.csv
cycle_number,rul,voltage,current,capacity,charge_capacity
7,569,3.8547,-0.0131964,0.192829,0.738645
8,568,3.85474,-0.0160855,0.193814,0.733542
9,567,3.85418,-0.0172763,0.194299,0.730954
11,566,3.86019,-0.017672,0.194339,0.728929
12,565,3.85789,-0.0148686,0.193325,0.733636
13,564,3.85473,-0.0162717,0.195262,0.736222
14,563,3.85432,-0.016177,0.195258,0.73629
15,562,3.85715,-0.013543,0.192801,0.735321
16,561,3.85709,-0.0130884,0.192794,0.735011
17,560,3.85672,-0.0134143,0.192779,0.735062
18,559,3.85662,-0.0134649,0.192778,0.734807
19,558,3.85643,-0.0131506,0.192766,0.734548
20,557,3.85627,-0.0134216,0.192758,0.7343
21,556,3.85618,-0.0132456,0.192749,0.733985
22,555,3.85608,-0.0134322,0.192739,0.733787
23,554,3.85592,-0.013516,0.192736,0.733619
24,553,3.85576,-0.0134712,0.192733,0.733356
25,552,3.85555,-0.0133449,0.192714,0.733121
26,551,3.85449,-0.0148706,0.193227,0.732111
27,550,3.85267,-0.0103577,0.188673,0.727936
28,549,3.85839,-0.0132932,0.188216,0.718315
29,548,3.85824,-0.0147633,0.188696,0.715481
30,547,3.85754,-0.016093,0.18918,0.713392
31,546,3.85651,-0.0176592,0.18967,0.711461
32,545,3.86109,-0.0177753,0.191245,0.714397
34,544,3.85309,-0.0118459,0.187605,0.71925
35,543,3.85847,-0.014312,0.186632,0.710707
36,542,3.8595,-0.0162382,0.187665,0.706633
37,541,3.85875,-0.0161426,0.187645,0.706715
38,540,3.8585,-0.0177968,0.188158,0.705185
39,539,3.86162,-0.0180627,0.189717,0.708833
41,538,3.85397,-0.0120343,0.186081,0.71327
42,537,3.86041,-0.0148195,0.185658,0.703751
43,536,3.85885,-0.017944,0.186167,0.702071
44,535,3.85784,-0.0195068,0.186692,0.701322
45,534,3.85819,-0.0168333,0.186126,0.701758
46,533,3.86154,-0.0207567,0.188738,0.702541
47,532,3.85534,-0.0213044,0.190177,0.709087
48,531,3.85309,-0.0166342,0.18565,0.706455
60,530,3.83475,-0.0358909,0.19357,0.708019
61,529,3.83948,-0.0415171,0.195155,0.702061
62,528,3.83749,-0.0404852,0.194542,0.703512
63,527,3.84071,-0.0391686,0.192576,0.701374
64,526,3.84075,-0.0389928,0.191028,0.695831
65,525,3.84086,-0.042738,0.192118,0.692808
66,524,3.85039,-0.0407275,0.191509,0.692653
67,523,3.84288,-0.0392311,0.191406,0.69035
69,522,3.84265,-0.0466881,0.193256,0.690695
70,521,3.83341,-0.04448,0.192567,0.689378
71,520,3.83618,-0.0450273,0.191071,0.685572
72,519,3.83843,-0.0469102,0.191629,0.682718
73,518,3.83952,-0.0442797,0.191063,0.683038
74,517,3.84301,-0.0414009,0.188499,0.681795
75,516,3.84672,-0.0461704,0.191722,0.680978
76,515,3.84518,-0.0418973,0.190034,0.685999
77,514,3.84438,-0.0423927,0.190669,0.684783
78,513,3.844,-0.0427297,0.190561,0.684404
79,512,3.84484,-0.0420372,0.189994,0.685003
80,511,3.84407,-0.0424043,0.190599,0.683665
81,510,3.84368,-0.0424658,0.19051,0.683682
82,509,3.84709,-0.0407014,0.188099,0.682581
83,508,3.84672,-0.0412296,0.188549,0.681065
84,507,3.84529,-0.0432181,0.189041,0.679873
85,506,3.84546,-0.0430081,0.189029,0.679611
86,505,3.84564,-0.0410387,0.188463,0.679746
88,504,3.84584,-0.0394572,0.187908,0.682257
89,503,3.84373,-0.0424214,0.188436,0.679596
90,502,3.84249,-0.0429158,0.188981,0.677834
91,501,3.84372,-0.0446716,0.189525,0.676875
96,500,3.68088,-0.876297,0.452452,0.060163
97,499,3.8446,-0.0347264,0.186558,0.680112
98,498,3.84487,-0.0391012,0.186414,0.677868
99,497,3.84394,-0.0450658,0.189615,0.676582
101,496,3.83749,-0.0418641,0.188408,0.681063
102,495,3.84172,-0.0440861,0.187517,0.674206
103,494,3.84244,-0.0441016,0.1875,0.67348
104,493,3.84526,-0.0434675,0.187655,0.673086
105,492,3.8375,-0.0477483,0.188569,0.670727
106,491,3.84466,-0.0487966,0.190667,0.672499
107,490,3.84388,-0.0418641,0.188576,0.679182
108,489,3.83972,-0.0384611,0.185827,0.677856
109,488,3.84391,-0.0420854,0.185454,0.669405
110,487,3.8432,-0.0438046,0.185969,0.667733
111,486,3.84478,-0.0439163,0.185972,0.666698
112,485,3.8408,-0.0456012,0.18648,0.665418
113,484,3.85013,-0.0470357,0.188828,0.666967
114,483,3.84608,-0.0415331,0.18735,0.673825
115,482,3.84357,-0.0365831,0.184206,0.673737
116,481,3.84411,-0.0449507,0.186069,0.666428
117,480,3.84509,-0.0450247,0.186029,0.664958
118,479,3.85348,-0.0392579,0.183952,0.665682
121,478,3.85174,-0.0359199,0.184745,0.674427
122,477,3.846,-0.0402016,0.185599,0.670321
123,476,3.84537,-0.0417977,0.187335,0.672319
124,475,3.84537,-0.0422885,0.187375,0.673695
125,474,3.84369,-0.0419855,0.187192,0.674006
126,473,3.84497,-0.0404771,0.186665,0.675195
127,472,3.84593,-0.0406176,0.186816,0.675553
128,471,3.84429,-0.0404154,0.186696,0.67599
129,470,3.84411,-0.0404612,0.186597,0.675835
130,469,3.84393,-0.0407223,0.186443,0.675813
131,468,3.84365,-0.0405793,0.186497,0.675935
132,467,3.84286,-0.0404053,0.18643,0.67597
133,466,3.84401,-0.03867,0.185922,0.676837
134,465,3.84394,-0.0386016,0.186009,0.676804
135,464,3.84391,-0.0389697,0.185964,0.676924
136,463,3.84358,-0.0408904,0.186497,0.676075
141,462,3.84272,-0.0508689,0.188778,0.659055
142,461,3.84411,-0.0443412,0.186326,0.666839
144,460,3.83393,-0.0433603,0.183863,0.66556
145,459,3.84257,-0.0482718,0.185605,0.656995
146,458,3.87653,-0.0180206,0.178549,0.671843
147,457,3.86034,-0.0231205,0.18158,0.67139
150,456,3.85406,-0.0178841,0.178488,0.67474
151,455,3.85827,-0.0231523,0.180048,0.667074
152,454,3.85979,-0.0249274,0.180611,0.665799
153,453,3.86515,-0.017214,0.17845,0.670154
154,452,3.86334,-0.0168993,0.177017,0.665306
155,451,3.86628,-0.0205024,0.181054,0.66981
156,450,3.86344,-0.0154645,0.179502,0.676803
157,449,3.85733,-0.0121096,0.176908,0.675977
158,448,3.86273,-0.0171632,0.177007,0.665531
159,447,3.8615,-0.020476,0.179497,0.665976
160,446,3.86453,-0.0151823,0.176501,0.666485
161,445,3.85944,-0.0168807,0.176931,0.665213
162,444,3.86659,-0.0233659,0.180634,0.661992
163,443,3.8625,-0.0165881,0.179979,0.673353
164,442,3.8645,-0.0123907,0.176978,0.674521
166,441,3.86093,-0.0206097,0.177988,0.660584
167,440,3.8615,-0.0183753,0.17745,0.661493
169,439,3.86349,-0.0203518,0.178028,0.660574
170,438,3.86522,-0.0169667,0.178493,0.667833
171,437,3.8639,-0.0153659,0.177992,0.671382
172,436,3.86133,-0.0169388,0.179929,0.673485
173,435,3.86109,-0.0168745,0.179944,0.673902
174,434,3.86104,-0.0168876,0.179943,0.674135
176,433,3.86117,-0.0155724,0.179441,0.676656
177,432,3.86184,-0.0152795,0.179448,0.675513
178,431,3.86149,-0.0151862,0.179448,0.675671
179,430,3.86157,-0.0155896,0.179449,0.675689
180,429,3.86148,-0.0152232,0.179453,0.675708
181,428,3.86157,-0.0152795,0.179451,0.675717
182,427,3.86157,-0.01518,0.179452,0.675808
183,426,3.86173,-0.0152618,0.179466,0.675981
184,425,3.86254,-0.0137005,0.178952,0.677019
185,424,3.86301,-0.0137264,0.178975,0.677468
186,423,3.86225,-0.0140325,0.178981,0.678019
190,422,3.86253,-0.0166393,0.17696,0.663467
191,421,3.85904,-0.0177421,0.177435,0.662135
192,420,3.8668,-0.020284,0.17953,0.66425
193,419,3.86338,-0.0154048,0.177985,0.671146
194,418,3.85988,-0.0106431,0.174905,0.671513
195,417,3.8636,-0.0150173,0.174984,0.660644
196,416,3.86873,-0.0199917,0.178037,0.659492
199,415,3.85901,-0.0119042,0.176897,0.675007
200,414,3.86126,-0.0166196,0.176966,0.664596
201,413,3.86364,-0.016702,0.176991,0.663709
202,412,3.86299,-0.0161765,0.177001,0.664196
203,411,3.86138,-0.0167674,0.176968,0.664716
204,410,3.86384,-0.0198232,0.179516,0.664728
207,409,3.85707,-0.0135472,0.175924,0.669863
208,408,3.86282,-0.0167318,0.176967,0.663479
210,407,3.86184,-0.0152952,0.176433,0.666473
211,406,3.86151,-0.0166057,0.176949,0.663277
212,405,3.8675,-0.0181882,0.179029,0.66582
213,404,3.86077,-0.0168102,0.179956,0.673833
214,403,3.85821,-0.0122841,0.176888,0.674502
216,402,3.86417,-0.0167701,0.177004,0.663652
217,401,3.86503,-0.0184204,0.179034,0.667246
218,400,3.86141,-0.0154869,0.179446,0.674834
220,399,3.86023,-0.0138797,0.178926,0.678023
221,398,3.86029,-0.0153478,0.179452,0.676077
222,397,3.86131,-0.0136901,0.178945,0.676962
223,396,3.86133,-0.0139307,0.178944,0.677207
224,395,3.86132,-0.0138371,0.17896,0.677418
225,394,3.86178,-0.013595,0.178974,0.677741
226,393,3.86084,-0.0140112,0.178971,0.678146
227,392,3.86097,-0.0137353,0.178968,0.67806
229,391,3.86094,-0.0122155,0.178458,0.68009
230,390,3.8619,-0.0122802,0.178457,0.678911
231,389,3.86188,-0.0119212,0.178463,0.678909
232,388,3.86182,-0.0122346,0.178471,0.67899
233,387,3.86159,-0.0122367,0.178467,0.679126
234,386,3.86158,-0.0123709,0.178481,0.6791
235,385,3.86159,-0.0124864,0.178484,0.679033
236,384,3.86147,-0.0125149,0.178479,0.679038
237,383,3.85741,-0.00910725,0.174466,0.67409
238,382,3.8602,-0.0181607,0.178983,0.666984
239,381,3.86151,-0.0151653,0.17651,0.666575
240,380,3.86022,-0.0153573,0.176441,0.665741
241,379,3.8593,-0.0165121,0.176922,0.66331
242,378,3.86628,-0.0186229,0.179021,0.665553
243,377,3.86308,-0.0138289,0.177486,0.67224
244,376,3.86073,-0.00926031,0.174442,0.672852
245,375,3.85851,-0.0168988,0.176929,0.664223
246,374,3.86636,-0.0178573,0.176997,0.659652
247,373,3.86251,-0.0151001,0.176477,0.665255
248,372,3.86082,-0.0135389,0.174468,0.662696
249,371,3.86513,-0.0201451,0.17953,0.663911
250,370,3.86169,-0.015378,0.177985,0.670657
251,369,3.85942,-0.0107871,0.174933,0.671071
252,368,3.86048,-0.0152469,0.174977,0.661406
253,367,3.85994,-0.0200275,0.177985,0.659987
254,366,3.86068,-0.014685,0.174961,0.66017
255,365,3.86318,-0.0163768,0.175496,0.658188
256,364,3.86325,-0.0199815,0.178008,0.659556
257,363,3.86361,-0.0151807,0.1765,0.664987
259,362,3.8575,-0.0134664,0.174428,0.663626
260,361,3.86117,-0.0185163,0.17598,0.657116
261,360,3.86312,-0.0163446,0.175489,0.657649
262,359,3.86012,-0.0167026,0.175436,0.658806
263,358,3.86133,-0.0167675,0.17544,0.657795
264,357,3.8659,-0.0169371,0.176989,0.66166
266,356,3.85888,-0.00872846,0.172892,0.66677
267,355,3.8604,-0.0165072,0.175428,0.658001
268,354,3.85989,-0.0181648,0.175947,0.656652
269,353,3.8613,-0.0181669,0.175952,0.656028
271,352,3.71275,-0.877567,0.441074,0.0257795
272,351,3.85922,-0.0171281,0.175465,0.659592
276,350,3.85626,-0.0148739,0.17491,0.661742
277,349,3.86087,-0.0198765,0.176481,0.654949
278,348,3.85798,-0.0200547,0.176438,0.655333
280,347,3.87199,-0.0870089,0.19715,0.563156
281,346,3.85943,-0.0187692,0.175947,0.656769
282,345,3.85887,-0.0203975,0.176469,0.655511
285,344,3.86049,-0.0121469,0.173962,0.664993
286,343,3.85958,-0.015271,0.173461,0.656441
287,342,3.8603,-0.0219116,0.177004,0.653466
288,341,3.86105,-0.0170242,0.173973,0.654179
289,340,3.86238,-0.0168531,0.173976,0.653027
290,339,3.86126,-0.021806,0.177007,0.652755
291,338,3.86324,-0.0169038,0.175487,0.658147
292,337,3.86312,-0.015386,0.17498,0.660188
293,336,3.85657,-0.0152197,0.17341,0.656411
294,335,3.86054,-0.0203035,0.174966,0.650161
295,334,3.8603,-0.0202376,0.174963,0.649837
296,333,3.85966,-0.0200671,0.174946,0.649789
298,332,3.86386,-0.0216262,0.17699,0.651224
299,331,3.86227,-0.0167916,0.17543,0.657077
300,330,3.86162,-0.0167702,0.175439,0.657882
301,329,3.86145,-0.0168174,0.17545,0.658188
302,328,3.8626,-0.015059,0.174939,0.659078
303,327,3.86263,-0.0150965,0.174953,0.659588
304,326,3.86363,-0.0137603,0.174445,0.660794
305,325,3.86296,-0.0133735,0.174447,0.661067
306,324,3.86318,-0.0135987,0.174449,0.661101
307,323,3.86266,-0.0137085,0.174445,0.661381
308,322,3.86264,-0.0136712,0.17444,0.661235
309,321,3.86338,-0.0135805,0.174449,0.661019
310,320,3.86219,-0.0138195,0.174449,0.661607
311,319,3.86284,-0.013827,0.174451,0.661536
312,318,3.85965,-0.0169775,0.176911,0.662633
313,317,3.8605,-0.0155599,0.176396,0.663629
314,316,3.8601,-0.0154411,0.176393,0.663882
315,315,3.85781,-0.00906632,0.171362,0.661303
317,314,3.86259,-0.0202185,0.174945,0.647881
318,313,3.86202,-0.0149781,0.171918,0.648973
319,312,3.86124,-0.0174342,0.172402,0.646848
320,311,3.86603,-0.0219316,0.17552,0.645984
321,310,3.86108,-0.0183768,0.175923,0.654888
322,309,3.86083,-0.016768,0.175407,0.656915
323,308,3.85608,-0.0152009,0.171857,0.651117
324,307,3.86214,-0.0201221,0.173447,0.643203
325,306,3.86287,-0.0175205,0.172379,0.64559
326,305,3.86131,-0.0201061,0.173428,0.643415
329,304,3.86152,-0.0170231,0.173916,0.652705
330,303,3.86957,-0.024002,0.176071,0.646733
331,302,3.85997,-0.0203694,0.17497,0.651345
335,301,3.85798,-0.0151126,0.171949,0.652509
336,300,3.86309,-0.0201792,0.173511,0.645377
337,299,3.86237,-0.0186847,0.172973,0.646442
338,298,3.86269,-0.0192941,0.172955,0.645718
340,297,3.86533,-0.0221884,0.175519,0.646187
341,296,3.86334,-0.0168709,0.173944,0.652191
342,295,3.86297,-0.0166619,0.173952,0.652613
343,294,3.86259,-0.0168791,0.173957,0.652964
344,293,3.86401,-0.0152959,0.173448,0.653833
345,292,3.86035,-0.0186309,0.175917,0.65538
346,291,3.86016,-0.0184565,0.175922,0.655753
347,290,3.86279,-0.0147727,0.173454,0.654664
348,289,3.86307,-0.0152953,0.17345,0.654557
349,288,3.86296,-0.0154184,0.173449,0.654494
350,287,3.86295,-0.0153002,0.173442,0.654263
351,286,3.86292,-0.0152052,0.17344,0.654129
352,285,3.863,-0.0155237,0.173435,0.654191
353,284,3.86299,-0.0152273,0.173442,0.654161
354,283,3.86284,-0.0154611,0.173443,0.65432
355,282,3.86278,-0.0156398,0.173441,0.654401
356,281,3.86265,-0.015542,0.173431,0.654324
357,280,3.85752,-0.0122722,0.170832,0.652591
358,279,3.86098,-0.0182345,0.171418,0.64085
359,278,3.86323,-0.0189048,0.171419,0.639571
360,277,3.86135,-0.0199317,0.17192,0.6382
362,276,3.86479,-0.0270571,0.175567,0.635908
363,275,3.86344,-0.0181355,0.172943,0.644732
365,274,3.85711,-0.0164197,0.170831,0.642586
366,273,3.86452,-0.0185189,0.169929,0.63426
367,272,3.86345,-0.0185429,0.169916,0.633909
368,271,3.86412,-0.0204333,0.170448,0.632618
369,270,3.86261,-0.0208785,0.170434,0.633251
370,269,3.86416,-0.0241073,0.174451,0.637392
372,268,3.858,-0.0158666,0.170308,0.64315
373,267,3.86216,-0.0197559,0.169875,0.633685
374,266,3.86307,-0.0223793,0.170957,0.631117
375,265,3.85988,-0.0219996,0.170896,0.63109
376,264,3.86277,-0.0221681,0.170917,0.629753
377,263,3.86503,-0.024769,0.17294,0.631946
378,262,3.86457,-0.0190945,0.171415,0.638299
379,261,3.86478,-0.017158,0.170923,0.640129
380,260,3.86655,-0.0235637,0.172949,0.635146
381,259,3.86379,-0.0205318,0.170465,0.633817
383,258,3.86658,-0.0238194,0.173011,0.635722
384,257,3.86165,-0.0221626,0.173919,0.640906
385,256,3.86273,-0.0172942,0.170869,0.641624
386,255,3.85918,-0.0204406,0.17037,0.633637
387,254,3.86325,-0.023378,0.170914,0.629653
388,253,3.86111,-0.0241763,0.171436,0.629163
390,252,3.86098,-0.0254696,0.171978,0.627207
392,251,3.86283,-0.0183938,0.171362,0.639068
393,250,3.8624,-0.0208577,0.171901,0.637437
394,249,3.86346,-0.0189856,0.171385,0.638234
395,248,3.86351,-0.0189502,0.171387,0.638505
396,247,3.86436,-0.018792,0.171416,0.638935
397,246,3.86445,-0.0172446,0.170907,0.640579
398,245,3.86416,-0.0174933,0.170907,0.641024
399,244,3.86513,-0.0155021,0.170392,0.641746
400,243,3.86513,-0.0156044,0.170392,0.64189
401,242,3.86496,-0.0155703,0.170398,0.642012
402,241,3.86493,-0.0156363,0.170399,0.642109
403,240,3.86494,-0.015595,0.170403,0.642217
404,239,3.86141,-0.0188157,0.172855,0.643297
405,238,3.86158,-0.0183531,0.172863,0.643303
406,237,3.86106,-0.0192854,0.172864,0.643862
407,236,3.86116,-0.0187812,0.172859,0.643656
408,235,3.86189,-0.0138053,0.169799,0.643332
409,234,3.85939,-0.0203314,0.170342,0.632458
410,233,3.86323,-0.0207205,0.168903,0.627116
411,232,3.8639,-0.0204961,0.168892,0.626024
412,231,3.86387,-0.0213733,0.168885,0.626107
413,230,3.86408,-0.0223217,0.169443,0.624315
414,229,3.86556,-0.0208522,0.170422,0.630646
416,228,3.86011,-0.0143427,0.166804,0.633457
417,227,3.86273,-0.0215209,0.16885,0.625689
418,226,3.86435,-0.0225037,0.169423,0.62429
419,225,3.86326,-0.0205475,0.168865,0.625794
420,224,3.86117,-0.0225769,0.169367,0.624595
421,223,3.86557,-0.0263757,0.171956,0.625176
422,222,3.86504,-0.019052,0.169875,0.632062
423,221,3.86529,-0.0173108,0.169366,0.633957
424,220,3.8603,-0.0174126,0.167807,0.630382
425,219,3.86323,-0.0226438,0.16939,0.624205
426,218,3.8625,-0.0225247,0.169385,0.624432
427,217,3.86244,-0.0227243,0.169363,0.624005
428,216,3.86184,-0.0219911,0.169352,0.623423
429,215,3.86622,-0.024249,0.171416,0.626461
430,214,3.87182,-0.0224697,0.169455,0.625537
431,213,3.86056,-0.024782,0.171398,0.628205
432,212,3.86289,-0.0175373,0.16785,0.629643
433,211,3.86124,-0.0241481,0.169918,0.62392
434,210,3.86159,-0.0243653,0.169896,0.622789
435,209,3.86155,-0.025667,0.170433,0.621308
436,208,3.86303,-0.0233735,0.169361,0.623127
437,207,3.86142,-0.024371,0.16988,0.622386
438,206,3.86321,-0.0222247,0.167919,0.619917
439,205,3.86604,-0.0280708,0.171045,0.619896
440,204,3.86313,-0.0227849,0.170878,0.628856
441,203,3.86259,-0.022486,0.170897,0.629815
442,202,3.8634,-0.0200027,0.17038,0.630717
443,201,3.8632,-0.0207206,0.170384,0.631481
444,200,3.86318,-0.0209978,0.170388,0.631779
445,199,3.86417,-0.0189861,0.169864,0.632515
447,198,3.76433,-0.704274,0.369019,0.105248
449,197,3.86356,-0.0194796,0.169826,0.632456
450,196,3.86426,-0.0177822,0.169331,0.633133
451,195,3.8641,-0.0179915,0.169338,0.633783
452,194,3.86176,-0.0177631,0.167847,0.630622
453,193,3.86141,-0.0226641,0.170857,0.628592
454,192,3.86144,-0.0207407,0.170323,0.630197
455,191,3.86274,-0.0208146,0.170365,0.630448
456,190,3.86162,-0.0193032,0.169818,0.63207
457,189,3.86565,-0.0191921,0.169894,0.632063
458,188,3.86165,-0.0193257,0.171316,0.636761
459,187,3.86173,-0.0154467,0.168806,0.636133
461,186,3.86358,-0.0176979,0.167855,0.630753
462,185,3.86133,-0.0210521,0.170324,0.630234
463,184,3.86121,-0.020669,0.170332,0.630173
464,183,3.86409,-0.0175508,0.167857,0.629083
465,182,3.86564,-0.0189934,0.169867,0.631015
466,181,3.86419,-0.0176575,0.16936,0.634112
467,180,3.86211,-0.014293,0.166821,0.633425
468,179,3.86204,-0.0190211,0.168332,0.627445
469,178,3.86412,-0.0195214,0.168349,0.626831
470,177,3.86322,-0.0193552,0.16834,0.626941
472,176,3.86113,-0.0191462,0.1683,0.628051
473,175,3.86419,-0.022754,0.170877,0.62758
474,174,3.8629,-0.0193401,0.169833,0.632129
475,173,3.86027,-0.016126,0.167275,0.631066
476,172,3.86158,-0.0202123,0.16882,0.624677
477,171,3.86316,-0.0204367,0.168841,0.624579
478,170,3.86208,-0.0212529,0.16884,0.625522
479,169,3.86391,-0.0194161,0.168335,0.626259
480,168,3.86169,-0.024671,0.171381,0.626822
481,167,3.86303,-0.0191352,0.169812,0.631259
482,166,3.86262,-0.0193384,0.169829,0.632039
483,165,3.86354,-0.0177032,0.169306,0.633022
484,164,3.86344,-0.0170821,0.169308,0.633063
485,163,3.86345,-0.0175073,0.169317,0.633366
486,162,3.86406,-0.0176364,0.169336,0.633768
487,161,3.86442,-0.0157346,0.168822,0.634898
488,160,3.86426,-0.0160742,0.168825,0.635228
489,159,3.86417,-0.0157479,0.168824,0.635196
490,158,3.86404,-0.0160558,0.168828,0.63532
491,157,3.86403,-0.0160115,0.168825,0.635335
492,156,3.86393,-0.0160819,0.16882,0.635333
493,155,3.86394,-0.0159327,0.168825,0.635223
494,154,3.86407,-0.0156608,0.168822,0.635132
496,153,3.86402,-0.0145016,0.168307,0.637646
497,152,3.86992,-0.0223462,0.170908,0.629925
498,151,3.86151,-0.0194919,0.169823,0.63307
499,150,3.86571,-0.0202703,0.17041,0.630241
500,149,3.86488,-0.017662,0.169384,0.63475
501,148,3.86533,-0.0159599,0.168864,0.635928
502,147,3.86089,-0.0151275,0.167327,0.632094
503,146,3.86433,-0.0193648,0.168377,0.627587
504,145,3.86507,-0.0175114,0.167858,0.628708
505,144,3.8642,-0.0174963,0.167849,0.628827
506,143,3.86268,-0.0176968,0.167809,0.628238
507,142,3.8654,-0.020846,0.17036,0.628707
508,141,3.86357,-0.0175312,0.169318,0.632923
509,140,3.86173,-0.017573,0.169274,0.633311
510,139,3.86144,-0.017512,0.167776,0.628324
511,138,3.86411,-0.0193321,0.168321,0.625644
512,137,3.86268,-0.0192622,0.168314,0.626516
513,136,3.86316,-0.0193169,0.168335,0.626305
514,135,3.862,-0.0193958,0.168305,0.625924
515,134,3.8667,-0.0174047,0.167868,0.626921
516,133,3.86199,-0.0193328,0.169814,0.631005
517,132,3.86142,-0.0144437,0.166759,0.630925
518,131,3.86379,-0.0178065,0.166344,0.623477
519,130,3.86218,-0.0212151,0.168801,0.623788
520,129,3.86473,-0.0173552,0.166331,0.623083
521,128,3.86462,-0.0172361,0.166328,0.6226
522,127,3.86301,-0.0227317,0.169352,0.622391
523,126,3.86522,-0.017471,0.16782,0.627149
524,125,3.86438,-0.0175406,0.167833,0.628238
525,124,3.86073,-0.0161025,0.165784,0.625691
526,123,3.86385,-0.0193815,0.166803,0.620715
527,122,3.86444,-0.0194577,0.16681,0.620443
528,121,3.86414,-0.0194668,0.166815,0.620789
529,120,3.86239,-0.0187888,0.166792,0.620467
530,119,3.86486,-0.0228031,0.169338,0.621208
531,118,3.86344,-0.0194899,0.168301,0.625576
532,117,3.86408,-0.0175755,0.167783,0.626787
533,116,3.864,-0.0174249,0.167792,0.627032
534,115,3.86392,-0.0172671,0.167797,0.627148
535,114,3.86396,-0.0175322,0.167796,0.627402
536,113,3.86409,-0.0177024,0.167808,0.627698
537,112,3.8648,-0.0158841,0.167289,0.628621
538,111,3.8646,-0.015902,0.167285,0.628611
539,110,3.8646,-0.0159826,0.167281,0.628542
540,109,3.86457,-0.0157323,0.167278,0.628408
541,108,3.86446,-0.016168,0.167275,0.62841
542,107,3.86351,-0.0176659,0.167794,0.627595
543,106,3.86354,-0.0178316,0.167789,0.627604
544,105,3.86448,-0.0160448,0.167269,0.62825
545,104,3.86442,-0.0154176,0.167264,0.628014
546,103,3.86431,-0.0163528,0.167281,0.628186
547,102,3.87048,-0.0231955,0.169367,0.623227
548,101,3.86163,-0.0192053,0.168272,0.626224
549,100,3.86506,-0.022794,0.169384,0.623061
550,99,3.86471,-0.0178524,0.167822,0.627958
551,98,3.8643,-0.0177041,0.167825,0.628179
552,97,3.86153,-0.0157175,0.165767,0.625083
553,96,3.86264,-0.0213492,0.167318,0.619589
554,95,3.8614,-0.0210325,0.167283,0.619101
555,94,3.86247,-0.0211215,0.16728,0.618157
556,93,3.86472,-0.0173797,0.164802,0.616779
557,92,3.86771,-0.021267,0.167369,0.618222
558,91,3.8629,-0.0192228,0.168271,0.624458
559,90,3.86503,-0.0161482,0.165784,0.624166
560,89,3.86402,-0.015735,0.164268,0.619298
561,88,3.86651,-0.0183288,0.164794,0.616188
562,87,3.86509,-0.0176379,0.164776,0.616483
563,86,3.86474,-0.0175829,0.164763,0.615806
564,85,3.86326,-0.0193881,0.165252,0.614276
565,84,3.86687,-0.0211084,0.167314,0.616398
566,83,3.865,-0.0175366,0.16628,0.621229
567,82,3.86313,-0.0135301,0.163739,0.620472
568,81,3.86492,-0.0159043,0.162758,0.61289
569,80,3.86486,-0.0213269,0.165768,0.611531
570,79,3.86227,-0.0205936,0.165758,0.612232
572,78,3.86215,-0.0252151,0.165278,0.60279
573,77,3.86663,-0.0228436,0.166314,0.608602
574,76,3.86501,-0.0193789,0.165277,0.614015
575,75,3.86203,-0.0109109,0.159681,0.612484
581,74,3.86583,-0.0232551,0.164791,0.604244
582,73,3.86662,-0.01937,0.163772,0.607831
583,72,3.86612,-0.019639,0.163793,0.609108
584,71,3.8631,-0.0211385,0.16573,0.611335
586,70,3.8641,-0.0196873,0.165247,0.614834
587,69,3.86375,-0.0194771,0.165254,0.613674
588,68,3.86508,-0.0179024,0.164734,0.614424
589,67,3.86389,-0.0176304,0.16472,0.614362
590,66,3.86354,-0.0192078,0.165239,0.612941
591,65,3.86347,-0.0193921,0.165236,0.612873
592,64,3.8634,-0.0194668,0.165228,0.612809
593,63,3.86327,-0.0195535,0.165217,0.612639
594,62,3.86354,-0.0196522,0.165231,0.612627
596,61,3.86323,-0.0178703,0.164717,0.615394
597,60,3.87126,-0.0250907,0.163828,0.601392
599,59,3.86759,-0.0294016,0.16639,0.599193
600,58,3.86623,-0.0214101,0.164294,0.606813
602,57,3.8607,-0.017064,0.159672,0.603527
604,56,3.86295,-0.0232128,0.161717,0.595504
605,55,3.86527,-0.0236758,0.160291,0.589947
606,54,3.86323,-0.0235027,0.160246,0.588837
607,53,3.86762,-0.0309331,0.163942,0.586713
610,52,3.8608,-0.016873,0.158144,0.596738
611,51,3.86304,-0.0265327,0.160716,0.58655
612,50,3.86245,-0.0281816,0.161245,0.584528
614,49,3.71802,-0.802065,0.372708,0.0521935
615,48,3.86326,-0.0229933,0.159668,0.588328
616,47,3.86337,-0.0244157,0.160184,0.586216
617,46,3.86521,-0.0249301,0.158743,0.583008
620,45,3.86287,-0.0158457,0.158167,0.59556
621,44,3.86435,-0.0228661,0.158229,0.585187
622,43,3.86164,-0.0291781,0.161784,0.58254
623,42,3.86256,-0.0257825,0.159259,0.581613
624,41,3.86304,-0.0278112,0.159785,0.579399
625,40,3.86198,-0.028618,0.159652,0.579223
626,39,3.86787,-0.0273466,0.161341,0.582714
628,38,3.86347,-0.0162187,0.156653,0.589984
629,37,3.8601,-0.0274555,0.159734,0.579629
630,36,3.86325,-0.0284823,0.159731,0.578373
631,35,3.86468,-0.0254882,0.157204,0.576506
632,34,3.86382,-0.0292944,0.158249,0.573842
633,33,3.86305,-0.0299174,0.158684,0.572212
634,32,3.86504,-0.030685,0.161777,0.579871
636,31,3.86095,-0.0184838,0.155617,0.58355
637,30,3.86334,-0.0292672,0.158228,0.573555
638,29,3.86684,-0.0273759,0.157734,0.573818
639,28,3.8649,-0.0252067,0.157168,0.575552
640,27,3.86419,-0.0273839,0.157707,0.574249
641,26,3.86288,-0.0278543,0.158262,0.57277
642,25,3.86681,-0.0277214,0.159802,0.57752
644,24,3.86462,-0.0176794,0.155098,0.583252
645,23,3.86362,-0.0248166,0.157138,0.575437
646,22,3.86388,-0.0277543,0.158227,0.572525
647,21,3.86403,-0.0273076,0.157677,0.573751
650,20,3.86569,-0.0276566,0.159753,0.576606
651,19,3.86692,-0.0231837,0.158162,0.581715
652,18,3.8656,-0.0235745,0.158708,0.581356
653,17,3.86768,-0.0212512,0.157652,0.583274
654,16,3.86758,-0.0212976,0.157647,0.583376
655,15,3.8665,-0.0216541,0.158178,0.582432
656,14,3.86751,-0.0207651,0.157651,0.583796
657,13,3.86846,-0.0211155,0.157683,0.583999
658,12,3.86744,-0.0197623,0.157683,0.584281
659,11,3.86867,-0.0193381,0.157157,0.585242
661,10,3.86865,-0.0175073,0.156624,0.588152
662,9,3.86849,-0.0186499,0.157145,0.585553
663,8,3.86849,-0.0195154,0.157172,0.584989
664,7,3.8701,-0.0297169,0.16027,0.577712
665,6,3.86478,-0.0223236,0.156659,0.578819
666,5,3.86251,-0.0316313,0.1608,0.574554
667,4,3.86766,-0.0236558,0.158733,0.580501
669,3,3.86132,-0.0180959,0.155557,0.581355
670,2,3.86572,-0.0237282,0.155136,0.571633
671,1,3.86666,-0.0253377,0.155668,0.569675
672,0,3.86614,-0.0250973,0.155657,0.569619
673,0,3.865,-0.0248179,0.155621,0.569207
674,0,3.86737,-0.0274166,0.156232,0.56737
675,0,3.86783,-0.0253588,0.157177,0.573879
677,0,3.8633,-0.0169888,0.153515,0.576298
678,0,3.86438,-0.025233,0.154145,0.565076
679,0,3.86553,-0.0296678,0.156668,0.56433
680,0,3.86653,-0.0239683,0.153612,0.565773
681,0,3.8672,-0.0243834,0.154153,0.563574
682,0,3.8656,-0.0258997,0.15415,0.563683
683,0,3.86948,-0.0250075,0.155689,0.56761
685,0,3.86765,-0.0192128,0.154046,0.575691
686,0,3.86373,-0.0222463,0.15355,0.566127
687,0,3.86426,-0.0297325,0.155153,0.55994
688,0,3.86508,-0.0273156,0.154618,0.561255
689,0,3.86586,-0.022486,0.152085,0.559959
690,0,3.86508,-0.026137,0.152589,0.557362
691,0,3.86997,-0.0312617,0.155777,0.557856
692,0,3.86911,-0.0239415,0.153654,0.565092
693,0,3.86602,-0.0251091,0.155606,0.56785
695,0,3.86469,-0.0255916,0.152545,0.559547
696,0,3.86594,-0.0266405,0.153114,0.555763
697,0,3.86605,-0.0278665,0.153123,0.555838
699,0,3.86867,-0.0295718,0.153716,0.553893
700,0,3.86673,-0.0277862,0.154646,0.560926
701,0,3.86703,-0.025238,0.154125,0.563139
702,0,3.86815,-0.0235765,0.153603,0.564154
703,0,3.86785,-0.023607,0.153612,0.564607
704,0,3.86789,-0.0224266,0.153609,0.564808
705,0,3.86786,-0.0224278,0.153616,0.564967
706,0,3.86877,-0.0210087,0.153084,0.565717
707,0,3.86896,-0.0212481,0.153085,0.565738
708,0,3.86886,-0.0211094,0.15309,0.565876
709,0,3.86873,-0.0217032,0.153093,0.565848
710,0,3.86885,-0.0214831,0.153087,0.566006
711,0,3.86876,-0.0215036,0.153103,0.566225
712,0,3.86834,-0.0215938,0.153118,0.566208
713,0,3.86846,-0.022108,0.15312,0.56589
714,0,3.8718,-0.0323156,0.154205,0.555092
715,0,3.86554,-0.0255666,0.151051,0.554787
717,0,3.87117,-0.0290959,0.153692,0.555821
718,0,3.86552,-0.0278937,0.154583,0.560018
719,0,3.86587,-0.0241032,0.152028,0.559739
721,0,3.86496,-0.0299866,0.152086,0.547443
722,0,3.86396,-0.0303808,0.152087,0.547888
723,0,3.86418,-0.0299351,0.152081,0.547515
724,0,3.86751,-0.0252277,0.149602,0.547203
725,0,3.86724,-0.033737,0.154715,0.548992
728,0,3.86417,-0.0207918,0.148482,0.551745
729,0,3.86658,-0.028208,0.150083,0.54435
730,0,3.86695,-0.0283721,0.150092,0.544284
731,0,3.86689,-0.0280854,0.150107,0.54467
732,0,3.86516,-0.0262869,0.149512,0.545571
733,0,3.86697,-0.0340331,0.153212,0.543559
734,0,3.86779,-0.0263576,0.151064,0.550389
735,0,3.86734,-0.0262112,0.151066,0.55103
736,0,3.86375,-0.0201725,0.146444,0.547172
737,0,3.86754,-0.0274595,0.148517,0.538357
738,0,3.86686,-0.0285007,0.148556,0.538577
739,0,3.86751,-0.0270411,0.148571,0.537969
740,0,3.86655,-0.028262,0.148549,0.53828
741,0,3.86559,-0.0321781,0.151118,0.538928
742,0,3.87052,-0.0257802,0.149585,0.544211
743,0,3.86622,-0.0273998,0.151552,0.548478
744,0,3.86533,-0.0218454,0.148444,0.548792
745,0,3.8685,-0.0240175,0.147536,0.542059
746,0,3.8684,-0.0263937,0.14806,0.540282
747,0,3.86985,-0.0245545,0.147534,0.541086
748,0,3.86876,-0.0245389,0.147513,0.541274
750,0,3.87243,-0.0260116,0.149596,0.543355
751,0,3.86667,-0.0256862,0.151008,0.549707
752,0,3.86764,-0.0238382,0.150487,0.550799
753,0,3.86746,-0.0241357,0.150489,0.551007
754,0,3.86729,-0.0240695,0.150492,0.551149
755,0,3.86725,-0.023705,0.150493,0.551251
756,0,3.86736,-0.0238344,0.150492,0.551262
757,0,3.86718,-0.0233801,0.15049,0.55144
758,0,3.86712,-0.0239631,0.150491,0.55138
760,0,3.86742,-0.0194908,0.149427,0.556535
762,0,3.86713,-0.020541,0.149432,0.555806
763,0,3.8667,-0.0246136,0.150488,0.550553
764,0,3.87658,-0.0291559,0.152209,0.546878
765,0,3.86773,-0.0204474,0.14946,0.556005
766,0,3.86963,-0.0206637,0.148003,0.550405
767,0,3.87074,-0.0252636,0.151122,0.550201
768,0,3.86542,-0.024964,0.152518,0.555569
769,0,3.86656,-0.021014,0.149977,0.554658
770,0,3.86703,-0.0197743,0.147927,0.550076
771,0,3.86456,-0.0272694,0.150018,0.543331
772,0,3.86675,-0.0262255,0.149488,0.544001
773,0,3.86941,-0.0227792,0.146989,0.543031
774,0,3.86881,-0.0224827,0.146947,0.541754
775,0,3.8719,-0.0286847,0.150113,0.541419
778,0,3.86676,-0.0186701,0.145913,0.547046
779,0,3.8698,-0.0201076,0.144961,0.539416
781,0,3.86962,-0.0252532,0.145981,0.533613
782,0,3.86881,-0.0251808,0.145973,0.534317
783,0,3.87078,-0.0249241,0.146019,0.534144
785,0,3.87079,-0.0168506,0.145407,0.548492
787,0,3.86769,-0.0194791,0.144911,0.538771
788,0,3.86709,-0.0251518,0.145902,0.533561
792,0,3.8634,-0.0133453,0.139781,0.536737
797,0,3.86432,-0.0180084,0.135989,0.515916
798,0,3.865,-0.0303166,0.137146,0.497926
799,0,3.86679,-0.0334005,0.136096,0.490046
806,0,3.86005,-0.0253969,0.132268,0.492255
807,0,3.86435,-0.0377654,0.133764,0.474184
808,0,3.86502,-0.0422578,0.134351,0.470721
809,0,3.86557,-0.0400464,0.132227,0.468556
810,0,3.86455,-0.0426155,0.132723,0.465589
815,0,3.86351,-0.0256397,0.12755,0.474764
816,0,3.86249,-0.0443813,0.131604,0.459268
817,0,3.86366,-0.0452174,0.131621,0.457332
818,0,3.86573,-0.0425062,0.129616,0.455349
819,0,3.86578,-0.042723,0.129579,0.453601
820,0,3.86529,-0.0417521,0.127937,0.450039
821,0,3.86427,-0.0461022,0.128398,0.447458
822,0,3.86251,-0.0482864,0.128867,0.445592
827,0,3.86464,-0.0528315,0.131901,0.445321
828,0,3.8689,-0.042988,0.130084,0.452933
829,0,3.86606,-0.0403132,0.1294,0.455138
830,0,3.86735,-0.040187,0.129388,0.453634
831,0,3.86583,-0.0425831,0.129978,0.452967
832,0,3.86779,-0.0403875,0.129463,0.453276
833,0,3.86782,-0.0407396,0.129501,0.453592
835,0,3.86759,-0.0320304,0.127895,0.464084
836,0,3.86746,-0.0402428,0.129566,0.453827
837,0,3.8715,-0.0352237,0.127082,0.452648
838,0,3.87206,-0.0363328,0.127104,0.451711
839,0,3.87139,-0.0350629,0.127054,0.451803
843,0,3.8669,-0.0355546,0.130245,0.46412
844,0,3.87056,-0.0338886,0.128142,0.459042
845,0,3.86753,-0.0383447,0.129111,0.456214
846,0,3.87238,-0.0333484,0.126559,0.453467
847,0,3.87096,-0.0362131,0.127071,0.451996
848,0,3.871,-0.0411165,0.129838,0.452769
849,0,3.86881,-0.0359119,0.128665,0.456404
850,0,3.86932,-0.0387423,0.129276,0.45433
851,0,3.87038,-0.0333809,0.126668,0.454134
852,0,3.86882,-0.0362567,0.126994,0.450398
853,0,3.87171,-0.037053,0.125551,0.4462
854,0,3.87188,-0.036005,0.125531,0.445485
855,0,3.87168,-0.0364994,0.125505,0.444976
856,0,3.8693,-0.0392258,0.126021,0.443954
857,0,3.87073,-0.0390226,0.126031,0.442873
858,0,3.87099,-0.0413314,0.128276,0.445229
859,0,3.87422,-0.0243451,0.123187,0.452835
860,0,3.86842,-0.0367238,0.125263,0.445048
861,0,3.8696,-0.037075,0.123641,0.439765
862,0,3.86756,-0.0412522,0.124625,0.435923
863,0,3.87108,-0.0400181,0.122647,0.433302
864,0,3.87013,-0.0400449,0.122532,0.432263
865,0,3.86777,-0.0428444,0.123026,0.430315
866,0,3.86675,-0.0449103,0.123492,0.428225
867,0,3.86974,-0.0446423,0.123632,0.428022
868,0,3.86979,-0.0397111,0.122608,0.430966
869,0,3.87052,-0.0429676,0.123238,0.429853
870,0,3.8702,-0.039504,0.122644,0.431123
871,0,3.87106,-0.0381461,0.120463,0.428129
872,0,3.86851,-0.0438757,0.121462,0.424457
873,0,3.86842,-0.0398536,0.119268,0.421567
874,0,3.86581,-0.0465168,0.120212,0.417147
875,0,3.86863,-0.0438121,0.118179,0.413659
876,0,3.86718,-0.0474944,0.118695,0.411252
877,0,3.86592,-0.0504216,0.121423,0.411494
878,0,3.86849,-0.0440622,0.118291,0.413411
879,0,3.868,-0.0474115,0.118827,0.411242
880,0,3.86588,-0.0474996,0.118701,0.410722
881,0,3.86853,-0.0434619,0.116614,0.406926
882,0,3.86479,-0.0456378,0.117027,0.404176
883,0,3.86609,-0.0488117,0.115562,0.399847
884,0,3.86457,-0.0515542,0.116063,0.397038
885,0,3.86224,-0.0551248,0.116582,0.395394
886,0,3.8674,-0.0503544,0.114051,0.39305
887,0,3.86612,-0.0519828,0.114601,0.391721
888,0,3.86808,-0.0502722,0.114134,0.391833
889,0,3.86781,-0.0507507,0.114113,0.391632
892,0,3.86627,-0.0433588,0.113242,0.39904
894,0,3.86829,-0.0349672,0.109919,0.403701
895,0,3.86093,-0.0560104,0.113681,0.384929
896,0,3.86461,-0.0538026,0.111662,0.381046
897,0,3.86441,-0.053441,0.111579,0.379772
898,0,3.86447,-0.0541429,0.111563,0.378509
899,0,3.86687,-0.0564352,0.112361,0.377259
900,0,3.86544,-0.0560141,0.114044,0.382684
904,0,3.86622,-0.0506029,0.107308,0.370771
905,0,3.86045,-0.0582739,0.108825,0.36584
906,0,3.86376,-0.0563132,0.106773,0.362072
907,0,3.86088,-0.0613847,0.107209,0.359196
908,0,3.85887,-0.0619369,0.107728,0.357183
909,0,3.86448,-0.0564295,0.105215,0.355344
910,0,3.86203,-0.0642417,0.107886,0.355778
911,0,3.86026,-0.0624827,0.107921,0.356961
912,0,3.86534,-0.0564502,0.105386,0.355509
913,0,3.86762,-0.0545254,0.104884,0.356425
914,0,3.85964,-0.0589854,0.104991,0.354105
915,0,3.86155,-0.0634556,0.104164,0.348125
916,0,3.85914,-0.0625742,0.104046,0.347014
917,0,3.85599,-0.0680601,0.105189,0.343477
918,0,3.863,-0.0588835,0.102044,0.34286
919,0,3.85849,-0.0661364,0.103127,0.340106
920,0,3.86131,-0.0674274,0.103266,0.339788
921,0,3.86403,-0.0627547,0.102806,0.341017
922,0,3.86354,-0.0593236,0.10215,0.342681
923,0,3.85998,-0.0664836,0.103304,0.340529
924,0,3.85662,-0.0656665,0.103143,0.339498
925,0,3.85895,-0.0630457,0.101009,0.335305
926,0,3.85478,-0.0702164,0.102095,0.33222
927,0,3.85443,-0.0702628,0.102034,0.330847
942,0,3.8586,-0.0611354,0.099032,0.331593
943,0,3.85717,-0.0624784,0.0973675,0.324903
944,0,3.85846,-0.064998,0.0958429,0.319094
945,0,3.85967,-0.0658745,0.0943793,0.314031
946,0,3.85638,-0.0681372,0.0948342,0.310408
947,0,3.85287,-0.0719361,0.0953224,0.307944
948,0,3.85676,-0.0717055,0.0933466,0.305869
949,0,3.85398,-0.0750278,0.0938543,0.303852
950,0,3.85954,-0.0717546,0.0934185,0.303048
951,0,3.85872,-0.0696331,0.093453,0.304138
952,0,3.85655,-0.0709432,0.0933713,0.304408
953,0,3.85502,-0.0743169,0.0939546,0.30252
954,0,3.86068,-0.0710322,0.0935587,0.303236
955,0,3.8586,-0.0630698,0.0907294,0.302876
956,0,3.85537,-0.0701977,0.0896532,0.296381
957,0,3.84965,-0.077097,0.0906565,0.291306
958,0,3.85479,-0.0742776,0.0887359,0.287042
959,0,3.85122,-0.0820863,0.0913757,0.287493
960,0,3.85334,-0.0788822,0.0908225,0.289694
961,0,3.85248,-0.0777525,0.0908186,0.290005
962,0,3.85286,-0.0780988,0.0908473,0.289864
963,0,3.85579,-0.0771746,0.0909986,0.289766
964,0,3.85807,-0.0739301,0.0904927,0.292306
965,0,3.85623,-0.0744734,0.0904485,0.292655
966,0,3.85791,-0.0667511,0.0877017,0.290478
967,0,3.85404,-0.0761279,0.0887623,0.286341
968,0,3.85234,-0.0755325,0.0886706,0.284875
969,0,3.85644,-0.0732128,0.0867008,0.282208
970,0,3.85342,-0.0756965,0.0872322,0.280201
971,0,3.85026,-0.0753293,0.0849506,0.277696
973,0,3.8579,-0.0529797,0.0806016,0.28608
974,0,3.851,-0.0798631,0.0840964,0.267882
975,0,3.84791,-0.0815233,0.0839897,0.268174
976,0,3.85045,-0.0771152,0.0819795,0.264628
977,0,3.84669,-0.0811712,0.0824425,0.261738
978,0,3.84267,-0.0877422,0.0829433,0.26033
979,0,3.84902,-0.0800177,0.0803735,0.257605
980,0,3.84562,-0.0850837,0.080905,0.255873
984,0,3.84463,-0.0855843,0.0809166,0.259259
986,0,3.84327,-0.0858602,0.0771092,0.248082
987,0,3.84232,-0.091679,0.0761946,0.239401
988,0,3.83704,-0.0988486,0.076627,0.235886
989,0,3.84296,-0.0939365,0.0746877,0.231359
990,0,3.83743,-0.100697,0.0751626,0.230587
991,0,3.83187,-0.105134,0.0756187,0.228145
992,0,3.83897,-0.0971837,0.0729801,0.224658
993,0,3.83486,-0.100879,0.0734864,0.221346
994,0,3.83254,-0.109385,0.0741289,0.221111
995,0,3.82969,-0.116422,0.0770423,0.222003
996,0,3.83766,-0.0997229,0.0751601,0.22779
997,0,3.84263,-0.0927946,0.0724746,0.226708
998,0,3.83695,-0.103641,0.07368,0.222739
999,0,3.84246,-0.0945731,0.0710357,0.221
1000,0,3.83465,-0.0999755,0.0713543,0.218231
1001,0,3.83949,-0.0972455,0.0693348,0.21339
1002,0,3.83474,-0.102138,0.0698149,0.210682
1003,0,3.84045,-0.101597,0.0679037,0.208605
1004,0,3.83892,-0.0990243,0.0678071,0.206533
1005,0,3.83357,-0.105798,0.0682778,0.2056
1006,0,3.83249,-0.105575,0.0682138,0.2036
1007,0,3.83729,-0.104408,0.0662393,0.202032
1008,0,3.83631,-0.105258,0.0661489,0.199573
1009,0,3.83413,-0.106088,0.0668362,0.197028
1010,0,3.83342,-0.110466,0.0689901,0.199399
1011,0,3.84386,-0.0965189,0.0658195,0.202906
1012,0,3.8387,-0.104721,0.068527,0.201854
1013,0,3.83937,-0.100163,0.0679325,0.205119
1014,0,3.84543,-0.0913876,0.0652628,0.204266
1015,0,3.83846,-0.104894,0.0663867,0.200822
1016,0,3.84448,-0.0854262,0.0607976,0.197651
1017,0,3.8389,-0.104346,0.0625618,0.187448
1018,0,3.83577,-0.10472,0.0624091,0.187759
1019,0,3.83139,-0.111885,0.0629539,0.186111
1020,0,3.84033,-0.100273,0.0604648,0.184045
1021,0,3.8367,-0.107869,0.0609785,0.183292
1022,0,3.83517,-0.107958,0.0608614,0.181827
1023,0,3.84453,-0.0984008,0.0583253,0.179223
1024,0,3.8415,-0.104321,0.0589083,0.177317
1025,0,3.83255,-0.11723,0.0614856,0.178362
1027,0,3.85919,-0.0456753,0.055489,0.21189
1028,0,3.83588,-0.107137,0.0609758,0.182112
1029,0,3.84281,-0.0978307,0.0582702,0.179895
1030,0,3.83263,-0.114423,0.0614374,0.176891
1038,0,3.83704,-0.0988486,0.076627,0.235886
1039,0,3.84296,-0.0939365,0.0746877,0.231359
1040,0,3.83743,-0.100697,0.0751626,0.230587
1041,0,3.83187,-0.105134,0.0756187,0.228145
1042,0,3.83897,-0.0971837,0.0729801,0.224658
1043,0,3.83486,-0.100879,0.0734864,0.221346
1044,0,3.83254,-0.109385,0.0741289,0.221111
1045,0,3.82969,-0.116422,0.0770423,0.222003
1046,0,3.83766,-0.0997229,0.0751601,0.22779
1047,0,3.84263,-0.0927946,0.0724746,0.226708
1048,0,3.83695,-0.103641,0.07368,0.222739
1049,0,3.84246,-0.0945731,0.0710357,0.221
1050,0,3.83465,-0.0999755,0.0713543,0.218231
1051,0,3.83949,-0.0972455,0.0693348,0.21339
1052,0,3.83474,-0.102138,0.0698149,0.210682
1053,0,3.84045,-0.101597,0.0679037,0.208605
1054,0,3.83892,-0.0990243,0.0678071,0.206533
1055,0,3.83357,-0.105798,0.0682778,0.2056
1056,0,3.83249,-0.105575,0.0682138,0.2036
1057,0,3.83729,-0.104408,0.0662393,0.202032
1058,0,3.83631,-0.105258,0.0661489,0.199573
1059,0,3.83413,-0.106088,0.0668362,0.197028
1060,0,3.83342,-0.110466,0.0689901,0.199399
1061,0,3.84386,-0.0965189,0.0658195,0.202906
1062,0,3.8387,-0.104721,0.068527,0.201854
1063,0,3.83937,-0.100163,0.0679325,0.205119
1064,0,3.84543,-0.0913876,0.0652628,0.204266
1065,0,3.83846,-0.104894,0.0663867,0.200822
1066,0,3.84448,-0.0854262,0.0607976,0.197651
1067,0,3.8389,-0.104346,0.0625618,0.187448
1068,0,3.83577,-0.10472,0.0624091,0.187759
1069,0,3.83139,-0.111885,0.0629539,0.186111
1070,0,3.84033,-0.100273,0.0604648,0.184045
1071,0,3.8367,-0.107869,0.0609785,0.183292
1072,0,3.83517,-0.107958,0.0608614,0.181827
1073,0,3.84453,-0.0984008,0.0583253,0.179223
1074,0,3.8415,-0.104321,0.0589083,0.177317
1075,0,3.83255,-0.11723,0.0614856,0.178362
1077,0,3.85919,-0.0456753,0.055489,0.21189
1078,0,3.83588,-0.107137,0.0609758,0.182112
1079,0,3.84281,-0.0978307,0.0582702,0.179895
1080,0,3.83263,-0.114423,0.0614374,0.176891