File: calce_correlation_analysis/matrices/CALCE_CX2_38_cycle_feature_matrix.csv
cycle_number,rul,voltage,current,capacity,charge_capacity
6,591,3.8239,-0.0464696,0.250194,0.904096
8,589,3.82811,-0.0502381,0.249354,0.894265
10,587,3.82656,-0.0542631,0.250589,0.889106
12,585,3.82663,-0.050721,0.251542,0.897809
14,583,3.82582,-0.0509235,0.250452,0.887903
17,581,3.82774,-0.0550205,0.248841,0.880776
19,579,3.82971,-0.0474684,0.246413,0.88939
21,577,3.8264,-0.0572049,0.248085,0.87763
23,575,3.82733,-0.0532308,0.246289,0.876502
25,573,3.82876,-0.051734,0.247725,0.883589
27,571,3.82763,-0.0514982,0.247929,0.882221
29,569,3.82754,-0.0503402,0.247764,0.883046
31,567,3.82738,-0.050352,0.247255,0.882294
33,565,3.82669,-0.0504498,0.247954,0.882024
35,563,3.82656,-0.0504213,0.247765,0.88162
37,561,3.82675,-0.0505239,0.247298,0.881263
39,559,3.82505,-0.0467643,0.244595,0.879658
41,557,3.82865,-0.0525791,0.242517,0.869402
43,555,3.827,-0.0565416,0.243172,0.864279
45,553,3.82708,-0.0523621,0.245674,0.873924
50,551,3.83093,-0.0550763,0.242756,0.860651
52,549,3.8262,-0.0534706,0.244515,0.865488
61,547,3.82999,-0.0561795,0.244997,0.867182
63,545,3.82733,-0.0525453,0.241658,0.864844
65,543,3.82795,-0.056805,0.242892,0.860503
67,541,3.82772,-0.058066,0.241721,0.858428
69,539,3.82651,-0.0585471,0.243855,0.857283
71,537,3.82785,-0.0573784,0.240657,0.851724
73,535,3.82898,-0.0535257,0.237874,0.850475
75,533,3.82664,-0.0577565,0.241184,0.850447
77,531,3.8273,-0.0578786,0.240162,0.850847
79,529,3.82869,-0.0561872,0.238758,0.846496
81,527,3.82793,-0.0561024,0.238788,0.846939
83,525,3.82698,-0.0583548,0.239292,0.843914
85,523,3.82724,-0.0577165,0.23871,0.844474
87,521,3.82534,-0.0587915,0.23972,0.84281
89,519,3.8265,-0.0602957,0.238862,0.841267
91,517,3.82797,-0.0587662,0.235468,0.832832
94,515,3.62959,-1.12552,0.575095,0.0388892
96,513,3.82722,-0.0593271,0.237914,0.835232
98,511,3.82714,-0.0590132,0.239596,0.840042
100,509,3.82862,-0.0588051,0.237121,0.836513
102,507,3.82721,-0.0586008,0.23712,0.836029
104,505,3.82549,-0.061186,0.243166,0.838211
106,503,3.82346,-0.0595956,0.23622,0.834082
108,501,3.82975,-0.0590828,0.23562,0.829362
110,499,3.83076,-0.0607092,0.235978,0.827551
112,497,3.82923,-0.0573026,0.237475,0.835297
114,495,3.82818,-0.0614642,0.236163,0.8268
117,493,3.83093,-0.0662924,0.237741,0.820545
119,491,3.82709,-0.0616964,0.238755,0.829734
121,489,3.82907,-0.0578732,0.237594,0.834674
123,487,3.82882,-0.0579106,0.237654,0.833866
125,485,3.82952,-0.0553146,0.237109,0.836248
127,483,3.82961,-0.0557742,0.236811,0.836072
129,481,3.82938,-0.0557359,0.237006,0.835505
131,479,3.82997,-0.0537896,0.236451,0.838354
134,477,3.82812,-0.0586753,0.23357,0.822324
136,475,3.82961,-0.0599325,0.233455,0.820482
139,473,3.83016,-0.0563097,0.234934,0.828687
144,471,3.83918,-0.075525,0.242032,0.81593
149,469,3.82928,-0.0602975,0.235405,0.826518
151,467,3.82951,-0.0576244,0.232583,0.824346
153,465,3.82842,-0.0595049,0.237536,0.83154
155,463,3.82719,-0.0605742,0.233771,0.820425
157,461,3.82787,-0.060317,0.233702,0.819962
160,459,3.82988,-0.0578881,0.234613,0.826545
162,457,3.82937,-0.0562339,0.234788,0.82893
164,455,3.82911,-0.0563332,0.234985,0.828059
166,453,3.83,-0.0542447,0.234197,0.830699
168,451,3.82832,-0.0565177,0.235156,0.827566
170,449,3.82892,-0.0565904,0.234577,0.827488
172,447,3.82911,-0.0566703,0.234346,0.827466
174,445,3.82948,-0.0545111,0.234108,0.829905
176,443,3.82922,-0.0588107,0.23166,0.813393
178,441,3.82809,-0.0592834,0.231768,0.814164
180,439,3.82913,-0.0612548,0.234044,0.815978
182,437,3.82489,-0.0553746,0.228628,0.812855
184,435,3.82915,-0.0593824,0.229703,0.806768
186,433,3.82819,-0.0656303,0.232965,0.806071
188,431,3.82895,-0.0592772,0.232686,0.818578
191,429,3.82652,-0.0634636,0.232306,0.807704
194,427,3.84214,-0.0730438,0.236811,0.805966
198,425,3.82705,-0.0604549,0.233699,0.818642
200,423,3.83198,-0.0621289,0.236447,0.821689
202,421,3.82883,-0.0561507,0.235084,0.828172
205,419,3.829,-0.0562203,0.233242,0.828149
207,417,3.82849,-0.0568695,0.234647,0.827475
209,415,3.82761,-0.0566364,0.234931,0.826909
211,413,3.82762,-0.0567001,0.234852,0.826764
213,411,3.82771,-0.0566003,0.234866,0.826604
215,409,3.82877,-0.0569207,0.233537,0.826385
217,407,3.82735,-0.0569396,0.234985,0.826213
219,405,3.82833,-0.059444,0.229999,0.811995
221,403,3.82855,-0.0609892,0.229901,0.808837
223,401,3.83226,-0.0637363,0.233019,0.807012
225,399,3.82722,-0.0557552,0.22992,0.815647
227,397,3.83039,-0.0597921,0.229566,0.805624
229,395,3.82678,-0.0599159,0.22919,0.805437
231,393,3.82663,-0.0596695,0.234622,0.811655
233,391,3.82848,-0.0603562,0.227556,0.799085
235,389,3.82896,-0.059796,0.227272,0.798861
237,387,3.8331,-0.0641664,0.230945,0.800007
239,385,3.82873,-0.0541838,0.22535,0.804464
242,383,3.82912,-0.0630607,0.227992,0.795976
244,381,3.84092,-0.0760162,0.232396,0.789704
247,379,3.84453,-0.0949604,0.2383,0.765327
252,377,3.83059,-0.0627227,0.230121,0.805117
255,375,3.65219,-1.04731,0.531841,0.0767349
258,373,3.8282,-0.0654571,0.230474,0.801366
262,371,3.82761,-0.0644928,0.22892,0.79558
264,369,3.82723,-0.0632323,0.228186,0.796053
266,367,3.83102,-0.0631844,0.22982,0.801091
268,365,3.82468,-0.0580548,0.225,0.796396
270,363,3.82756,-0.0652274,0.227274,0.788082
273,361,3.83066,-0.0624841,0.228049,0.795817
275,359,3.8299,-0.0599427,0.227873,0.797255
277,357,3.83132,-0.0585724,0.227024,0.800226
279,355,3.82726,-0.0622977,0.230186,0.800264
281,353,3.83127,-0.0564161,0.226796,0.801936
283,351,3.82842,-0.0596144,0.229659,0.802733
285,349,3.82822,-0.0603165,0.229551,0.802481
287,347,3.82813,-0.0601038,0.229621,0.801813
290,345,3.8285,-0.0587362,0.223475,0.789193
292,343,3.82938,-0.0612289,0.223884,0.785099
294,341,3.83193,-0.067364,0.228934,0.788858
297,339,3.82931,-0.0624085,0.223017,0.783608
299,337,3.82791,-0.0657696,0.225151,0.779324
301,335,3.83133,-0.0673859,0.227968,0.782195
303,333,3.8264,-0.0574619,0.222341,0.787654
306,331,3.82948,-0.0639096,0.225934,0.790594
310,329,3.82888,-0.0601532,0.223229,0.788372
312,327,3.82884,-0.0657145,0.224369,0.780897
315,325,3.83021,-0.0630732,0.22619,0.788531
317,323,3.8301,-0.060561,0.225763,0.790195
319,321,3.83075,-0.0611317,0.225408,0.789631
321,319,3.83041,-0.0582718,0.225225,0.791774
323,317,3.83087,-0.0589118,0.224886,0.791899
325,315,3.82998,-0.0590966,0.225479,0.791739
327,313,3.83024,-0.0589692,0.225304,0.791189
329,311,3.82926,-0.0586938,0.225505,0.791221
331,309,3.82591,-0.057597,0.220605,0.783286
333,307,3.82821,-0.0650473,0.222101,0.77313
335,305,3.83058,-0.0679398,0.223008,0.770992
337,303,3.83002,-0.0618984,0.223516,0.782384
339,301,3.82897,-0.0645418,0.220863,0.768306
341,299,3.83028,-0.0644722,0.219846,0.768195
343,297,3.83148,-0.0633271,0.222047,0.773627
346,295,3.82794,-0.0667005,0.221151,0.765664
348,293,3.8267,-0.0691727,0.222247,0.762739
350,291,3.82998,-0.0665299,0.223567,0.770203
355,289,3.84073,-0.0850839,0.227604,0.755408
357,287,3.83225,-0.0677244,0.224855,0.776795
359,285,3.83084,-0.0609838,0.223439,0.78326
361,283,3.82996,-0.0615814,0.224225,0.783241
363,281,3.82879,-0.0634983,0.224909,0.786805
365,279,3.82753,-0.0635434,0.225667,0.786411
367,277,3.83036,-0.0591085,0.22317,0.784678
369,275,3.82989,-0.0594147,0.223419,0.784366
371,273,3.82955,-0.0597258,0.223624,0.784163
373,271,3.82779,-0.0519799,0.21654,0.780326
375,269,3.8265,-0.0667067,0.221508,0.764197
378,267,3.83241,-0.0670902,0.221328,0.764974
380,265,3.82865,-0.062447,0.221778,0.77407
382,263,3.82996,-0.0653224,0.218849,0.759867
384,261,3.82904,-0.0638504,0.218237,0.761446
386,259,3.82936,-0.0666125,0.221719,0.769224
389,257,3.82948,-0.0653019,0.21883,0.76031
391,255,3.82908,-0.0651346,0.217857,0.759761
395,253,3.82712,-0.0582321,0.218585,0.772086
397,251,3.82842,-0.0712685,0.218746,0.758309
399,249,3.83098,-0.0626228,0.215613,0.756871
401,247,3.82775,-0.0632575,0.215964,0.756042
406,245,3.83239,-0.0646938,0.223388,0.779996
409,243,3.82884,-0.06065,0.221263,0.778831
411,241,3.82926,-0.0656716,0.224932,0.777861
413,239,3.83022,-0.0636871,0.224147,0.78033
415,237,3.82704,-0.0609718,0.226939,0.783053
417,235,3.83,-0.0631864,0.221691,0.774451
419,233,3.82954,-0.0617853,0.222307,0.775252
421,231,3.82911,-0.0635483,0.22442,0.778821
423,229,3.82891,-0.0581582,0.218379,0.774781
425,227,3.8309,-0.0622208,0.21921,0.768337
427,225,3.83088,-0.062559,0.219062,0.76879
429,223,3.8302,-0.0623504,0.221821,0.774443
431,221,3.82885,-0.0648675,0.220823,0.765499
433,219,3.83072,-0.0622715,0.220123,0.767511
435,217,3.83062,-0.0646765,0.222231,0.770742
437,215,3.829,-0.0621555,0.221952,0.772568
439,213,3.83044,-0.0596056,0.221022,0.775147
441,211,3.83087,-0.0578457,0.2211,0.777774
443,209,3.82953,-0.0621435,0.222107,0.778882
445,207,3.83087,-0.0577641,0.220727,0.777481
447,205,3.83174,-0.0583418,0.219987,0.777829
449,203,3.83042,-0.0583618,0.220953,0.777864
451,201,3.82808,-0.0604836,0.221269,0.774695
456,199,3.83007,-0.0619584,0.221963,0.775626
459,197,3.8288,-0.0643292,0.223683,0.778312
461,195,3.8298,-0.060593,0.219801,0.770768
463,193,3.82969,-0.0645533,0.220936,0.771169
465,191,3.8295,-0.0665119,0.223644,0.768771
467,189,3.82967,-0.0603733,0.221435,0.775993
469,187,3.82857,-0.0650869,0.220781,0.764682
471,185,3.83103,-0.0607244,0.218006,0.762208
473,183,3.82957,-0.0645773,0.221861,0.770066
476,181,3.82858,-0.0630719,0.218438,0.760337
478,179,3.83101,-0.0608124,0.217796,0.762426
481,177,3.83038,-0.0607133,0.21954,0.768107
483,175,3.83039,-0.0609853,0.219466,0.767712
485,173,3.83059,-0.0607925,0.219791,0.768058
487,171,3.83153,-0.0586472,0.219099,0.770741
489,169,3.83178,-0.0586702,0.219176,0.770882
491,167,3.83228,-0.0586478,0.2186,0.770923
493,165,3.83187,-0.0589581,0.219245,0.770967
495,163,3.82883,-0.0585519,0.222245,0.77197
498,161,3.82701,-0.060653,0.217581,0.763046
500,159,3.82952,-0.0632085,0.21804,0.758941
502,157,3.82923,-0.0698397,0.221467,0.758157
504,155,3.82959,-0.0634321,0.219711,0.765198
506,153,3.83144,-0.062957,0.218216,0.760534
508,151,3.83177,-0.062763,0.220022,0.766193
511,149,3.83024,-0.0630685,0.217914,0.759757
513,147,3.83158,-0.0634054,0.216255,0.759068
515,145,3.8307,-0.0648907,0.220469,0.761671
517,143,3.82793,-0.0586456,0.215887,0.762236
519,141,3.83063,-0.065379,0.217672,0.75573
522,139,3.8365,-0.0674132,0.216768,0.74823
530,137,3.83106,-0.0681836,0.217513,0.746505
532,135,3.83164,-0.060954,0.215995,0.754133
534,133,3.83183,-0.0614362,0.216047,0.753648
536,131,3.83059,-0.0606507,0.217642,0.760066
538,129,3.82961,-0.0613365,0.217655,0.760299
540,127,3.82898,-0.0635534,0.218043,0.756901
542,125,3.82905,-0.0635101,0.218354,0.756835
544,123,3.83075,-0.0613592,0.216896,0.759926
546,121,3.83246,-0.0566889,0.214627,0.758433
552,119,3.83221,-0.0645824,0.21478,0.743935
555,117,3.83909,-0.0766386,0.215351,0.728914
557,115,3.83134,-0.0753751,0.216621,0.736265
561,113,3.83212,-0.066207,0.209978,0.7332
564,111,3.84416,-0.133018,0.22926,0.663801
566,109,3.83344,-0.0663016,0.20921,0.733704
570,107,3.83197,-0.0636224,0.209799,0.735822
572,105,3.83391,-0.0638294,0.208839,0.735577
574,103,3.83464,-0.0742862,0.213988,0.736532
578,101,3.82938,-0.0653911,0.212712,0.734764
580,99,3.8291,-0.0688264,0.210862,0.730796
582,97,3.83349,-0.0692504,0.211954,0.739467
585,95,3.8313,-0.0691124,0.210861,0.729437
587,93,3.83262,-0.0657521,0.209463,0.732035
589,91,3.82955,-0.0729439,0.216211,0.735409
591,89,3.83197,-0.0568656,0.20811,0.740397
593,87,3.83215,-0.0638376,0.209977,0.733906
595,85,3.83047,-0.0642721,0.209823,0.733532
597,83,3.83185,-0.0647612,0.211538,0.737482
599,81,3.83139,-0.0646704,0.211683,0.737002
601,79,3.83116,-0.0639849,0.212131,0.738108
603,77,3.83145,-0.0625545,0.212204,0.740039
605,75,3.83127,-0.0626105,0.212084,0.740118
607,73,3.82895,-0.0665207,0.213946,0.741276
609,71,3.82952,-0.0650634,0.212313,0.737507
611,69,3.83015,-0.0650623,0.212341,0.737446
614,67,3.84074,-0.0763213,0.213208,0.723354
616,65,3.83147,-0.072577,0.213527,0.73157
618,63,3.83051,-0.064548,0.212784,0.738293
620,61,3.83046,-0.0686519,0.209965,0.728797
622,59,3.8314,-0.0674325,0.208214,0.724016
624,57,3.83142,-0.0707179,0.21229,0.73129
626,55,3.83029,-0.0601889,0.206664,0.73119
628,53,3.83193,-0.0671009,0.208762,0.724359
630,51,3.83078,-0.0670274,0.20811,0.724622
632,49,3.83128,-0.0670073,0.210644,0.729572
634,47,3.8311,-0.0655237,0.206203,0.719991
637,45,3.83275,-0.063005,0.205697,0.724378
639,43,3.83458,-0.0677162,0.209027,0.722887
641,41,3.83069,-0.0626098,0.205666,0.727291
643,39,3.83193,-0.0674438,0.206707,0.717491
646,37,3.83118,-0.0718378,0.207869,0.720277
648,35,3.83213,-0.0644603,0.208196,0.725634
650,33,3.82964,-0.0699442,0.210249,0.724857
652,31,3.83081,-0.0666583,0.210236,0.729141
654,29,3.83076,-0.0669819,0.210481,0.728636
656,27,3.8315,-0.0662241,0.210257,0.728837
658,25,3.83362,-0.0640074,0.208842,0.731794
660,23,3.8313,-0.0654268,0.210592,0.730302
662,21,3.83286,-0.0646459,0.209624,0.730985
667,19,3.83575,-0.0679585,0.206738,0.716688
669,17,3.83073,-0.0595232,0.202974,0.717526
671,15,3.83264,-0.0659471,0.20425,0.71316
673,13,3.83354,-0.0632944,0.203844,0.715808
676,11,3.83326,-0.0649343,0.206507,0.719026
678,9,3.83274,-0.0660601,0.204445,0.71276
680,7,3.83379,-0.0661469,0.204268,0.712207
682,5,3.8349,-0.0679066,0.205953,0.714878
684,3,3.83375,-0.0618734,0.201687,0.719791
686,1,3.83221,-0.0682343,0.204549,0.709944
688,0,3.831,-0.0684111,0.204675,0.710156
690,0,3.8323,-0.0681365,0.206952,0.715339
692,0,3.8295,-0.067801,0.206304,0.716125
694,0,3.83221,-0.0633387,0.206845,0.715753
696,0,3.83436,-0.0638992,0.204011,0.714166
698,0,3.83151,-0.0674796,0.208639,0.721541
700,0,3.83153,-0.065126,0.207953,0.722962
702,0,3.83056,-0.0658398,0.208715,0.721447
704,0,3.83361,-0.062865,0.206714,0.725651
706,0,3.8317,-0.063379,0.207925,0.724361
708,0,3.83097,-0.0633171,0.208357,0.724443
710,0,3.83266,-0.0627523,0.207799,0.725748
712,0,3.83147,-0.0633403,0.207852,0.724247
714,0,3.84154,-0.077192,0.211231,0.715462
716,0,3.83317,-0.0670226,0.208627,0.723101
718,0,3.83168,-0.0670694,0.209907,0.727877
720,0,3.83314,-0.0632868,0.205654,0.720846
722,0,3.83354,-0.0633671,0.205547,0.719936
724,0,3.83572,-0.0650694,0.207974,0.72284
726,0,3.83068,-0.0609826,0.20734,0.726513
728,0,3.83308,-0.0634258,0.205339,0.719045
730,0,3.83163,-0.0665368,0.205787,0.715245
733,0,3.83168,-0.0638,0.207784,0.724259
735,0,3.83091,-0.0657486,0.205232,0.716378
740,0,3.83382,-0.0715434,0.208198,0.712017
745,0,3.83001,-0.0695196,0.202682,0.703061
747,0,3.83226,-0.0675425,0.200527,0.698843
751,0,3.83256,-0.064512,0.19759,0.701842
753,0,3.83409,-0.0656727,0.198003,0.695293
755,0,3.83273,-0.0698498,0.199476,0.690085
760,0,3.83131,-0.0710701,0.20001,0.687141
762,0,3.83313,-0.0664434,0.196435,0.685523
764,0,3.83222,-0.0705958,0.196599,0.683969
769,0,3.83492,-0.0693581,0.199153,0.688012
771,0,3.83282,-0.0679106,0.198856,0.690848
773,0,3.83382,-0.0665072,0.198635,0.690618
775,0,3.83484,-0.0655204,0.19811,0.693442
777,0,3.8344,-0.0650852,0.198339,0.693431
779,0,3.83207,-0.0694167,0.199867,0.694869
781,0,3.83431,-0.0715256,0.198119,0.691835
783,0,3.83352,-0.0673824,0.199068,0.690802
785,0,3.83484,-0.0653855,0.198319,0.693579
787,0,3.84231,-0.0878381,0.20767,0.685973
789,0,3.83375,-0.0641746,0.19999,0.701216
792,0,3.83187,-0.0671952,0.199607,0.700104
794,0,3.83303,-0.0669485,0.200677,0.697423
796,0,3.83219,-0.0673552,0.200555,0.696849
798,0,3.83206,-0.0683838,0.200271,0.694654
800,0,3.8316,-0.0695996,0.200641,0.694873
803,0,3.83135,-0.0627652,0.197524,0.696276
807,0,3.8325,-0.0654635,0.196309,0.690268
809,0,3.83272,-0.0704897,0.196163,0.681817
811,0,3.83337,-0.0681574,0.196868,0.68404
813,0,3.83454,-0.0662911,0.194245,0.679664
815,0,3.83309,-0.0717464,0.193816,0.675097
817,0,3.83215,-0.073835,0.196141,0.674094
819,0,3.83481,-0.0690291,0.19338,0.672061
821,0,3.83231,-0.0719935,0.193944,0.669883
823,0,3.83155,-0.0729109,0.193619,0.666222
825,0,3.83118,-0.0737748,0.194423,0.666622
827,0,3.83215,-0.0714729,0.193542,0.668671
829,0,3.83171,-0.0716891,0.193576,0.668204
831,0,3.83204,-0.0723357,0.193171,0.667956
833,0,3.83148,-0.0722396,0.193051,0.66768
835,0,3.83375,-0.0698572,0.191114,0.663493
837,0,3.84615,-0.101909,0.201531,0.650976
839,0,3.83097,-0.0737332,0.196052,0.673711
841,0,3.83409,-0.0706614,0.193655,0.669218
846,0,3.83274,-0.0722928,0.193097,0.669946
848,0,3.83256,-0.0705162,0.191577,0.662594
850,0,3.83269,-0.075632,0.191465,0.660842
852,0,3.83255,-0.0727495,0.191799,0.66243
854,0,3.8336,-0.069901,0.189232,0.658923
856,0,3.83307,-0.0725958,0.189994,0.656233
858,0,3.83188,-0.0780087,0.192399,0.657981
860,0,3.82825,-0.0803032,0.194779,0.661328
862,0,3.8317,-0.0763643,0.190224,0.653451
866,0,3.83266,-0.0727219,0.188033,0.648848
869,0,3.83246,-0.0756847,0.192383,0.659043
871,0,3.83497,-0.0722927,0.190918,0.661067
873,0,3.83532,-0.0744296,0.190954,0.665256
875,0,3.83614,-0.0701789,0.190272,0.663865
878,0,3.83374,-0.0686704,0.190653,0.66252
880,0,3.83405,-0.0702653,0.19071,0.663037
882,0,3.83101,-0.0709057,0.189294,0.65259
884,0,3.83321,-0.0736559,0.187014,0.647665
886,0,3.82962,-0.079288,0.188258,0.642867
888,0,3.83242,-0.0761911,0.19082,0.653069
890,0,3.83187,-0.0764032,0.188392,0.646465
892,0,3.83439,-0.0745181,0.188028,0.649044
894,0,3.83269,-0.0779434,0.190522,0.649311
896,0,3.83257,-0.0740223,0.188095,0.648341
898,0,3.83069,-0.0761668,0.188134,0.645203
900,0,3.83061,-0.082021,0.187775,0.640504
902,0,3.83156,-0.0772406,0.186068,0.638941
907,0,3.83161,-0.0766839,0.190002,0.649297
909,0,3.83231,-0.0771622,0.188076,0.643633
911,0,3.83063,-0.0767386,0.188542,0.643972
913,0,3.83481,-0.0769527,0.187719,0.643874
915,0,3.83047,-0.0764597,0.188383,0.643327
917,0,3.83275,-0.0755098,0.185929,0.635824
919,0,3.83062,-0.0792563,0.186694,0.633615
921,0,3.83382,-0.0773843,0.186763,0.636649
923,0,3.83399,-0.0730652,0.183362,0.635459
925,0,3.83172,-0.0805199,0.184263,0.62732
927,0,3.83069,-0.0816313,0.184501,0.628271
929,0,3.82954,-0.0809321,0.184802,0.627001
931,0,3.83344,-0.0791773,0.182242,0.62386
933,0,3.83079,-0.0823573,0.18334,0.620973
935,0,3.83184,-0.0824469,0.182274,0.621149
938,0,3.83146,-0.0818983,0.183779,0.620827
940,0,3.82977,-0.0820649,0.182865,0.620754
942,0,3.82994,-0.0847432,0.183396,0.618568
944,0,3.82769,-0.0810719,0.184809,0.614449
946,0,3.83222,-0.0812563,0.180842,0.613279
949,0,3.83003,-0.0827954,0.181191,0.617133
951,0,3.83044,-0.0832881,0.181189,0.611922
953,0,3.83065,-0.0861928,0.181023,0.611794
962,0,3.83345,-0.0784121,0.184092,0.631986
965,0,3.83122,-0.0780958,0.18439,0.631051
967,0,3.83271,-0.0773157,0.18274,0.62492
970,0,3.83066,-0.0845135,0.183655,0.620273
972,0,3.83065,-0.0848745,0.184375,0.620579
974,0,3.83312,-0.0790466,0.180677,0.618286
976,0,3.83099,-0.0819161,0.181593,0.615157
978,0,3.82913,-0.0874234,0.184682,0.617222
980,0,3.83165,-0.0819088,0.182159,0.622107
982,0,3.83012,-0.084727,0.182566,0.619551
984,0,3.83294,-0.0799063,0.180773,0.618011
986,0,3.83102,-0.0822678,0.183372,0.621466
988,0,3.83276,-0.076201,0.180226,0.619082
990,0,3.83127,-0.0798971,0.180553,0.61537
992,0,3.8327,-0.0811385,0.179166,0.611592
994,0,3.8346,-0.0752153,0.177856,0.613721
996,0,3.83015,-0.0814953,0.179399,0.611221
999,0,3.82596,-0.0838101,0.18241,0.613423
1001,0,3.82991,-0.0859229,0.180202,0.605928
1003,0,3.83158,-0.0814318,0.17971,0.611396
1006,0,3.83041,-0.0777625,0.182951,0.625132
1008,0,3.83284,-0.0795516,0.181621,0.622622
1010,0,3.83325,-0.0794253,0.180768,0.617925
1013,0,3.83252,-0.0768929,0.180041,0.619976
1015,0,3.82653,-0.0819075,0.184551,0.616066
1017,0,3.83229,-0.0849639,0.179112,0.611808
1020,0,3.83188,-0.0837024,0.178729,0.608179
1022,0,3.83056,-0.0838099,0.179357,0.60833
1024,0,3.83323,-0.0819014,0.175993,0.60215
1026,0,3.82969,-0.0843805,0.177661,0.601903
1028,0,3.83152,-0.0852035,0.177922,0.602029
1030,0,3.82963,-0.0844632,0.178002,0.601348
1032,0,3.8328,-0.088043,0.174851,0.59887
1034,0,3.82838,-0.0873303,0.178679,0.598688
1036,0,3.8317,-0.085281,0.177077,0.601694
1038,0,3.8312,-0.0825353,0.175431,0.597374
1040,0,3.82886,-0.0850752,0.175964,0.594552
1042,0,3.83002,-0.0860315,0.175892,0.593359
1044,0,3.82999,-0.0843266,0.175588,0.594451
1046,0,3.82887,-0.0867888,0.174537,0.588301
1048,0,3.82961,-0.0867219,0.173689,0.588651
1050,0,3.82997,-0.0899839,0.174834,0.586025
1052,0,3.82831,-0.0846965,0.175648,0.593256
1054,0,3.82854,-0.0892344,0.175946,0.59133
1059,0,3.83036,-0.0847597,0.17701,0.602467
1061,0,3.83091,-0.0844595,0.178155,0.602416
1064,0,3.83281,-0.0784517,0.174453,0.608967
1067,0,3.83057,-0.0847721,0.175093,0.598164
1069,0,3.83176,-0.088506,0.176081,0.598
1071,0,3.83099,-0.082604,0.175536,0.597669
1073,0,3.83085,-0.0824337,0.17512,0.597474
1075,0,3.831,-0.085048,0.174457,0.594037
1077,0,3.83206,-0.0827085,0.175022,0.596996
1079,0,3.83175,-0.079333,0.174261,0.599467
1081,0,3.82816,-0.0859721,0.175926,0.59463
1083,0,3.82775,-0.0868029,0.174395,0.588489
1085,0,3.83038,-0.0855805,0.173832,0.587621
1087,0,3.83046,-0.0836739,0.172977,0.590051
1089,0,3.83113,-0.0833208,0.171294,0.583668
1091,0,3.82859,-0.0873077,0.172569,0.581439
1093,0,3.83033,-0.0865272,0.174551,0.587467
1095,0,3.83165,-0.0837072,0.172032,0.590446
1097,0,3.83,-0.0842162,0.17034,0.583191
1099,0,3.8294,-0.0841735,0.171832,0.582673
1101,0,3.82949,-0.0840491,0.17201,0.582077
1109,0,3.829,-0.0834914,0.175042,0.595663
1111,0,3.8296,-0.0831012,0.173645,0.590803
1113,0,3.82976,-0.0862415,0.175219,0.595246
1115,0,3.82999,-0.0847889,0.173166,0.594081
1117,0,3.8287,-0.0853138,0.172889,0.587963
1119,0,3.82535,-0.0867014,0.175802,0.582712
1121,0,3.83096,-0.0827371,0.172535,0.590455
1123,0,3.82329,-0.0861196,0.176836,0.588659
1125,0,3.82803,-0.0889691,0.172897,0.584628
1127,0,3.8271,-0.0901316,0.173798,0.585353
1129,0,3.82943,-0.0833232,0.17359,0.588679
1131,0,3.8301,-0.0840229,0.171833,0.583394
1133,0,3.82972,-0.0808549,0.171258,0.584792
1135,0,3.83013,-0.0845968,0.171686,0.581905
1137,0,3.82948,-0.081413,0.171382,0.586717
1139,0,3.82632,-0.0846095,0.171319,0.583764
1141,0,3.82585,-0.0877956,0.170042,0.574344
1143,0,3.82953,-0.0898566,0.16948,0.573053
1145,0,3.82737,-0.0886764,0.170534,0.5749
1147,0,3.82687,-0.0934968,0.170372,0.575282
1149,0,3.82759,-0.0852509,0.167251,0.569229
1151,0,3.82562,-0.0909396,0.171023,0.570823
1153,0,3.82658,-0.091616,0.170353,0.571484
1157,0,3.82972,-0.0845503,0.169863,0.583305
1159,0,3.82588,-0.0886726,0.169928,0.575009
1161,0,3.8278,-0.0898758,0.167952,0.569003
1163,0,3.82874,-0.0885027,0.169442,0.574788
1165,0,3.82492,-0.0881202,0.170438,0.574133
1167,0,3.82952,-0.0868163,0.167015,0.570378
1169,0,3.82713,-0.0880546,0.1702,0.572755
1171,0,3.82907,-0.0854709,0.168297,0.575769
1173,0,3.82896,-0.0823488,0.16769,0.5724
1175,0,3.82688,-0.090105,0.167871,0.56769
1177,0,3.82578,-0.0924432,0.168095,0.564353
1179,0,3.82907,-0.0894599,0.166694,0.566654
1181,0,3.82512,-0.0943318,0.167811,0.567275
1183,0,3.82738,-0.0880884,0.165944,0.563246
1185,0,3.82577,-0.090349,0.166707,0.559749
1187,0,3.82708,-0.0892399,0.167103,0.56599
1189,0,3.82755,-0.0879802,0.166191,0.561468
1191,0,3.8275,-0.0880074,0.164093,0.553947
1193,0,3.82497,-0.0914462,0.164608,0.551471
1195,0,3.82737,-0.091889,0.162956,0.552027
1197,0,3.82913,-0.0871346,0.161231,0.55108
1199,0,3.82371,-0.0917576,0.165619,0.553218
1208,0,3.82686,-0.0868186,0.168286,0.569606
1210,0,3.82559,-0.0841864,0.16887,0.566999
1212,0,3.82575,-0.092761,0.169229,0.563418
1214,0,3.82964,-0.0839436,0.165451,0.564526
1216,0,3.82788,-0.0917867,0.165435,0.562733
1218,0,3.82461,-0.0839302,0.166574,0.557768
1220,0,3.82833,-0.0844872,0.163734,0.556211
1222,0,3.82905,-0.0855952,0.163376,0.55678
1224,0,3.82549,-0.0922114,0.162969,0.552226
1226,0,3.82619,-0.090461,0.162467,0.547644
1228,0,3.82776,-0.0925086,0.162695,0.544765
1230,0,3.82615,-0.0947964,0.164067,0.551696
1232,0,3.8268,-0.0862466,0.161621,0.548144
1234,0,3.82509,-0.0933972,0.162263,0.545714
1236,0,3.82376,-0.0966694,0.162913,0.543402
1238,0,3.82645,-0.0970896,0.162868,0.544251
1240,0,3.82628,-0.0905306,0.159486,0.541438
1242,0,3.82249,-0.0980635,0.161745,0.537104
1244,0,3.82661,-0.0916071,0.158089,0.533977
1246,0,3.82381,-0.104351,0.162447,0.536961
1248,0,3.82214,-0.0945013,0.16054,0.537623
1251,0,3.82584,-0.0929948,0.15857,0.533721
1253,0,3.82296,-0.101467,0.161396,0.533595
1257,0,3.82613,-0.081077,0.164944,0.565307
1259,0,3.82816,-0.085351,0.162521,0.556174
1261,0,3.8241,-0.0922027,0.164324,0.551184
1263,0,3.82677,-0.0919754,0.16406,0.551216
1265,0,3.82679,-0.088375,0.16395,0.553095
1267,0,3.82478,-0.0922471,0.164395,0.550989
1269,0,3.8281,-0.0904594,0.160759,0.547392
1271,0,3.82899,-0.0870479,0.161041,0.549353
1273,0,3.82671,-0.0873343,0.161625,0.55034
1275,0,3.82807,-0.0879163,0.158974,0.542774
1278,0,3.82375,-0.1,0.161063,0.539411
1280,0,3.82778,-0.0886735,0.159908,0.54105
1282,0,3.82841,-0.0869782,0.157531,0.536758
1284,0,3.82495,-0.091681,0.158251,0.533205
1286,0,3.82395,-0.09636,0.158862,0.531738
1288,0,3.82584,-0.0922279,0.157639,0.53268
1290,0,3.82443,-0.0964895,0.158824,0.531417
1292,0,3.82455,-0.0957785,0.157938,0.530947
1294,0,3.82309,-0.0956333,0.158321,0.531334
1296,0,3.82434,-0.0930433,0.156985,0.526755
1298,0,3.82254,-0.0987552,0.158142,0.528195
1300,0,3.8248,-0.0940373,0.156312,0.527429
1303,0,3.8222,-0.0966104,0.157429,0.524042
1309,0,3.82451,-0.0940082,0.158478,0.538247
1314,0,3.82133,-0.0958288,0.15883,0.531695
1316,0,3.82462,-0.0929034,0.155787,0.527072
1318,0,3.82482,-0.0946375,0.155901,0.526044
1320,0,3.82581,-0.090109,0.155885,0.528391
1322,0,3.82253,-0.093353,0.156701,0.527092
1325,0,3.82344,-0.0969859,0.155476,0.524888
1327,0,3.82206,-0.0970403,0.156952,0.524832
1329,0,3.82446,-0.0944019,0.156047,0.527899
1335,0,3.82354,-0.0884227,0.157905,0.53466
1337,0,3.82243,-0.0870681,0.158345,0.531218
1339,0,3.82424,-0.0902315,0.157083,0.533059
1341,0,3.825,-0.0928347,0.155958,0.533157
1343,0,3.82342,-0.092652,0.15515,0.525432
1345,0,3.82455,-0.0916014,0.153765,0.522415
1347,0,3.82589,-0.0908821,0.153417,0.521829
1350,0,3.82597,-0.0917593,0.152104,0.521856
1352,0,3.82259,-0.0974845,0.152902,0.515527
1354,0,3.81947,-0.0976822,0.154859,0.517129
1356,0,3.82258,-0.0982411,0.153708,0.516355
1358,0,3.82199,-0.0935052,0.151737,0.514709
1360,0,3.82377,-0.0941689,0.149748,0.507951
1362,0,3.8211,-0.0970515,0.150501,0.504528
1364,0,3.81957,-0.0978351,0.15116,0.505123
1366,0,3.82184,-0.0972817,0.150452,0.504706
1368,0,3.8194,-0.103674,0.151681,0.505913
1370,0,3.81922,-0.0969238,0.151131,0.504194
1372,0,3.82617,-0.0894669,0.147217,0.503759
1374,0,3.82397,-0.0950283,0.149113,0.505313
1376,0,3.82575,-0.088798,0.146732,0.504019
1378,0,3.82419,-0.0904159,0.147572,0.502245
1380,0,3.82461,-0.0924777,0.148101,0.50344
1385,0,3.82393,-0.0895648,0.150832,0.512958
1387,0,3.8223,-0.0904565,0.15218,0.509991
1389,0,3.82107,-0.0970439,0.151827,0.509934
1391,0,3.82209,-0.0941992,0.14888,0.505686
1393,0,3.82157,-0.0985848,0.148549,0.501038
1395,0,3.81955,-0.0985429,0.148439,0.495716
1397,0,3.82276,-0.0988311,0.148333,0.495724
1404,0,3.82608,-0.0898481,0.144681,0.50063
1406,0,3.82244,-0.0943854,0.145295,0.492629
1408,0,3.82268,-0.094152,0.143741,0.487265
1410,0,3.82064,-0.0976139,0.14395,0.48379
1412,0,3.82,-0.0990426,0.143677,0.484935
1414,0,3.81741,-0.103144,0.144241,0.481698
1416,0,3.81725,-0.103953,0.1441,0.482231
1418,0,3.82005,-0.0971209,0.142087,0.480552
1420,0,3.81834,-0.101249,0.142143,0.477507
1422,0,3.81302,-0.0985293,0.145282,0.477703
1424,0,3.81844,-0.102651,0.140472,0.473078
1426,0,3.81801,-0.100508,0.14274,0.476985
1428,0,3.82115,-0.0930592,0.139572,0.474403
1430,0,3.81814,-0.098313,0.139992,0.473005
1432,0,3.81458,-0.103081,0.141893,0.471552
1434,0,3.81886,-0.101448,0.13961,0.469551
1436,0,3.81827,-0.0991268,0.140165,0.472381
1439,0,3.82267,-0.100522,0.137725,0.467534
1441,0,3.82007,-0.0963711,0.13709,0.465351
1443,0,3.81672,-0.103196,0.140085,0.469871
1445,0,3.81836,-0.100626,0.139642,0.468471
1448,0,3.82085,-0.100123,0.135921,0.465408
1453,0,3.81539,-0.102974,0.14039,0.470461
1455,0,3.81858,-0.100995,0.137809,0.466142
1457,0,3.81678,-0.102083,0.13764,0.46142
1459,0,3.81659,-0.102816,0.137755,0.462135
1461,0,3.81336,-0.100985,0.139035,0.459232
1463,0,3.81421,-0.104529,0.136844,0.454099
1465,0,3.81567,-0.107172,0.135815,0.454523
1467,0,3.8171,-0.103335,0.134462,0.449988
1469,0,3.81621,-0.103684,0.134086,0.450294
1471,0,3.81412,-0.109052,0.134477,0.447375
1473,0,3.81462,-0.108863,0.133731,0.447259
1475,0,3.8141,-0.109064,0.13468,0.447488
1477,0,3.81293,-0.110617,0.13702,0.450884
1479,0,3.81957,-0.0997491,0.132355,0.449634
1481,0,3.81486,-0.108855,0.133,0.446601
1483,0,3.81796,-0.106038,0.13099,0.442362
1486,0,3.81575,-0.107273,0.134721,0.450976
1488,0,3.81468,-0.102489,0.133113,0.447814
1490,0,3.81636,-0.101377,0.131713,0.441573
1492,0,3.81069,-0.106711,0.13302,0.436835
1494,0,3.81442,-0.111421,0.133613,0.44284
1496,0,3.81706,-0.107192,0.132682,0.445566
1498,0,3.81594,-0.105461,0.132208,0.441672
1501,0,3.82051,-0.0917499,0.129606,0.450228
1503,0,3.81493,-0.104084,0.131298,0.440779
1505,0,3.81575,-0.10392,0.129444,0.437289
1507,0,3.81368,-0.110534,0.132063,0.438395
1509,0,3.80782,-0.110676,0.134122,0.439087
1512,0,3.81634,-0.10551,0.127055,0.429691
1514,0,3.81184,-0.10776,0.128346,0.425496
1516,0,3.81078,-0.112479,0.128139,0.422425
1518,0,3.81091,-0.112952,0.127706,0.422384
1520,0,3.81586,-0.107907,0.125194,0.421482
1522,0,3.81468,-0.106346,0.125375,0.420848
1524,0,3.80949,-0.117422,0.126827,0.418756
1526,0,3.81273,-0.112976,0.125067,0.417825
1528,0,3.80908,-0.112229,0.12657,0.417444
1530,0,3.81066,-0.111426,0.125554,0.417078
1532,0,3.81525,-0.102937,0.122904,0.415295
1534,0,3.81248,-0.108806,0.123582,0.412004
1536,0,3.81471,-0.104878,0.122868,0.415141
1538,0,3.8161,-0.103319,0.122433,0.414863
1540,0,3.81519,-0.108653,0.12161,0.411762
1542,0,3.81155,-0.109721,0.122633,0.411972
1544,0,3.81501,-0.109846,0.12398,0.412115
1546,0,3.81007,-0.111387,0.126517,0.416654
1548,0,3.81116,-0.115658,0.127668,0.414204
1553,0,3.8112,-0.10134,0.124966,0.421808
1565,0,3.81839,-0.103566,0.128902,0.435065
1567,0,3.81417,-0.107142,0.132542,0.439719
1569,0,3.8186,-0.0983287,0.131652,0.44589
1571,0,3.81594,-0.101545,0.133854,0.450212
1573,0,3.81541,-0.10122,0.13473,0.450405
1575,0,3.81876,-0.0954726,0.133332,0.45315
1577,0,3.81842,-0.0971987,0.133651,0.453433
1580,0,3.81368,-0.103182,0.137344,0.455527
1584,0,3.81514,-0.0781772,0.121253,0.440208
1586,0,3.8101,-0.102916,0.123709,0.414159
1591,0,3.81286,-0.219246,0.142756,0.359581
1593,0,3.81583,-0.11103,0.1242,0.409805
1597,0,3.81289,-0.104243,0.119313,0.406474
1604,0,3.81446,-0.109053,0.124359,0.410084
1606,0,3.81941,-0.0993156,0.122959,0.416202
1608,0,3.81516,-0.109695,0.125538,0.417241
1610,0,3.81751,-0.103504,0.125158,0.42083
1612,0,3.81523,-0.104358,0.126164,0.420539
1614,0,3.82042,-0.0998953,0.12431,0.424134
1616,0,3.81666,-0.103949,0.125829,0.420472
1618,0,3.81917,-0.1003,0.124853,0.423576
1620,0,3.81638,-0.101828,0.125991,0.420484
1622,0,3.81679,-0.107073,0.125921,0.425001
1626,0,3.81087,-0.114032,0.115548,0.385198
1631,0,3.81041,-0.129109,0.115509,0.373009
1636,0,3.81013,-0.121611,0.111222,0.368929
1638,0,3.81611,-0.103909,0.107789,0.366111
1641,0,3.80636,-0.127904,0.112663,0.358299
1644,0,3.81118,-0.102043,0.110167,0.372545
1646,0,3.81099,-0.109724,0.106139,0.353877
1648,0,3.80898,-0.113765,0.106461,0.353243
1651,0,3.81292,-0.114539,0.104422,0.346118
1656,0,3.80923,-0.110642,0.103637,0.348037
1658,0,3.8095,-0.115304,0.103835,0.344958
1662,0,3.81226,-0.123449,0.105734,0.338805
1666,0,3.81238,-0.11177,0.100487,0.344888
1668,0,3.8092,-0.118062,0.101981,0.336785
1674,0,3.81401,-0.117331,0.10549,0.35001
1679,0,3.81837,-0.166392,0.113903,0.339739
1682,0,3.8038,-0.125362,0.111555,0.347554
1687,0,3.81404,-0.110364,0.100328,0.341002
1690,0,3.80969,-0.117917,0.102213,0.336926
1693,0,3.81078,-0.122271,0.104244,0.334456
1697,0,3.81082,-0.108878,0.098786,0.335091
1699,0,3.80315,-0.116802,0.103039,0.329945
1704,0,3.80206,-0.140365,0.10296,0.31678
1709,0,3.8104,-0.126688,0.0960308,0.31888
1711,0,3.80906,-0.115533,0.0975177,0.322851
1715,0,3.80402,-0.137605,0.100939,0.311612
1721,0,3.81145,-0.115318,0.0932985,0.309784
1723,0,3.81027,-0.120158,0.0925377,0.307962
1731,0,3.80932,-0.112357,0.0954383,0.319988
1737,0,3.81114,-0.102508,0.0933293,0.324068
1739,0,3.80736,-0.118071,0.0939742,0.305673
1742,0,3.81241,-0.0986681,0.0921287,0.3189
1749,0,3.80935,-0.106805,0.0905168,0.307777
1751,0,3.81419,-0.122097,0.0866263,0.291429
1754,0,3.80777,-0.123062,0.087042,0.290135
1762,0,3.81076,-0.123154,0.0839674,0.284625
1764,0,3.80891,-0.12214,0.0860235,0.283922
1766,0,3.81607,-0.112343,0.0845445,0.288906
1768,0,3.80478,-0.138014,0.0882222,0.280338
1775,0,3.80636,-0.119539,0.085564,0.280603
1783,0,3.81078,-0.114407,0.0822151,0.2809
1789,0,3.80578,-0.118696,0.0833332,0.278967
1791,0,3.80762,-0.132789,0.0835854,0.272259
1793,0,3.80532,-0.131556,0.083118,0.271186
1797,0,3.80559,-0.138945,0.0853971,0.267807
1802,0,3.8091,-0.124426,0.078567,0.260686
1804,0,3.81181,-0.124967,0.0798855,0.26636
1806,0,3.81126,-0.124928,0.0795589,0.266209
1819,0,3.81078,-0.114457,0.0772006,0.267625
1822,0,3.81325,-0.102329,0.0762246,0.272571
1824,0,3.81707,-0.127896,0.075345,0.256719
1828,0,3.80968,-0.136106,0.0774435,0.247013
1833,0,3.8195,-0.116522,0.0698815,0.247858
1835,0,3.81201,-0.135175,0.0735791,0.242178
1837,0,3.80458,-0.132979,0.07556,0.24297
1841,0,3.80702,-0.150752,0.0740801,0.234981
1847,0,3.81673,-0.128487,0.0660161,0.230899
1856,0,3.80676,-0.154269,0.0709804,0.224452
1859,0,3.81386,-0.135635,0.0722402,0.241319
1865,0,3.80123,-0.152003,0.0743451,0.235124
1872,0,3.80474,-0.153142,0.0709503,0.225433
1874,0,3.80502,-0.143282,0.0711111,0.228425
1876,0,3.8128,-0.146334,0.0689667,0.228779
1880,0,3.81049,-0.149631,0.0704075,0.229445
1885,0,3.81532,-0.130773,0.0649332,0.22519
1887,0,3.80619,-0.152076,0.0676193,0.219649
1889,0,3.81667,-0.145779,0.0657942,0.223191
1895,0,3.81297,-0.161112,0.0662375,0.215462
1897,0,3.80826,-0.147079,0.0694905,0.228413
1899,0,3.80598,-0.147215,0.0710844,0.228814
1901,0,3.81093,-0.140379,0.0708048,0.232829
1903,0,3.8138,-0.14016,0.0701971,0.233073
1905,0,3.80746,-0.129173,0.0736445,0.237239
1907,0,3.80692,-0.142515,0.0729662,0.237842
1914,0,3.79837,-0.17235,0.0673843,0.206222
1918,0,3.82826,-0.118297,0.0560435,0.215559
1920,0,3.81535,-0.156145,0.0556893,0.190102
1923,0,3.83118,-0.103358,0.0520831,0.213874
1925,0,3.81579,-0.167172,0.0555336,0.185983
1927,0,3.81567,-0.160438,0.0546197,0.18508
1936,0,3.80884,-0.162203,0.0549924,0.185309
1938,0,3.81105,-0.188025,0.0528376,0.175691
1940,0,3.80759,-0.174708,0.0552997,0.180544
1942,0,3.80881,-0.176201,0.053961,0.180216
1947,0,3.80615,-0.193629,0.0553976,0.172664
1949,0,3.80913,-0.180981,0.0586489,0.191615
1951,0,3.79642,-0.164362,0.0641782,0.196622
1953,0,3.80773,-0.1585,0.061546,0.199953