File: calce_correlation_analysis/matrices/CALCE_CX2_34_cycle_feature_matrix.csv
cycle_number,rul,voltage,current,capacity,charge_capacity
8,535,3.82256,-0.058793,0.250489,0.87313
12,533,3.82193,-0.0556472,0.246636,0.876102
14,531,3.82426,-0.0579425,0.247955,0.868184
16,529,3.82536,-0.0599847,0.248105,0.865249
18,527,3.8242,-0.0576972,0.24938,0.871986
20,525,3.82488,-0.0584256,0.24609,0.860595
22,523,3.82332,-0.0622078,0.246905,0.861669
24,521,3.82478,-0.0616456,0.248086,0.866074
27,519,3.82266,-0.0607148,0.248788,0.866361
29,517,3.82387,-0.0572134,0.248062,0.864472
31,515,3.82414,-0.0574188,0.247517,0.86424
33,513,3.82343,-0.0574107,0.248096,0.863803
35,511,3.82393,-0.0574583,0.247823,0.86362
37,509,3.82348,-0.0575367,0.247814,0.86344
39,507,3.82104,-0.0538184,0.244245,0.861535
41,505,3.82603,-0.0596135,0.242762,0.850824
43,503,3.82138,-0.0615599,0.247056,0.849729
45,501,3.82482,-0.0593041,0.245967,0.855169
61,499,3.82149,-0.063275,0.246546,0.853924
63,497,3.82197,-0.0658493,0.244403,0.84934
65,495,3.82398,-0.0615941,0.242616,0.844078
67,493,3.82384,-0.0635915,0.243282,0.841439
69,491,3.82109,-0.0645518,0.243047,0.839963
71,489,3.82463,-0.0624113,0.240566,0.836955
73,487,3.82235,-0.064877,0.241056,0.834059
75,485,3.82456,-0.063005,0.240119,0.835528
77,483,3.82356,-0.0648164,0.240809,0.832936
79,481,3.82183,-0.0656004,0.241936,0.831127
81,479,3.8237,-0.0640019,0.239787,0.827012
83,477,3.82385,-0.064047,0.239129,0.827034
85,475,3.82392,-0.0641272,0.238997,0.827009
87,473,3.82212,-0.066108,0.24014,0.82362
89,471,3.82183,-0.0663546,0.239916,0.823957
91,469,3.82224,-0.0681649,0.238075,0.816858
95,467,3.82381,-0.0697925,0.239415,0.818976
97,465,3.82572,-0.0682574,0.241068,0.8195
99,463,3.82324,-0.0608382,0.236578,0.822299
107,461,3.82499,-0.0663499,0.243419,0.836916
109,459,3.8247,-0.0629105,0.240526,0.835179
111,457,3.82354,-0.0666695,0.244537,0.839293
113,455,3.82195,-0.0650096,0.241058,0.831804
115,453,3.82291,-0.0633657,0.241769,0.828692
117,451,3.82724,-0.0692921,0.242643,0.826913
119,449,3.82349,-0.0584537,0.237636,0.831926
121,447,3.82272,-0.0682964,0.240811,0.82058
124,445,3.82822,-0.0663854,0.240291,0.82224
126,443,3.82574,-0.0621532,0.23891,0.825778
128,441,3.82665,-0.0605607,0.238238,0.828418
130,439,3.82491,-0.0644274,0.239938,0.82919
132,437,3.82636,-0.0607751,0.238142,0.827347
134,435,3.8266,-0.0606162,0.238086,0.827586
136,433,3.8259,-0.0609773,0.23853,0.827077
141,431,3.82006,-0.0609005,0.235531,0.822961
143,429,3.82393,-0.0673359,0.236237,0.81425
145,427,3.82649,-0.0704672,0.237558,0.810609
147,425,3.82709,-0.0615748,0.236217,0.820794
156,423,3.8237,-0.0618414,0.238363,0.827888
158,421,3.82774,-0.0658633,0.241859,0.828448
161,419,3.82369,-0.0602383,0.240375,0.835269
163,417,3.82484,-0.05984,0.239786,0.834095
165,415,3.8236,-0.0658951,0.241193,0.832111
167,413,3.82434,-0.0600007,0.240217,0.833431
169,411,3.82353,-0.0624922,0.240244,0.830315
171,409,3.8236,-0.0625798,0.240511,0.830218
173,407,3.82248,-0.0623436,0.24095,0.829945
175,405,3.82484,-0.0628454,0.23916,0.829988
178,403,3.82431,-0.0650485,0.237588,0.815746
180,401,3.82473,-0.0672843,0.235155,0.813475
184,399,3.82026,-0.0618229,0.234902,0.819105
186,397,3.82439,-0.0659051,0.235224,0.808926
188,395,3.82372,-0.0641289,0.233184,0.805505
191,393,3.82324,-0.0586169,0.231323,0.810296
194,391,3.82214,-0.0665748,0.233443,0.803191
197,389,3.8245,-0.0663456,0.235686,0.807046
202,387,3.83641,-0.0619441,0.238472,0.834427
206,385,3.82287,-0.0613092,0.243784,0.835173
208,383,3.82505,-0.0617893,0.24054,0.833314
210,381,3.82439,-0.061899,0.240963,0.832597
212,379,3.82363,-0.0618529,0.240738,0.832352
214,377,3.82366,-0.0635357,0.241,0.828596
216,375,3.82281,-0.0643411,0.241255,0.828742
218,373,3.82256,-0.0641421,0.241202,0.828102
221,371,3.8226,-0.0667846,0.238097,0.815327
223,369,3.82535,-0.0653144,0.234979,0.810438
227,367,3.82135,-0.0656554,0.235066,0.810378
229,365,3.82541,-0.065771,0.233697,0.803154
231,363,3.82579,-0.0720618,0.237159,0.802715
233,361,3.82568,-0.0639285,0.23394,0.811272
236,359,3.82652,-0.0633492,0.230149,0.801444
238,357,3.82259,-0.0726756,0.235312,0.795477
242,355,3.8241,-0.068784,0.232424,0.793767
244,353,3.82509,-0.0688034,0.231024,0.793408
246,351,3.82462,-0.0705974,0.23489,0.795527
248,349,3.82044,-0.0671333,0.230299,0.795514
254,347,3.82313,-0.0707883,0.23431,0.795506
256,345,3.82403,-0.0683129,0.233876,0.797825
258,343,3.82422,-0.0688434,0.23363,0.797159
260,341,3.82548,-0.0664145,0.232737,0.800032
262,339,3.82426,-0.0669058,0.233628,0.800015
264,337,3.82525,-0.066746,0.232842,0.799838
266,335,3.82455,-0.0666937,0.233424,0.799431
268,333,3.82418,-0.0668709,0.233638,0.799039
270,331,3.823,-0.0695006,0.22965,0.785339
272,329,3.82575,-0.0678291,0.227854,0.781578
274,327,3.82884,-0.072023,0.231267,0.78118
277,325,3.82282,-0.0697773,0.228021,0.778154
279,323,3.82277,-0.0722293,0.22863,0.775774
281,321,3.82769,-0.0730114,0.23093,0.780717
284,319,3.82604,-0.0645296,0.224466,0.778509
286,317,3.82369,-0.0707492,0.226403,0.771911
288,315,3.82768,-0.0746326,0.229525,0.773829
291,313,3.82304,-0.0681774,0.225471,0.774157
293,311,3.82087,-0.074925,0.22967,0.773197
295,309,3.82784,-0.0720729,0.226723,0.770741
297,307,3.82648,-0.0676985,0.227713,0.779151
308,305,3.82381,-0.0645144,0.237468,0.814238
311,303,3.82509,-0.0670237,0.237337,0.811645
313,301,3.82527,-0.0610997,0.236555,0.818789
315,299,3.82398,-0.0671,0.236422,0.811055
317,297,3.82458,-0.0635933,0.234753,0.809611
319,295,3.82335,-0.0650292,0.237541,0.812611
321,293,3.82174,-0.063644,0.234123,0.809767
323,291,3.82694,-0.0622049,0.232591,0.805562
333,289,3.82954,-0.0680352,0.231971,0.792159
335,287,3.82657,-0.0649462,0.231391,0.794659
337,285,3.82414,-0.0669674,0.233653,0.798516
339,283,3.82576,-0.0645616,0.232317,0.800825
342,281,3.82347,-0.0669211,0.233692,0.79784
344,279,3.82367,-0.0668976,0.233494,0.797755
346,277,3.82678,-0.0635641,0.230814,0.79634
348,275,3.82657,-0.0634493,0.23087,0.796239
353,273,3.82764,-0.066527,0.225872,0.7815
356,271,3.82402,-0.0633309,0.228459,0.79019
358,269,3.82499,-0.0699893,0.228389,0.776876
361,267,3.82867,-0.074421,0.229173,0.771928
367,265,3.81807,-0.335112,0.305835,0.495921
369,263,3.8261,-0.0706885,0.226436,0.771054
374,261,3.82725,-0.0690825,0.225839,0.772849
376,259,3.82545,-0.0707742,0.226185,0.771278
380,257,3.82155,-0.0668103,0.224967,0.77571
382,255,3.8254,-0.0690929,0.22407,0.766198
384,253,3.82608,-0.0701327,0.223882,0.765033
387,251,3.82523,-0.0604033,0.221676,0.776591
389,249,3.82529,-0.0733581,0.226379,0.767017
391,247,3.82588,-0.0731708,0.224766,0.766264
393,245,3.82665,-0.0687272,0.226103,0.770616
395,243,3.82303,-0.0712877,0.225039,0.768996
397,241,3.82666,-0.0696034,0.224245,0.764942
399,239,3.82346,-0.0754849,0.227738,0.762992
401,237,3.82639,-0.0691113,0.226004,0.770436
403,235,3.8228,-0.0689085,0.229204,0.771193
405,233,3.82723,-0.0667832,0.225346,0.772891
407,231,3.82677,-0.0671351,0.2257,0.77254
409,229,3.82405,-0.0709663,0.228069,0.773486
411,227,3.82668,-0.0661432,0.225696,0.771916
413,225,3.82697,-0.066883,0.225227,0.772548
415,223,3.82699,-0.0669304,0.225141,0.772469
417,221,3.83556,-0.0801695,0.229164,0.759889
419,219,3.82872,-0.0745579,0.226633,0.765821
422,217,3.82515,-0.0667049,0.222908,0.768054
424,215,3.82619,-0.0704004,0.22399,0.763291
426,213,3.82516,-0.0697631,0.226708,0.764758
428,211,3.82567,-0.0698862,0.225877,0.76804
430,209,3.82705,-0.069582,0.221878,0.75772
432,207,3.82633,-0.0698391,0.222122,0.757442
434,205,3.8281,-0.0716432,0.224789,0.760613
436,203,3.82571,-0.0631321,0.22037,0.764384
438,201,3.82687,-0.07205,0.222235,0.754366
440,199,3.82436,-0.0723362,0.222259,0.754326
442,197,3.82581,-0.0717062,0.223907,0.760449
445,195,3.82529,-0.074685,0.222892,0.75189
447,193,3.82585,-0.0722061,0.221549,0.75466
449,191,3.8264,-0.0729657,0.223361,0.758383
451,189,3.82406,-0.0711832,0.224827,0.759881
453,187,3.8254,-0.0712503,0.223784,0.759634
455,185,3.82566,-0.0690832,0.224007,0.762648
457,183,3.82543,-0.0687555,0.22423,0.761973
459,181,3.82556,-0.0695451,0.224243,0.7623
461,179,3.8268,-0.0697079,0.223205,0.762198
463,177,3.8247,-0.0713069,0.225191,0.76626
465,175,3.82668,-0.0633953,0.220249,0.763841
470,173,3.82874,-0.0712172,0.22119,0.755458
473,171,3.82632,-0.0728581,0.220613,0.748416
475,169,3.82595,-0.0727285,0.220574,0.74738
477,167,3.82714,-0.0708806,0.221853,0.75489
479,165,3.82295,-0.0703365,0.21954,0.749751
481,163,3.82664,-0.0724237,0.220237,0.747138
483,161,3.82461,-0.0724535,0.220569,0.746642
485,159,3.82556,-0.071291,0.222025,0.754161
487,157,3.82639,-0.0707737,0.218573,0.743213
489,155,3.82443,-0.0749987,0.220729,0.74447
491,153,3.82771,-0.0771628,0.220954,0.745358
493,151,3.82256,-0.0719429,0.225178,0.754043
496,149,3.82617,-0.0709138,0.219934,0.750621
498,147,3.82595,-0.0706304,0.220485,0.748806
500,145,3.82611,-0.0703169,0.222034,0.755343
502,143,3.82481,-0.0742055,0.223146,0.756138
504,141,3.82672,-0.0703383,0.221752,0.754608
507,139,3.82587,-0.0681949,0.221517,0.758495
509,137,3.82749,-0.0678622,0.221435,0.757264
512,135,3.82729,-0.0681593,0.221511,0.757405
514,133,3.82755,-0.0684041,0.221216,0.75707
516,131,3.82491,-0.0724765,0.223334,0.758178
518,129,3.82785,-0.0677289,0.221274,0.75972
520,127,3.82712,-0.0691923,0.223658,0.762432
522,125,3.82637,-0.0652345,0.221061,0.761155
524,123,3.82683,-0.0699428,0.222056,0.755715
526,121,3.82596,-0.0698028,0.221838,0.755235
528,119,3.82528,-0.0695714,0.224042,0.761239
530,117,3.82486,-0.0701342,0.221959,0.754714
532,115,3.8271,-0.0686184,0.221053,0.755953
534,113,3.82794,-0.0727288,0.222407,0.752136
536,111,3.82715,-0.0682213,0.221343,0.756936
538,109,3.82734,-0.068247,0.219512,0.750706
543,107,3.83157,-0.076025,0.223704,0.749202
547,105,3.82858,-0.0695586,0.217473,0.744418
549,103,3.82818,-0.0721133,0.217619,0.742276
553,101,3.82155,-0.0687469,0.216378,0.745177
555,99,3.82792,-0.07014,0.215629,0.738161
557,97,3.8257,-0.0742295,0.215703,0.732705
560,95,3.82586,-0.0644835,0.214253,0.742718
562,93,3.82791,-0.0737559,0.214426,0.728592
564,91,3.82562,-0.0737157,0.214265,0.728722
571,89,3.82709,-0.0753765,0.216601,0.731203
573,87,3.82594,-0.0748759,0.216555,0.73128
575,85,3.82711,-0.0740022,0.215952,0.732605
577,83,3.8262,-0.0738932,0.216693,0.732194
579,81,3.82584,-0.0738462,0.216702,0.731949
581,79,3.83049,-0.0690243,0.212928,0.732297
583,77,3.82967,-0.073504,0.213272,0.730769
585,75,3.82933,-0.0713361,0.213917,0.729208
587,73,3.82725,-0.0724126,0.214953,0.727717
589,71,3.82878,-0.0723844,0.213611,0.727937
593,69,3.82912,-0.071408,0.21492,0.735547
595,67,3.82708,-0.0731114,0.216582,0.733874
597,65,3.82942,-0.0700827,0.215179,0.736252
599,63,3.82768,-0.0714603,0.215124,0.734459
601,61,3.82543,-0.0739039,0.216969,0.731909
603,59,3.82872,-0.0716573,0.214026,0.728556
605,57,3.82588,-0.0691868,0.214601,0.734318
607,55,3.82938,-0.0694988,0.211525,0.725694
609,53,3.82705,-0.0744169,0.212787,0.720209
611,51,3.82691,-0.07717,0.212939,0.717349
614,49,3.82736,-0.0743261,0.212234,0.720016
616,47,3.8285,-0.0718879,0.20918,0.716533
618,45,3.82659,-0.0756642,0.210488,0.711761
620,43,3.82589,-0.0776371,0.211112,0.711242
622,41,3.82853,-0.0730562,0.208413,0.71064
624,39,3.82777,-0.0753038,0.208678,0.708161
626,37,3.82643,-0.0775864,0.209423,0.705185
628,35,3.82903,-0.0750364,0.208167,0.707884
630,33,3.82899,-0.0753174,0.208288,0.707636
632,31,3.82853,-0.0780306,0.208223,0.704811
634,29,3.82676,-0.0777909,0.209302,0.704731
636,27,3.82649,-0.0780579,0.209363,0.704613
638,25,3.82651,-0.0770425,0.208874,0.704579
640,23,3.84263,-0.0952592,0.216463,0.695611
642,21,3.82892,-0.0745613,0.210595,0.715059
644,19,3.82841,-0.077875,0.210988,0.711909
649,17,3.8273,-0.0770471,0.210393,0.711812
651,15,3.82841,-0.0757674,0.20828,0.708451
653,13,3.82678,-0.0780505,0.20954,0.705795
655,11,3.82699,-0.0826893,0.209748,0.705848
657,9,3.8283,-0.0763148,0.206841,0.701405
659,7,3.82924,-0.0764738,0.206061,0.701594
661,5,3.82863,-0.0783097,0.207346,0.698274
663,3,3.82864,-0.0754434,0.206683,0.700603
665,1,3.82651,-0.0785231,0.206938,0.698546
670,0,3.82266,-0.0828538,0.210831,0.693825
672,0,3.82564,-0.0808091,0.209899,0.700825
674,0,3.82686,-0.078424,0.209202,0.703318
676,0,3.82959,-0.0783212,0.207002,0.703042
679,0,3.82617,-0.075907,0.208848,0.707516
681,0,3.82818,-0.0764009,0.208216,0.70562
683,0,3.82637,-0.0772767,0.208615,0.702829
685,0,3.83001,-0.0792047,0.204381,0.694638
687,0,3.82881,-0.079084,0.203304,0.691038
690,0,3.8368,-0.0943101,0.211641,0.684016
692,0,3.82849,-0.0734956,0.204247,0.697149
695,0,3.82863,-0.0769378,0.204656,0.695903
697,0,3.82961,-0.0771212,0.205349,0.693728
699,0,3.82949,-0.0749125,0.204136,0.695894
701,0,3.82968,-0.0769447,0.203856,0.693607
703,0,3.82871,-0.0774363,0.203364,0.687156
705,0,3.82627,-0.0758076,0.205495,0.688087
709,0,3.83006,-0.0755078,0.204,0.690179
711,0,3.82755,-0.0784117,0.204882,0.688789
713,0,3.82694,-0.0824173,0.205164,0.686978
715,0,3.82825,-0.0799346,0.203167,0.68326
717,0,3.82653,-0.0814526,0.206068,0.687012
719,0,3.82805,-0.0798605,0.202433,0.683487
721,0,3.82837,-0.0777626,0.201566,0.679914
723,0,3.82921,-0.0784049,0.201209,0.680417
725,0,3.82561,-0.0796375,0.203688,0.683313
727,0,3.82589,-0.0812032,0.201719,0.678112
729,0,3.82795,-0.0820251,0.199523,0.67511
731,0,3.82881,-0.0814552,0.199927,0.671435
733,0,3.82604,-0.0813906,0.20014,0.670716
735,0,3.82523,-0.0837512,0.200202,0.668382
737,0,3.8248,-0.0844175,0.200149,0.668788
740,0,3.8263,-0.0806601,0.199535,0.670968
742,0,3.82914,-0.0771962,0.196835,0.670141
744,0,3.82753,-0.0820631,0.197741,0.664714
746,0,3.82656,-0.0818737,0.198246,0.664609
748,0,3.82358,-0.0799487,0.200835,0.665127
751,0,3.82733,-0.0815933,0.196068,0.666909
753,0,3.82827,-0.0797255,0.195936,0.660851
755,0,3.82891,-0.0787763,0.195574,0.660544
757,0,3.82608,-0.0820486,0.198557,0.664205
759,0,3.88084,0.0178189,0.173814,0.706379
761,0,3.82575,-0.0859581,0.204218,0.678068
763,0,3.82888,-0.0808538,0.201209,0.677543
765,0,3.82765,-0.0847314,0.201836,0.67876
767,0,3.82562,-0.0785086,0.201291,0.677207
769,0,3.82735,-0.0809689,0.19989,0.671862
772,0,3.82721,-0.0846095,0.198888,0.669857
774,0,3.82647,-0.0835645,0.200525,0.669328
776,0,3.82717,-0.0826102,0.197814,0.665581
778,0,3.82633,-0.0806192,0.198016,0.664841
780,0,3.82811,-0.0819259,0.197335,0.662956
782,0,3.82702,-0.0821483,0.198064,0.664483
784,0,3.82798,-0.0801197,0.196983,0.663797
786,0,3.82571,-0.0817879,0.198355,0.664417
788,0,3.82801,-0.0819186,0.198615,0.663968
790,0,3.82777,-0.0797264,0.19712,0.666376
792,0,3.82715,-0.0820829,0.19734,0.664377
794,0,3.82615,-0.0834757,0.19629,0.657992
796,0,3.82818,-0.0808802,0.195272,0.660433
798,0,3.82647,-0.0800533,0.1952,0.660126
800,0,3.82387,-0.0858076,0.196536,0.655179
803,0,3.82537,-0.0857855,0.196934,0.655197
805,0,3.82648,-0.0818578,0.196542,0.656594
807,0,3.82906,-0.0788683,0.193698,0.656144
809,0,3.82838,-0.0781904,0.196969,0.666481
811,0,3.82914,-0.0794772,0.197062,0.667028
813,0,3.82688,-0.0803586,0.198285,0.662763
816,0,3.82747,-0.077514,0.197138,0.668554
818,0,3.8264,-0.0824888,0.19767,0.663553
820,0,3.82839,-0.0803072,0.195279,0.659402
822,0,3.82721,-0.0807705,0.195809,0.659574
825,0,3.82517,-0.0828919,0.196252,0.658822
827,0,3.82747,-0.0809754,0.193214,0.653334
829,0,3.82586,-0.0846673,0.194477,0.650693
831,0,3.82801,-0.0812349,0.193858,0.652979
833,0,3.82811,-0.0813787,0.193348,0.652827
835,0,3.8256,-0.0833282,0.194478,0.649885
837,0,3.82748,-0.0827508,0.194396,0.649646
839,0,3.82921,-0.0814157,0.193891,0.652677
841,0,3.82523,-0.0838024,0.194406,0.649881
843,0,3.82742,-0.0818285,0.191921,0.646504
845,0,3.82899,-0.0816049,0.191983,0.646266
847,0,3.82778,-0.0816172,0.191801,0.645739
849,0,3.8249,-0.0854075,0.192237,0.643861
851,0,3.82726,-0.0823752,0.190317,0.639728
853,0,3.82733,-0.0875993,0.193106,0.640742
855,0,3.82515,-0.0867113,0.195188,0.648359
857,0,3.82488,-0.0825405,0.194626,0.646629
859,0,3.82713,-0.0808907,0.193744,0.652752
861,0,3.8279,-0.0839778,0.193827,0.649969
863,0,3.82476,-0.087633,0.195127,0.647228
865,0,3.82829,-0.0837687,0.193932,0.649402
867,0,3.82499,-0.0841377,0.194138,0.649857
869,0,3.82877,-0.0814867,0.19176,0.64574
871,0,3.82806,-0.0843856,0.192675,0.643243
873,0,3.82558,-0.0859382,0.194111,0.646319
875,0,3.82595,-0.0866207,0.193373,0.646754
877,0,3.8283,-0.0815112,0.191503,0.645412
879,0,3.82648,-0.0869802,0.193492,0.646346
881,0,3.82865,-0.07978,0.191228,0.647965
883,0,3.82596,-0.0884813,0.191854,0.643494
885,0,3.82499,-0.085825,0.190972,0.63617
888,0,3.82739,-0.0829786,0.189524,0.641334
890,0,3.82721,-0.0823332,0.188859,0.63862
892,0,3.82665,-0.0881121,0.188528,0.633532
894,0,3.82425,-0.088948,0.190365,0.633933
896,0,3.82673,-0.0818287,0.18986,0.637586
898,0,3.82503,-0.085182,0.190208,0.635298
900,0,3.82512,-0.0885567,0.189516,0.633465
902,0,3.82365,-0.0906654,0.19022,0.630228
904,0,3.82593,-0.0868677,0.188264,0.629303
909,0,3.8267,-0.0872111,0.192723,0.645262
911,0,3.82609,-0.0829981,0.190973,0.639925
913,0,3.82671,-0.086779,0.191839,0.638971
915,0,3.82855,-0.0853076,0.190392,0.635395
917,0,3.82415,-0.0844566,0.195392,0.643459
919,0,3.82801,-0.0827724,0.188044,0.63795
921,0,3.82813,-0.0837101,0.18799,0.63226
923,0,3.82811,-0.0883607,0.190172,0.632739
925,0,3.828,-0.0842617,0.190635,0.634601
927,0,3.82525,-0.0853725,0.190144,0.635145
929,0,3.82455,-0.0882076,0.190636,0.632297
931,0,3.82724,-0.0859651,0.190187,0.635339
933,0,3.82384,-0.0853566,0.190303,0.635005
935,0,3.82481,-0.0859817,0.190602,0.635117
937,0,3.82724,-0.0838506,0.187767,0.631036
939,0,3.82786,-0.0834474,0.18812,0.630553
941,0,3.82735,-0.0839472,0.188319,0.628173
943,0,3.82613,-0.0845113,0.186492,0.62453
945,0,3.82706,-0.0858891,0.184039,0.618595
947,0,3.82591,-0.0873706,0.186364,0.62205
949,0,3.82568,-0.0877102,0.186558,0.621774
951,0,3.824,-0.0874497,0.187002,0.621696
953,0,3.82386,-0.0931853,0.187,0.615854
955,0,3.82588,-0.0843893,0.184844,0.616841
957,0,3.82701,-0.0902188,0.183733,0.61871
960,0,3.82776,-0.0843067,0.185685,0.62461
962,0,3.82432,-0.0865107,0.186519,0.62128
964,0,3.8254,-0.088906,0.184499,0.615285
966,0,3.82422,-0.0910374,0.186868,0.618493
968,0,3.82364,-0.0882029,0.186641,0.621146
970,0,3.82369,-0.0906858,0.18591,0.61828
972,0,3.82781,-0.0861538,0.184469,0.617328
974,0,3.82647,-0.0851691,0.184222,0.616402
976,0,3.82228,-0.0886107,0.187357,0.616272
978,0,3.82365,-0.0880389,0.185173,0.613393
980,0,3.82247,-0.0911148,0.185621,0.610847
982,0,3.82419,-0.0887496,0.18517,0.613197
984,0,3.82282,-0.0882796,0.184794,0.613049
986,0,3.82614,-0.0864551,0.182248,0.609452
989,0,3.82645,-0.0901592,0.183,0.609854
995,0,3.82644,-0.0807914,0.185145,0.62097
997,0,3.82723,-0.084119,0.183824,0.615662
1000,0,3.82743,-0.0918006,0.184124,0.614752
1002,0,3.82853,-0.0830275,0.183179,0.616006
1004,0,3.82393,-0.0840343,0.184373,0.61268
1006,0,3.82452,-0.0883767,0.183312,0.61111
1008,0,3.82387,-0.0890599,0.183358,0.604371
1010,0,3.826,-0.0873046,0.182399,0.60722
1012,0,3.82494,-0.0832722,0.179658,0.602293
1014,0,3.82433,-0.0880372,0.179719,0.59821
1016,0,3.82506,-0.0907769,0.17978,0.598456
1018,0,3.82577,-0.0875964,0.180637,0.600323
1020,0,3.82392,-0.0882776,0.180565,0.600729
1022,0,3.82239,-0.0847993,0.180994,0.597947
1024,0,3.82556,-0.0886378,0.177542,0.594127
1026,0,3.82536,-0.0889284,0.178204,0.594179
1028,0,3.82581,-0.0881158,0.176408,0.593391
1030,0,3.8252,-0.0864757,0.176113,0.590232
1032,0,3.8229,-0.089678,0.177019,0.58719
1034,0,3.82548,-0.089787,0.176737,0.587707
1037,0,3.82217,-0.0906486,0.177363,0.590513
1039,0,3.8257,-0.089375,0.17498,0.587291
1041,0,3.82346,-0.0922531,0.176932,0.583786
1043,0,3.82404,-0.0800774,0.185942,0.620554
1045,0,3.82382,-0.0857838,0.184068,0.612318
1047,0,3.8264,-0.0818279,0.181591,0.60777
1049,0,3.82523,-0.0874867,0.18212,0.606828
1051,0,3.82641,-0.0838551,0.181626,0.609292
1053,0,3.828,-0.0840523,0.179494,0.609276
1055,0,3.82711,-0.0876905,0.179571,0.606681
1057,0,3.8242,-0.0905264,0.181697,0.604585
1059,0,3.82904,-0.0815365,0.178649,0.605742
1061,0,3.82516,-0.0856741,0.179717,0.602832
1063,0,3.82604,-0.0867909,0.177027,0.596322
1065,0,3.82255,-0.0887765,0.179002,0.593299
1067,0,3.825,-0.0862907,0.177608,0.596043
1069,0,3.82712,-0.0887875,0.174996,0.593668
1071,0,3.824,-0.0870987,0.176031,0.589694
1073,0,3.82183,-0.0885322,0.177124,0.58594
1075,0,3.82612,-0.0890279,0.174312,0.586294
1077,0,3.8249,-0.0852342,0.176463,0.588572
1079,0,3.82789,-0.0865686,0.173751,0.589152
1081,0,3.82377,-0.0901662,0.176112,0.586676
1083,0,3.82773,-0.085131,0.173081,0.58543
1085,0,3.82343,-0.0937919,0.1759,0.583514
1087,0,3.82548,-0.0878063,0.173784,0.581742
1089,0,3.8221,-0.0875947,0.176749,0.583098
1091,0,3.8269,-0.0895213,0.174508,0.58572
1094,0,3.8282,-0.0860557,0.174755,0.588949
1096,0,3.8278,-0.0851085,0.173932,0.584999
1099,0,3.82711,-0.0853123,0.174743,0.587419
1101,0,3.82606,-0.0874548,0.17393,0.581102
1103,0,3.82788,-0.0841442,0.171354,0.576162
1105,0,3.827,-0.0919166,0.171064,0.570927
1107,0,3.82834,-0.0889553,0.170603,0.573689
1109,0,3.82675,-0.0887679,0.171481,0.570557
1125,0,3.82476,-0.0899929,0.17392,0.575646
1127,0,3.8267,-0.0928405,0.174729,0.572423
1129,0,3.83098,-0.0828804,0.170364,0.574438
1132,0,3.82825,-0.0821103,0.168024,0.573488
1134,0,3.82606,-0.0930649,0.168618,0.561852
1136,0,3.82905,-0.0864278,0.167007,0.559954
1138,0,3.82605,-0.0901188,0.168639,0.556783
1140,0,3.8268,-0.0871391,0.165812,0.552463
1142,0,3.82364,-0.0908584,0.166822,0.550035
1144,0,3.82452,-0.0942967,0.167596,0.547795
1146,0,3.82434,-0.0949736,0.16676,0.547478
1148,0,3.82273,-0.0980305,0.165261,0.544001
1150,0,3.82234,-0.0955545,0.164582,0.539687
1152,0,3.82253,-0.0974178,0.164474,0.537565
1154,0,3.82098,-0.0987381,0.165197,0.536865
1156,0,3.82695,-0.0919496,0.161657,0.536162
1158,0,3.82556,-0.0929481,0.162797,0.534585
1160,0,3.82075,-0.0932756,0.165515,0.536774
1162,0,3.82616,-0.0909717,0.162442,0.53669
1164,0,3.82632,-0.0936856,0.162076,0.535173
1166,0,3.82663,-0.0917311,0.16075,0.535903
1168,0,3.82505,-0.0927392,0.162279,0.534896
1178,0,3.82667,-0.0837151,0.169643,0.570778
1180,0,3.82522,-0.0845005,0.167542,0.564191
1182,0,3.82688,-0.0856941,0.165818,0.557482
1184,0,3.82523,-0.087859,0.166147,0.554107
1186,0,3.8264,-0.089223,0.166122,0.554576
1190,0,3.82343,-0.0916236,0.1674,0.555891
1192,0,3.82561,-0.0886232,0.16428,0.547541
1194,0,3.82278,-0.0888294,0.165734,0.548686
1196,0,3.8214,-0.0961017,0.16516,0.541922
1198,0,3.82441,-0.0905913,0.162236,0.540987
1200,0,3.82181,-0.0911872,0.164309,0.539755
1202,0,3.82611,-0.0912629,0.160129,0.533492
1204,0,3.82509,-0.0970503,0.160734,0.534668
1206,0,3.82132,-0.0913273,0.163742,0.5326
1208,0,3.82262,-0.0948943,0.161126,0.529914
1210,0,3.82442,-0.0976547,0.159645,0.526481
1212,0,3.82185,-0.0986349,0.161976,0.5268
1215,0,3.82784,-0.0926889,0.158508,0.535291
1217,0,3.82361,-0.0981531,0.158571,0.527031
1219,0,3.82153,-0.0957014,0.161374,0.523725
1221,0,3.82324,-0.100116,0.160557,0.524362
1223,0,3.82225,-0.101527,0.162038,0.523424
1225,0,3.82785,-0.0934741,0.155985,0.523581
1227,0,3.82371,-0.0937968,0.15868,0.523663
1229,0,3.82643,-0.0973971,0.158176,0.521031
1231,0,3.82608,-0.096199,0.157392,0.521975
1233,0,3.82529,-0.0925551,0.157885,0.524924
1235,0,3.8246,-0.0942617,0.158404,0.522853
1237,0,3.81971,-0.0966869,0.161427,0.523028
1243,0,3.82357,-0.0956064,0.160803,0.530205
1245,0,3.82761,-0.0907219,0.157583,0.526397
1247,0,3.82649,-0.0932221,0.158149,0.526113
1249,0,3.82256,-0.0959859,0.159239,0.522459
1251,0,3.82323,-0.0989062,0.157966,0.519139
1253,0,3.82521,-0.0945224,0.156765,0.518874
1255,0,3.82654,-0.0919153,0.155925,0.51916
1257,0,3.82237,-0.0972884,0.157182,0.515366
1259,0,3.82267,-0.0970597,0.156655,0.515179
1261,0,3.82178,-0.0994478,0.15713,0.51319
1263,0,3.8204,-0.10151,0.158145,0.512823
1266,0,3.82731,-0.0859684,0.1556,0.526659
1268,0,3.8237,-0.0971792,0.156497,0.514928
1270,0,3.82208,-0.0973571,0.157282,0.515377
1272,0,3.82458,-0.0965421,0.156668,0.51514
1274,0,3.82117,-0.0991353,0.159825,0.518316
1276,0,3.82335,-0.0935417,0.156459,0.517451
1278,0,3.82307,-0.0930231,0.156171,0.515989
1280,0,3.82071,-0.101396,0.157717,0.512474
1282,0,3.82661,-0.0933992,0.15512,0.517397
1284,0,3.82621,-0.0895181,0.155838,0.519611
1286,0,3.82511,-0.0929717,0.156379,0.51676
1291,0,3.82401,-0.0919164,0.157274,0.529579
1293,0,3.82716,-0.0919144,0.155257,0.519301
1295,0,3.82593,-0.0934447,0.156818,0.517875
1297,0,3.8283,-0.0868966,0.154884,0.521678
1299,0,3.82706,-0.0889177,0.153481,0.514825
1301,0,3.82491,-0.0932323,0.153949,0.511813
1303,0,3.82338,-0.0969452,0.154967,0.508903
1305,0,3.82356,-0.0963963,0.154076,0.508811
1307,0,3.82371,-0.0955198,0.153735,0.509269
1309,0,3.82306,-0.0963945,0.153984,0.509019
1311,0,3.82633,-0.0922087,0.151663,0.50632
1313,0,3.82602,-0.0931556,0.151968,0.50491
1315,0,3.82383,-0.0947189,0.152621,0.50414
1318,0,3.82539,-0.0935656,0.151664,0.509597
1320,0,3.82342,-0.0982751,0.152394,0.501434
1322,0,3.82126,-0.100339,0.153759,0.500529
1324,0,3.82729,-0.0978449,0.149852,0.501115
1326,0,3.82317,-0.0980392,0.151919,0.501089
1328,0,3.82663,-0.0923828,0.14957,0.49966
1330,0,3.82713,-0.0944296,0.149937,0.497209
1332,0,3.82479,-0.0917443,0.152501,0.503656
1335,0,3.82384,-0.099523,0.155475,0.511562
1337,0,3.82757,-0.0895676,0.156636,0.518439
1341,0,3.82497,-0.0934776,0.157474,0.517299
1351,0,3.82375,-0.098091,0.162397,0.524927
1353,0,3.82502,-0.0903225,0.162831,0.537539
1355,0,3.82961,-0.0852153,0.160814,0.540881
1357,0,3.82908,-0.0872601,0.162363,0.545133
1359,0,3.82679,-0.085644,0.163839,0.547338
1361,0,3.82605,-0.0906984,0.165064,0.548316
1363,0,3.83017,-0.0818758,0.16263,0.549773
1365,0,3.82901,-0.081989,0.163462,0.549893
1377,0,3.82801,-0.200025,0.184509,0.456454
1382,0,3.82712,-0.0817313,0.156001,0.53809
1388,0,3.82703,-0.0983808,0.159101,0.523932
1390,0,3.82645,-0.0880349,0.160315,0.532417
1392,0,3.82554,-0.0892054,0.160892,0.535778
1394,0,3.82912,-0.0846275,0.159474,0.535212
1396,0,3.83119,-0.079557,0.158626,0.538713
1399,0,3.83052,-0.081558,0.15886,0.538769
1401,0,3.82959,-0.0816981,0.159173,0.538442
1403,0,3.82924,-0.0874252,0.15963,0.53972
1405,0,3.83046,-0.0804069,0.15872,0.537258
1408,0,3.83143,-0.0688361,0.152696,0.533815
1413,0,3.7218,-0.628478,0.256231,0.194807
1418,0,3.8245,-0.0790961,0.147455,0.507421
1420,0,3.82924,-0.0857159,0.146969,0.496612
1422,0,3.82645,-0.0879893,0.147241,0.493601
1427,0,3.82288,-0.0802641,0.146185,0.500195
1429,0,3.82549,-0.0924217,0.146515,0.484618
1431,0,3.82669,-0.0889847,0.145465,0.486383
1433,0,3.82414,-0.102486,0.149833,0.483956
1438,0,3.82416,-0.0942978,0.14564,0.48346
1440,0,3.82581,-0.0929807,0.144537,0.483338
1442,0,3.82017,-0.104083,0.148046,0.476221
1447,0,3.82375,-0.0942183,0.144718,0.477581
1453,0,3.82749,-0.0936129,0.147599,0.489108
1463,0,3.83285,-0.139023,0.16071,0.477067
1472,0,3.82584,-0.0921428,0.143576,0.477741
1474,0,3.82299,-0.0904066,0.14343,0.479509
1478,0,3.83138,-0.0789704,0.140491,0.49212
1480,0,3.82556,-0.091305,0.141796,0.471861
1482,0,3.82122,-0.0979613,0.14466,0.473089
1484,0,3.82391,-0.0956046,0.141989,0.469632
1489,0,3.82418,-0.0936479,0.141666,0.470248
1491,0,3.82805,-0.0876663,0.138516,0.468418
1497,0,3.82721,-0.0820849,0.137253,0.473504
1505,0,3.82665,-0.0946108,0.142565,0.475751
1514,0,3.82368,-0.0871195,0.14191,0.482422
1519,0,3.82847,-0.0807116,0.138361,0.478765
1521,0,3.82247,-0.0968948,0.13961,0.46069
1523,0,3.81549,-0.102888,0.143597,0.461955
1526,0,3.82364,-0.101775,0.1414,0.45844
1531,0,3.82516,-0.0940818,0.135199,0.450651
1533,0,3.81954,-0.100212,0.136131,0.446286
1538,0,3.82843,-0.0802468,0.131482,0.458491
1541,0,3.82524,-0.0947745,0.133202,0.442687
1543,0,3.82478,-0.0932346,0.133441,0.443802
1548,0,3.82567,-0.0841333,0.131024,0.450813
1556,0,3.82175,-0.0997905,0.137124,0.444273
1558,0,3.82185,-0.0986994,0.138458,0.451739
1564,0,3.82223,-0.0914118,0.137127,0.463813
1566,0,3.82373,-0.0938479,0.133556,0.449081
1571,0,3.82568,-0.0946376,0.132189,0.448487
1573,0,3.82352,-0.0936407,0.133536,0.44433
1576,0,3.82072,-0.106265,0.13526,0.436486
1579,0,3.82864,-0.084023,0.131639,0.450239
1592,0,3.82139,-0.0848246,0.134081,0.456544
1594,0,3.82181,-0.0933437,0.133984,0.443681
1602,0,3.82346,-0.0852312,0.12934,0.443157
1604,0,3.8199,-0.100143,0.132101,0.433996
1606,0,3.82075,-0.0964188,0.130214,0.428568
1611,0,3.82669,-0.0803039,0.126169,0.43913
1618,0,3.81745,-0.10696,0.126508,0.408838
1623,0,3.81667,-0.105193,0.125588,0.410584
1625,0,3.81846,-0.105051,0.125602,0.410142
1631,0,3.82306,-0.0993562,0.127865,0.420247
1633,0,3.82196,-0.097248,0.129642,0.427308
1637,0,3.8299,-0.154962,0.141598,0.408978
1639,0,3.82501,-0.0820084,0.124335,0.430769
1644,0,3.82353,-0.0859474,0.12435,0.428817
1646,0,3.81869,-0.0987105,0.127534,0.420046
1648,0,3.82392,-0.0913109,0.124376,0.418403
1651,0,3.82449,-0.0943941,0.127123,0.422968
1655,0,3.81941,-0.0970757,0.125807,0.415453
1657,0,3.82033,-0.096611,0.125295,0.415021
1663,0,3.82524,-0.0951216,0.126268,0.422333
1666,0,3.82382,-0.0876045,0.12823,0.438055
1668,0,3.82584,-0.0897395,0.128933,0.43142
1670,0,3.82403,-0.0924503,0.129125,0.429165
1672,0,3.82788,-0.0857285,0.127791,0.433293
1674,0,3.82442,-0.0887232,0.129036,0.4323
1676,0,3.82519,-0.0885251,0.128882,0.432132
1678,0,3.82499,-0.0925898,0.129788,0.434685
1680,0,3.82492,-0.0885709,0.129049,0.432238
1682,0,3.82493,-0.0891273,0.128789,0.432588
1684,0,3.82267,-0.081409,0.118896,0.410554
1686,0,3.8202,-0.0960471,0.119164,0.393827
1692,0,3.82209,-0.076452,0.111768,0.391713
1697,0,3.81696,-0.0976328,0.112768,0.372812
1712,0,3.81673,-0.102117,0.115405,0.377582
1714,0,3.82132,-0.0958029,0.114959,0.380539
1716,0,3.81633,-0.0997632,0.117646,0.385616
1718,0,3.8173,-0.0976725,0.11732,0.384722
1720,0,3.82342,-0.0946503,0.114924,0.388663
1722,0,3.81978,-0.0958682,0.116662,0.388998
1724,0,3.82045,-0.095019,0.116099,0.388901
1726,0,3.81988,-0.0941884,0.116417,0.388516
1728,0,3.81968,-0.0953569,0.116173,0.388886
1730,0,3.81775,-0.0953844,0.116938,0.388926
1732,0,3.81481,-0.100473,0.11784,0.385893
1734,0,3.81895,-0.0775162,0.10757,0.379697
1736,0,3.81761,-0.0972735,0.103485,0.34747