File: calce_correlation_analysis/matrices/CALCE_CS2_37_cycle_feature_matrix.csv
cycle_number,rul,voltage,current,capacity,charge_capacity
7,539,3.85658,-0.0101508,0.192307,0.737148
8,538,3.85752,-0.0127952,0.192764,0.732877
9,537,3.86015,-0.0112081,0.190791,0.729612
10,536,3.85933,-0.0113203,0.190738,0.728186
11,535,3.86177,-0.0154893,0.193778,0.727541
12,534,3.86075,-0.0111751,0.192257,0.732635
13,533,3.85991,-0.0109935,0.192256,0.733521
14,532,3.8604,-0.00945119,0.191734,0.734317
15,531,3.86018,-0.00959342,0.191726,0.734244
17,530,3.85928,-0.0094113,0.191713,0.735018
18,529,3.85966,-0.00954008,0.191706,0.733892
19,528,3.85946,-0.00915856,0.191695,0.733785
20,527,3.85936,-0.00926907,0.191683,0.73346
21,526,3.85928,-0.009234,0.191678,0.733211
22,525,3.86226,-0.00633355,0.189244,0.732017
23,524,3.86135,-0.00799285,0.18974,0.731067
24,523,3.8612,-0.00781943,0.189729,0.730936
25,522,3.86097,-0.00793295,0.189726,0.730674
26,521,3.8609,-0.00792039,0.18971,0.730394
27,520,3.86159,-0.00496696,0.187215,0.729146
28,519,3.86081,-0.00802433,0.186671,0.720689
29,518,3.86132,-0.0113369,0.187651,0.71544
30,517,3.86384,-0.00963489,0.18569,0.71236
31,516,3.86349,-0.00953214,0.185654,0.71132
32,515,3.86601,-0.0136583,0.188718,0.710744
33,514,3.86194,-0.0108141,0.189136,0.719101
34,513,3.86367,-0.00616169,0.186162,0.720085
35,512,3.86205,-0.0077994,0.18512,0.713748
36,511,3.86172,-0.0121854,0.186611,0.707754
37,510,3.86549,-0.0097927,0.184155,0.705564
38,509,3.86472,-0.00952245,0.18413,0.705082
39,508,3.86697,-0.0138791,0.187199,0.704754
40,507,3.86273,-0.0109676,0.187621,0.713382
41,506,3.86285,-0.00957368,0.187117,0.715079
42,505,3.86225,-0.00653116,0.183099,0.710125
43,504,3.86444,-0.0111573,0.184613,0.702847
44,503,3.86376,-0.010942,0.184596,0.702521
45,502,3.86286,-0.0125586,0.185085,0.701247
46,501,3.86617,-0.012849,0.18514,0.700271
47,500,3.86362,-0.0127908,0.186627,0.706214
48,499,3.86428,-0.00931325,0.185621,0.709637
61,498,3.85735,-0.00962,0.185641,0.713173
63,497,3.8611,-0.0114476,0.186166,0.710042
64,496,3.85968,-0.00995937,0.184144,0.706783
65,495,3.86173,-0.0140657,0.185662,0.701278
66,494,3.86093,-0.0147561,0.185634,0.700751
67,493,3.86437,-0.0112259,0.183156,0.699166
68,492,3.86184,-0.0129823,0.183614,0.697178
69,491,3.86628,-0.0131727,0.183651,0.695917
70,490,3.86482,-0.011441,0.183129,0.697954
71,489,3.86115,-0.0108139,0.183053,0.6976
72,488,3.86486,-0.0130831,0.182127,0.691441
73,487,3.86508,-0.0130314,0.182128,0.691187
74,486,3.86477,-0.0132218,0.182112,0.690939
75,485,3.8626,-0.0130601,0.182056,0.69024
76,484,3.86759,-0.0140595,0.182641,0.688453
77,483,3.86597,-0.0111737,0.181604,0.692067
78,482,3.86563,-0.0114993,0.181596,0.69179
79,481,3.86463,-0.0131609,0.182095,0.690715
80,480,3.86467,-0.013058,0.182085,0.690277
82,479,3.86439,-0.0110487,0.181559,0.692723
83,478,3.86399,-0.0125964,0.182055,0.689684
84,477,3.86314,-0.0146395,0.182555,0.68826
85,476,3.86319,-0.0146615,0.182547,0.687787
86,475,3.86311,-0.0147544,0.182529,0.687403
87,474,3.86648,-0.0117157,0.180077,0.686022
88,473,3.86648,-0.0114506,0.180068,0.685685
89,472,3.86671,-0.0115093,0.180064,0.685454
91,471,3.86496,-0.0113651,0.180038,0.686966
92,470,3.86532,-0.0129771,0.180545,0.683904
98,469,3.74452,-0.811673,0.432865,0.0582112
99,468,3.86437,-0.0131418,0.180551,0.684033
100,467,3.86367,-0.0133173,0.180536,0.683649
101,466,3.86552,-0.0159509,0.183058,0.684682
103,465,3.86372,-0.0102315,0.179536,0.68817
104,464,3.86478,-0.0118345,0.178555,0.681433
105,463,3.86683,-0.0115977,0.178555,0.679793
106,462,3.86656,-0.0118615,0.178548,0.67982
107,461,3.86493,-0.0132863,0.179035,0.678394
108,460,3.86564,-0.017864,0.182072,0.677632
109,459,3.86535,-0.0131923,0.180548,0.683326
110,458,3.86556,-0.0112668,0.180036,0.684866
111,457,3.86076,-0.0113236,0.178468,0.680999
113,456,3.86232,-0.0147412,0.179473,0.676794
114,455,3.86545,-0.0134291,0.177529,0.672724
115,454,3.86384,-0.015208,0.178001,0.670864
116,453,3.87,-0.0166487,0.180084,0.672651
117,452,3.86372,-0.0148582,0.180984,0.680382
118,451,3.86501,-0.00693245,0.1755,0.679292
119,450,3.86434,-0.014884,0.177996,0.670915
120,449,3.86538,-0.0152248,0.177988,0.669546
121,448,3.86602,-0.0145906,0.177997,0.669391
123,447,3.86733,-0.0217238,0.181572,0.66678
124,446,3.86602,-0.0133409,0.178986,0.676146
125,445,3.86557,-0.0133394,0.178997,0.676893
127,444,3.8663,-0.00991321,0.178004,0.681496
128,443,3.8674,-0.00994272,0.178024,0.680218
129,442,3.86379,-0.0126803,0.180461,0.681592
130,441,3.86366,-0.0131423,0.18047,0.681799
131,440,3.86372,-0.0129988,0.180481,0.682295
132,439,3.86435,-0.0116318,0.179967,0.683068
133,438,3.86435,-0.0113934,0.179971,0.683211
134,437,3.86417,-0.011359,0.179975,0.683404
135,436,3.86423,-0.0111654,0.179982,0.683569
136,435,3.86412,-0.0113008,0.179987,0.683636
137,434,3.86397,-0.0114079,0.179985,0.683797
138,433,3.86389,-0.0114794,0.179983,0.683879
139,432,3.86396,-0.0115407,0.179987,0.683885
140,431,3.86421,-0.00844324,0.177467,0.68297
145,430,3.86679,-0.0181697,0.179058,0.665927
146,429,3.8654,-0.0146493,0.179506,0.674744
147,428,3.86576,-0.0116066,0.178488,0.678052
148,427,3.8695,-0.0168105,0.180019,0.673613
149,426,3.86473,-0.0164633,0.180054,0.674181
152,425,3.85997,-0.0100996,0.176488,0.678186
153,424,3.86465,-0.0143373,0.178012,0.670776
154,423,3.86645,-0.0158313,0.178583,0.667121
155,422,3.86597,-0.0144674,0.178032,0.668836
156,421,3.86277,-0.0177834,0.17904,0.666131
157,420,3.86886,-0.017688,0.180587,0.669211
158,419,3.86674,-0.0130535,0.179054,0.675577
159,418,3.86271,-0.00999047,0.1765,0.6751
160,417,3.8627,-0.0179636,0.17903,0.665948
161,416,3.86454,-0.0178449,0.179041,0.665357
162,415,3.86413,-0.0178444,0.179041,0.665585
163,414,3.86474,-0.0150416,0.176533,0.664683
164,413,3.8683,-0.019332,0.179622,0.662864
165,412,3.86498,-0.0164209,0.180032,0.671514
166,411,3.86494,-0.0148822,0.179534,0.673683
167,410,3.86188,-0.01166,0.175491,0.668764
168,409,3.86637,-0.0161901,0.177043,0.661177
169,408,3.86567,-0.0169458,0.177046,0.661633
170,407,3.86559,-0.0163953,0.177044,0.661222
172,406,3.86421,-0.0212256,0.181547,0.665259
173,405,3.86375,-0.0160836,0.179998,0.671302
174,404,3.86389,-0.0162015,0.180023,0.671747
175,403,3.86447,-0.0147579,0.179504,0.67285
176,402,3.86433,-0.0144091,0.179507,0.67306
177,401,3.86483,-0.0147992,0.179523,0.673547
178,400,3.86453,-0.014382,0.179531,0.674038
179,399,3.86522,-0.0131066,0.179015,0.674988
180,398,3.86493,-0.0132394,0.179019,0.675157
181,397,3.86518,-0.0132014,0.179027,0.675289
182,396,3.86494,-0.0128041,0.179033,0.675474
183,395,3.86488,-0.0131754,0.179034,0.675551
184,394,3.86499,-0.0131322,0.179036,0.675764
185,393,3.86494,-0.0132181,0.179052,0.67593
186,392,3.86476,-0.0133795,0.179051,0.676143
187,391,3.86271,-0.0149948,0.180996,0.678139
188,390,3.862,-0.0145708,0.181,0.678898
191,389,3.86351,-0.0165862,0.178503,0.665791
192,388,3.86255,-0.0176489,0.179017,0.664894
193,387,3.86411,-0.0154608,0.176531,0.663292
194,386,3.86935,-0.018344,0.179099,0.664163
195,385,3.86364,-0.0165324,0.180012,0.671485
196,384,3.86547,-0.0119549,0.177013,0.672354
197,383,3.86232,-0.0152052,0.17651,0.66475
198,382,3.87035,-0.02146,0.180133,0.660916
199,381,3.86767,-0.0178572,0.180574,0.670006
201,380,3.86404,-0.0103565,0.17652,0.674878
202,379,3.86218,-0.0170538,0.178507,0.66697
203,378,3.86387,-0.0183249,0.179056,0.665384
204,377,3.86391,-0.0166412,0.178535,0.66655
206,376,3.86349,-0.0166507,0.178529,0.667587
207,375,3.86314,-0.0185026,0.180534,0.670057
208,374,3.86349,-0.0151898,0.179512,0.67371
209,373,3.85798,-0.0133614,0.177467,0.67155
210,372,3.86208,-0.0181342,0.17901,0.665348
211,371,3.86229,-0.0187053,0.179016,0.665343
212,370,3.86114,-0.0186349,0.179,0.665498
213,369,3.86132,-0.0179185,0.178999,0.664755
214,368,3.86553,-0.0196284,0.181039,0.667466
215,367,3.86335,-0.0145887,0.179501,0.673517
216,366,3.86239,-0.0116731,0.176992,0.673267
218,365,3.86328,-0.0183133,0.179026,0.664869
219,364,3.86326,-0.0194777,0.181028,0.6678
220,363,3.8632,-0.0144833,0.179505,0.673561
221,362,3.86305,-0.0134388,0.178993,0.674947
222,361,3.86284,-0.0136903,0.178997,0.675216
223,360,3.86308,-0.0132634,0.179,0.675433
224,359,3.86305,-0.0131811,0.179003,0.675575
225,358,3.86299,-0.0132576,0.179007,0.675722
226,357,3.8631,-0.0130473,0.179009,0.675878
227,356,3.86428,-0.0119586,0.178508,0.676904
228,355,3.86366,-0.0117083,0.178502,0.67714
229,354,3.86357,-0.0118361,0.178508,0.677063
230,353,3.8637,-0.0113584,0.178504,0.677136
231,352,3.86356,-0.0115708,0.178508,0.677256
232,351,3.86349,-0.0118205,0.178507,0.677261
233,350,3.86358,-0.0117847,0.178512,0.677315
234,349,3.86377,-0.0116699,0.178517,0.677419
235,348,3.8632,-0.0119279,0.178511,0.677497
236,347,3.86323,-0.0118636,0.178517,0.6773
237,346,3.86326,-0.0119176,0.178522,0.677277
238,345,3.8632,-0.0119731,0.17852,0.67726
239,344,3.85876,-0.0120942,0.176959,0.672491
240,343,3.86351,-0.0164198,0.178537,0.66652
241,342,3.86208,-0.0151421,0.178003,0.667999
242,341,3.86367,-0.0137482,0.176017,0.665237
243,340,3.86305,-0.0151489,0.176513,0.66292
244,339,3.86682,-0.0150821,0.178049,0.666775
245,338,3.86199,-0.0152775,0.179477,0.67249
246,337,3.85767,-0.0120806,0.176924,0.671197
247,336,3.86297,-0.0156054,0.176509,0.662927
248,335,3.87016,-0.0148816,0.176559,0.663466
249,334,3.86383,-0.0137016,0.176026,0.666379
250,333,3.85969,-0.0156984,0.17647,0.664304
251,332,3.86681,-0.0169851,0.178526,0.665606
252,331,3.86349,-0.013813,0.177507,0.67076
253,330,3.86181,-0.00913078,0.174479,0.671163
254,329,3.85951,-0.017426,0.176981,0.662578
255,328,3.86296,-0.0173024,0.177004,0.661416
256,327,3.86286,-0.0137935,0.174515,0.660961
257,326,3.8616,-0.0187235,0.177499,0.659889
258,325,3.86457,-0.0185177,0.177533,0.660066
259,324,3.86537,-0.0137689,0.176025,0.665121
260,323,3.86204,-0.0151242,0.177971,0.668193
261,322,3.86015,-0.0123294,0.173976,0.663383
262,321,3.86449,-0.0155826,0.17501,0.658189
263,320,3.86531,-0.0152346,0.175033,0.658256
264,319,3.86277,-0.0155016,0.174986,0.659299
265,318,3.86337,-0.0154732,0.174977,0.658791
266,317,3.86739,-0.0153726,0.17651,0.662373
267,316,3.86147,-0.0150615,0.177929,0.668292
268,315,3.86086,-0.00874716,0.172942,0.665966
269,314,3.86286,-0.0155306,0.174953,0.658267
270,313,3.86302,-0.0156346,0.174946,0.657647
271,312,3.86423,-0.0172441,0.175485,0.656164
273,311,3.71946,-0.87969,0.441217,0.0215388
274,310,3.86094,-0.0145859,0.174983,0.659372
275,309,3.86821,-0.0187956,0.17755,0.659683
277,308,3.86211,-0.0138839,0.175975,0.666524
278,307,3.85987,-0.015493,0.174952,0.659763
279,306,3.86264,-0.0179626,0.175997,0.655263
280,305,3.86058,-0.0187042,0.175969,0.65522
282,304,3.87332,-0.0279549,0.178716,0.64207
283,303,3.86258,-0.0170844,0.175505,0.657884
285,302,3.86612,-0.018484,0.177539,0.661536
288,301,3.85866,-0.0146658,0.174941,0.660297
289,300,3.86282,-0.0180786,0.17599,0.65491
290,299,3.8637,-0.0151726,0.173506,0.654082
291,298,3.86449,-0.0153592,0.173497,0.653441
292,297,3.86409,-0.0169488,0.17402,0.651624
293,296,3.86568,-0.0168435,0.17552,0.656449
294,295,3.86535,-0.0134428,0.174491,0.660065
296,294,3.86084,-0.0168197,0.17393,0.652877
297,293,3.86331,-0.0184974,0.174458,0.648774
298,292,3.86328,-0.018641,0.174468,0.649316
299,291,3.86139,-0.0183499,0.174445,0.649308
300,290,3.86716,-0.0204341,0.175049,0.647914
301,289,3.86377,-0.0161725,0.175446,0.655361
302,288,3.86305,-0.016644,0.17546,0.656406
303,287,3.86358,-0.0151499,0.174946,0.657525
304,286,3.86359,-0.0148138,0.174951,0.657798
305,285,3.86391,-0.0149837,0.174958,0.658083
306,284,3.86445,-0.0134947,0.174446,0.659093
307,283,3.86449,-0.0134369,0.174448,0.659354
308,282,3.86436,-0.012889,0.174452,0.659588
309,281,3.86422,-0.013445,0.174455,0.659661
310,280,3.86382,-0.0132269,0.174446,0.65965
311,279,3.86402,-0.0133247,0.174443,0.659575
312,278,3.86461,-0.0129927,0.174458,0.659781
313,277,3.86372,-0.0128137,0.174453,0.659907
314,276,3.86411,-0.0133455,0.174457,0.659888
315,275,3.86503,-0.0117767,0.173946,0.660729
316,274,3.86481,-0.0116451,0.173953,0.660993
318,273,3.85681,-0.0120783,0.172358,0.657661
319,272,3.86485,-0.0151209,0.171949,0.64715
320,271,3.86295,-0.0176985,0.174433,0.647714
321,270,3.86364,-0.0153905,0.171925,0.647303
322,269,3.86203,-0.0185591,0.172945,0.644185
323,268,3.86846,-0.018074,0.174479,0.647223
324,267,3.86628,-0.0136303,0.17295,0.653411
325,266,3.86061,-0.0133466,0.172873,0.654226
326,265,3.86129,-0.0168583,0.172395,0.645339
327,264,3.864,-0.0189238,0.172922,0.642634
328,263,3.86336,-0.0185383,0.172938,0.642971
329,262,3.86203,-0.0187167,0.172914,0.643382
330,261,3.86464,-0.0206449,0.173474,0.641289
331,260,3.86376,-0.0183472,0.17443,0.647587
332,259,3.87281,-0.0220212,0.17556,0.645068
333,258,3.86209,-0.0193294,0.174472,0.650591
334,257,3.86613,-0.020016,0.175065,0.648615
337,256,3.86081,-0.0130979,0.171463,0.651402
338,255,3.86472,-0.0190413,0.173014,0.645081
339,254,3.86335,-0.0191412,0.173003,0.645074
340,253,3.8638,-0.0184817,0.172983,0.644519
342,252,3.86535,-0.0220272,0.175518,0.645405
344,251,3.86412,-0.0148832,0.173443,0.653631
345,250,3.86354,-0.0169417,0.173965,0.651634
346,249,3.86455,-0.0152727,0.173451,0.652355
347,248,3.86467,-0.014683,0.173456,0.652546
348,247,3.86434,-0.0151385,0.173457,0.652879
349,246,3.86402,-0.0150411,0.17346,0.65299
350,245,3.86422,-0.0150768,0.173457,0.652983
351,244,3.86396,-0.0151131,0.173459,0.653032
352,243,3.8639,-0.0151656,0.173454,0.652936
353,242,3.86397,-0.015436,0.173447,0.65282
354,241,3.86395,-0.0152424,0.173443,0.652748
355,240,3.86384,-0.015052,0.173447,0.652761
356,239,3.86482,-0.0132117,0.172928,0.653457
357,238,3.86488,-0.0135391,0.172928,0.65352
358,237,3.86458,-0.0130338,0.17292,0.653535
359,236,3.86223,-0.0129901,0.172867,0.653415
360,235,3.86158,-0.0147019,0.170412,0.643474
361,234,3.86415,-0.0190859,0.171451,0.638452
362,233,3.86388,-0.0191718,0.171442,0.638072
363,232,3.86205,-0.020427,0.171943,0.636891
364,231,3.86357,-0.0216643,0.172495,0.634903
366,230,3.86499,-0.0154915,0.171915,0.647135
367,229,3.86286,-0.0113511,0.169382,0.644851
368,228,3.86358,-0.0174882,0.169447,0.635646
369,227,3.86209,-0.0213738,0.172441,0.634056
370,226,3.86421,-0.0187135,0.169944,0.633057
371,225,3.8656,-0.0192511,0.169954,0.632484
372,224,3.86445,-0.0233025,0.173019,0.632972
373,223,3.86595,-0.0172248,0.17094,0.639433
374,222,3.86341,-0.0180759,0.172899,0.641727
375,221,3.86042,-0.0153582,0.168887,0.637408
376,220,3.86415,-0.020599,0.170441,0.630696
377,219,3.86291,-0.0198432,0.170426,0.630578
378,218,3.86277,-0.0220021,0.170941,0.628974
379,217,3.86203,-0.0227022,0.170934,0.628989
380,216,3.8671,-0.0219442,0.172462,0.632525
381,215,3.86442,-0.0184652,0.171429,0.637468
382,214,3.86983,-0.0241717,0.172997,0.633176
383,213,3.86184,-0.0217,0.172448,0.635026
384,212,3.86241,-0.0197299,0.170459,0.632011
385,211,3.8678,-0.0221082,0.172514,0.633976
386,210,3.86622,-0.0164971,0.170952,0.639531
387,209,3.85972,-0.0171458,0.170864,0.640008
388,208,3.86168,-0.0206467,0.170419,0.631174
389,207,3.86352,-0.0225621,0.170963,0.629255
390,206,3.86267,-0.0228328,0.170946,0.629161
391,205,3.86184,-0.0223735,0.170923,0.628746
392,204,3.86583,-0.0240654,0.171519,0.627311
393,203,3.86305,-0.0224071,0.172444,0.634058
394,202,3.86278,-0.01991,0.171921,0.635901
395,201,3.86378,-0.0186874,0.171402,0.636914
396,200,3.86375,-0.018923,0.171404,0.637157
397,199,3.86383,-0.019143,0.17141,0.637354
398,198,3.86476,-0.0170066,0.170897,0.638707
399,197,3.86479,-0.0171403,0.170913,0.639056
400,196,3.86463,-0.017248,0.170917,0.639385
401,195,3.86533,-0.0151338,0.1704,0.640287
402,194,3.86538,-0.0153651,0.170401,0.640444
403,193,3.86554,-0.0149696,0.170409,0.640476
404,192,3.8653,-0.0154439,0.170403,0.640652
405,191,3.86521,-0.0152379,0.170409,0.640736
406,190,3.86531,-0.0156097,0.170409,0.640841
407,189,3.86525,-0.0151398,0.17042,0.640992
408,188,3.86484,-0.0148876,0.17041,0.641085
409,187,3.86493,-0.0153662,0.170411,0.641056
410,186,3.85677,-0.0148845,0.168818,0.636403
411,185,3.86431,-0.0192364,0.168417,0.627333
412,184,3.86345,-0.0209696,0.168927,0.625507
413,183,3.86348,-0.0211169,0.168917,0.625029
414,182,3.86235,-0.0213559,0.168883,0.624213
415,181,3.86687,-0.0262454,0.172013,0.624741
416,180,3.86533,-0.0191269,0.169929,0.631958
417,179,3.86506,-0.0168246,0.169393,0.633673
418,178,3.85999,-0.0192155,0.168348,0.627761
419,177,3.8643,-0.0223655,0.169428,0.622668
420,176,3.86333,-0.0210263,0.168883,0.624226
421,175,3.8622,-0.0228865,0.169401,0.623065
422,174,3.86368,-0.0214451,0.167426,0.620318
423,173,3.86547,-0.0245227,0.171447,0.624807
424,172,3.86497,-0.0183371,0.169893,0.630976
425,171,3.86212,-0.0141262,0.166813,0.631097
426,170,3.8639,-0.01945,0.166899,0.621756
427,169,3.86557,-0.019226,0.166907,0.620819
428,168,3.86335,-0.0231546,0.169376,0.62159
429,167,3.8624,-0.0229535,0.169365,0.621974
430,166,3.86531,-0.0250976,0.169956,0.621075
431,165,3.86426,-0.0211887,0.170348,0.628523
432,164,3.87164,-0.0238334,0.169989,0.622652
433,163,3.86258,-0.0220075,0.16944,0.624399
434,162,3.86304,-0.0192663,0.168377,0.626572
435,161,3.86095,-0.0238368,0.169915,0.621799
436,160,3.86379,-0.0233025,0.167955,0.618972
437,159,3.86511,-0.0231781,0.167958,0.618473
438,158,3.86465,-0.0233387,0.16796,0.618722
439,157,3.86382,-0.0229939,0.167948,0.618866
440,156,3.86282,-0.0236673,0.167914,0.618255
441,155,3.86492,-0.0282656,0.171014,0.617793
442,154,3.86528,-0.0207918,0.168911,0.624577
443,153,3.86563,-0.0190738,0.168404,0.626297
444,152,3.86571,-0.0195108,0.168408,0.626692
445,151,3.86536,-0.0192471,0.168415,0.627009
446,150,3.86618,-0.0176687,0.167893,0.627838
447,149,3.86276,-0.0208953,0.170352,0.628989
449,148,3.76843,-0.692043,0.362395,0.108182
450,147,3.86441,-0.0173311,0.166373,0.621906
451,146,3.86743,-0.0195384,0.168392,0.624418
452,145,3.86323,-0.0195168,0.169829,0.629452
453,144,3.86463,-0.0163341,0.167344,0.629219
454,143,3.86108,-0.0192759,0.168312,0.625209
455,142,3.86394,-0.0213899,0.168857,0.622872
456,141,3.86484,-0.0197671,0.168363,0.624846
457,140,3.86575,-0.0180419,0.167854,0.626566
458,139,3.86482,-0.017882,0.167866,0.627069
459,138,3.86491,-0.019543,0.169859,0.629556
460,137,3.86425,-0.0176265,0.169344,0.632208
461,136,3.86262,-0.0139651,0.166822,0.631177
462,135,3.86252,-0.0195204,0.168335,0.625593
463,134,3.86392,-0.0213519,0.16888,0.623844
464,133,3.86345,-0.0193753,0.168349,0.625634
465,132,3.86302,-0.0193352,0.168334,0.625373
466,131,3.86613,-0.0212732,0.168922,0.623941
467,130,3.86323,-0.0190402,0.169824,0.629796
468,129,3.86301,-0.0191185,0.169832,0.630379
469,128,3.86206,-0.0158049,0.165845,0.625752
470,127,3.86628,-0.0179373,0.166361,0.62164
471,126,3.866,-0.0177066,0.166359,0.621649
472,125,3.86515,-0.0188373,0.16688,0.620793
473,124,3.86341,-0.0193782,0.166849,0.62059
474,123,3.8664,-0.0231694,0.169405,0.621391
475,122,3.86576,-0.0176175,0.167843,0.626475
476,121,3.86394,-0.017349,0.167812,0.627094
477,120,3.86335,-0.0172817,0.166312,0.622078
478,119,3.86564,-0.0197042,0.16685,0.619401
479,118,3.8645,-0.0198199,0.166844,0.619844
480,117,3.8665,-0.0198011,0.16688,0.619728
481,116,3.86398,-0.019674,0.166845,0.620471
482,115,3.86567,-0.0214357,0.168872,0.62263
483,114,3.86544,-0.0178573,0.167827,0.626255
484,113,3.865,-0.0177492,0.167831,0.626737
485,112,3.86507,-0.0176727,0.167837,0.626987
486,111,3.86512,-0.0177577,0.167838,0.627045
487,110,3.86636,-0.0156518,0.167324,0.627885
488,109,3.86608,-0.0156406,0.167339,0.62852
489,108,3.86614,-0.0158033,0.167346,0.628838
490,107,3.86587,-0.0158886,0.167342,0.628968
491,106,3.86679,-0.0139333,0.166826,0.629669
492,105,3.86684,-0.0140317,0.166828,0.629654
493,104,3.86673,-0.0139053,0.166825,0.629526
494,103,3.86661,-0.0143813,0.166822,0.629434
495,102,3.86686,-0.013959,0.16683,0.62942
496,101,3.8668,-0.0138734,0.16682,0.629609
497,100,3.86655,-0.0142504,0.166822,0.629536
498,99,3.86654,-0.014232,0.166818,0.629404
499,98,3.86988,-0.0225206,0.169377,0.622697
500,97,3.86611,-0.0156021,0.165849,0.623892
501,96,3.86553,-0.0233882,0.169412,0.621857
502,95,3.86629,-0.0178674,0.167858,0.626889
503,94,3.86643,-0.0155048,0.167338,0.62828
504,93,3.8617,-0.0161124,0.165791,0.624555
505,92,3.86503,-0.0190539,0.166823,0.619427
506,91,3.86579,-0.0196933,0.166849,0.619223
507,90,3.86536,-0.0180004,0.166311,0.620793
508,89,3.8629,-0.0197401,0.166794,0.619398
509,88,3.8659,-0.0229052,0.169359,0.619932
510,87,3.86383,-0.0192471,0.168312,0.624551
511,86,3.86425,-0.0178956,0.167774,0.625482
512,85,3.86519,-0.0144293,0.163799,0.620295
513,84,3.86707,-0.0178135,0.164838,0.615861
515,83,3.86412,-0.0181379,0.16625,0.62107
516,82,3.86509,-0.0175176,0.164821,0.616228
517,81,3.86773,-0.0210951,0.167375,0.616929
518,80,3.86716,-0.0153155,0.165816,0.6218
519,79,3.86649,-0.0162421,0.165803,0.62231
520,78,3.86359,-0.0160472,0.164269,0.617787
522,77,3.86411,-0.018242,0.164752,0.616713
523,76,3.86582,-0.019476,0.165297,0.61315
524,75,3.86413,-0.0197332,0.165263,0.6129
525,74,3.86684,-0.022858,0.167829,0.613603
526,73,3.86491,-0.0196118,0.166796,0.618464
527,72,3.86529,-0.0176243,0.166264,0.619839
528,71,3.86444,-0.0160124,0.162781,0.613391
529,70,3.86687,-0.0199929,0.163829,0.608375
530,69,3.8678,-0.0183556,0.163313,0.609502
531,68,3.8674,-0.0180047,0.163317,0.6099
532,67,3.86599,-0.0178819,0.163276,0.609423
533,66,3.86928,-0.0195353,0.165311,0.611484
534,65,3.86726,-0.0177665,0.164815,0.615272
535,64,3.86765,-0.0158837,0.164298,0.616443
536,63,3.86742,-0.0157436,0.164299,0.616637
537,62,3.86776,-0.015942,0.164307,0.616824
538,61,3.8678,-0.0161375,0.164312,0.616888
539,60,3.86753,-0.0153925,0.164318,0.617255
540,59,3.86822,-0.0138736,0.163798,0.618109
541,58,3.86858,-0.0134599,0.163796,0.617892
542,57,3.86812,-0.0137796,0.163789,0.617951
543,56,3.86805,-0.0142048,0.163784,0.617778
544,55,3.86733,-0.0156818,0.164301,0.617056
545,54,3.86723,-0.0157985,0.164299,0.616863
546,53,3.86706,-0.015671,0.164295,0.616846
547,52,3.86722,-0.0160203,0.16429,0.61685
548,51,3.86729,-0.0160386,0.164293,0.616713
549,50,3.8726,-0.0215648,0.165806,0.611857
550,49,3.86687,-0.0158312,0.162785,0.612405
551,48,3.8676,-0.023294,0.166376,0.609924
552,47,3.8681,-0.0158722,0.164305,0.616542
553,46,3.86779,-0.0164548,0.16431,0.617054
554,45,3.86194,-0.0161867,0.16273,0.613159
555,44,3.86461,-0.0215551,0.164285,0.606237
556,43,3.86501,-0.0202561,0.163748,0.606796
557,42,3.86473,-0.0216991,0.164267,0.60579
558,41,3.86345,-0.0220161,0.16425,0.605531
559,40,3.86986,-0.0217544,0.164356,0.605575
560,39,3.86568,-0.0198167,0.165263,0.612274
561,38,3.866,-0.017798,0.164744,0.613633
563,37,3.86722,-0.0163593,0.161249,0.607243
564,36,3.86736,-0.0185212,0.161767,0.603825
565,35,3.86742,-0.018078,0.16175,0.603222
566,34,3.8656,-0.0201767,0.162251,0.601994
567,33,3.86824,-0.0233186,0.164818,0.602472
568,32,3.86741,-0.0181379,0.163261,0.608534
570,31,3.86259,-0.0163553,0.161168,0.606067
571,30,3.8649,-0.0208844,0.162725,0.598862
572,29,3.86692,-0.019647,0.16222,0.600218
573,28,3.86519,-0.0162822,0.159659,0.599088
575,27,3.8719,-0.0267945,0.162916,0.5886
576,26,3.86788,-0.0197321,0.162246,0.600344
577,25,3.86744,-0.0198283,0.162269,0.601701
583,24,3.87012,-0.0315221,0.162449,0.579042
584,23,3.86712,-0.0235178,0.161764,0.591807
585,22,3.86813,-0.0197178,0.16073,0.59506
586,21,3.86814,-0.0197072,0.160752,0.59606
587,20,3.86897,-0.01743,0.160244,0.597126
588,19,3.86861,-0.0180783,0.160253,0.59761
589,18,3.86644,-0.0196881,0.1622,0.599717
590,17,3.86603,-0.0192376,0.162203,0.600299
591,16,3.866,-0.0193725,0.162209,0.600543
592,15,3.86821,-0.0161457,0.159731,0.599328
593,14,3.86899,-0.0160221,0.159728,0.59856
594,13,3.86914,-0.0158485,0.159719,0.598304
595,12,3.86797,-0.0177311,0.160235,0.59751
596,11,3.86799,-0.0181633,0.160227,0.597351
597,10,3.86806,-0.0183198,0.160233,0.597424
598,9,3.8691,-0.0159915,0.159704,0.598008
601,8,3.86995,-0.0298564,0.161897,0.580897
604,7,3.86329,-0.0150255,0.154647,0.586955
605,6,3.8659,-0.0246366,0.157223,0.575714
606,5,3.86503,-0.0267178,0.157741,0.573964
607,4,3.8649,-0.0268843,0.157715,0.573353
609,3,3.86751,-0.0331587,0.161399,0.570573
612,2,3.8631,-0.0171665,0.153604,0.578662
614,1,3.8646,-0.02866,0.156724,0.565805
617,0,3.86345,-0.0235182,0.156652,0.576214
618,0,3.86724,-0.0239828,0.15522,0.570798
619,0,3.86445,-0.0275009,0.156201,0.568167
622,0,3.86498,-0.0186796,0.155637,0.580948
623,0,3.86267,-0.0254744,0.155662,0.569892
624,0,3.86396,-0.0313697,0.157279,0.564879
625,0,3.86605,-0.0235067,0.154208,0.56395
626,0,3.86387,-0.0292969,0.155247,0.561316
627,0,3.86287,-0.0294593,0.155078,0.55995
628,0,3.87073,-0.0309325,0.157349,0.562871
630,0,3.86653,-0.0209227,0.154636,0.573054
631,0,3.86246,-0.0251058,0.154111,0.563995
632,0,3.86365,-0.0314294,0.155722,0.557936
633,0,3.86437,-0.0274831,0.153169,0.556656
634,0,3.86475,-0.029586,0.15364,0.55388
636,0,3.86986,-0.0321481,0.156334,0.555031
637,0,3.86513,-0.0283955,0.156689,0.564288
638,0,3.86862,-0.0231154,0.153646,0.565314
639,0,3.86187,-0.026254,0.153114,0.557381
640,0,3.86501,-0.0297574,0.154221,0.552052
641,0,3.86623,-0.0268488,0.153146,0.554834
642,0,3.86601,-0.0268075,0.153135,0.554803
643,0,3.86784,-0.02514,0.151167,0.552811
644,0,3.86879,-0.0321322,0.156287,0.554218
647,0,3.86219,-0.0229001,0.152031,0.560201
648,0,3.86961,-0.0253015,0.151162,0.551777
649,0,3.86841,-0.0248446,0.151154,0.552015
650,0,3.86806,-0.0250433,0.151139,0.551702
652,0,3.86975,-0.0299842,0.15425,0.549828
653,0,3.87035,-0.0226019,0.152132,0.557821
654,0,3.86983,-0.0225343,0.152148,0.558876
655,0,3.86695,-0.0246271,0.154085,0.560934
656,0,3.8666,-0.0236221,0.154081,0.560781
657,0,3.87037,-0.0206946,0.151616,0.560075
658,0,3.87062,-0.0199184,0.151618,0.559789
659,0,3.86675,-0.0238944,0.154083,0.560748
660,0,3.8668,-0.0237689,0.154093,0.561322
661,0,3.8676,-0.022344,0.153557,0.562313
662,0,3.8677,-0.0221001,0.153552,0.562085
663,0,3.86736,-0.0222039,0.153543,0.562035
664,0,3.87014,-0.0205391,0.151608,0.560296
665,0,3.87019,-0.0202413,0.151598,0.559911
666,0,3.87689,-0.0286348,0.153745,0.553385
667,0,3.86581,-0.023106,0.152038,0.559044
668,0,3.8682,-0.024755,0.151158,0.551737
669,0,3.87033,-0.0248967,0.152661,0.55586
670,0,3.87049,-0.0204736,0.151607,0.559414
671,0,3.86756,-0.0163093,0.149004,0.558011
672,0,3.86751,-0.0233835,0.149077,0.547836
673,0,3.86904,-0.0257091,0.149602,0.544879
674,0,3.86675,-0.0269127,0.150107,0.544028
675,0,3.86584,-0.0273657,0.150078,0.542834
676,0,3.8647,-0.0298203,0.150594,0.54141
677,0,3.86902,-0.0309207,0.152689,0.543714
678,0,3.86866,-0.0248395,0.151094,0.549913
680,0,3.86563,-0.0178859,0.145972,0.550941
681,0,3.86673,-0.0270187,0.148581,0.53764
682,0,3.86904,-0.0268209,0.148603,0.536906
683,0,3.86645,-0.0273472,0.148569,0.537682
684,0,3.86688,-0.0275186,0.148548,0.536443
685,0,3.86834,-0.0298892,0.149153,0.535145
686,0,3.86901,-0.0276335,0.150099,0.541748
688,0,3.86556,-0.0187283,0.146409,0.543762
689,0,3.86698,-0.0253249,0.146516,0.533188
690,0,3.8676,-0.0286016,0.1476,0.529339
691,0,3.86808,-0.0274497,0.147058,0.531077
692,0,3.86667,-0.0277699,0.14703,0.53102
693,0,3.86835,-0.0256768,0.145046,0.527986
694,0,3.87014,-0.0331369,0.150196,0.529899
695,0,3.86983,-0.0240694,0.148056,0.537268
697,0,3.8673,-0.022013,0.143974,0.533954
698,0,3.87038,-0.0282511,0.145603,0.525843
699,0,3.86945,-0.0255563,0.145037,0.527607
700,0,3.87085,-0.0260348,0.14505,0.526793
702,0,3.86904,-0.0340252,0.148685,0.524846
704,0,3.87093,-0.0217824,0.145484,0.538796
705,0,3.87146,-0.02251,0.146039,0.534072
706,0,3.8714,-0.0235512,0.146042,0.534724
707,0,3.86724,-0.0269103,0.148509,0.535721
708,0,3.86837,-0.0251515,0.147978,0.536587
709,0,3.86968,-0.0224179,0.147452,0.537589
710,0,3.86848,-0.0255757,0.14799,0.537252
711,0,3.86852,-0.0249394,0.147996,0.53729
712,0,3.86843,-0.0253688,0.148,0.537589
713,0,3.86862,-0.0247175,0.147994,0.537426
714,0,3.86981,-0.0229632,0.147461,0.538178
715,0,3.86993,-0.0232704,0.147486,0.538333
716,0,3.8758,-0.0341784,0.148723,0.527716
717,0,3.86641,-0.0264644,0.144847,0.530542
719,0,3.86761,-0.0346452,0.148632,0.524442
720,0,3.86881,-0.0285245,0.147017,0.529926
721,0,3.86756,-0.0247088,0.144438,0.529697
722,0,3.86495,-0.0288607,0.143772,0.520773
723,0,3.86747,-0.0311409,0.144381,0.516383
724,0,3.87064,-0.0261773,0.141947,0.515236
725,0,3.87116,-0.0270225,0.141991,0.51529
726,0,3.8702,-0.0261869,0.141968,0.514765
727,0,3.87035,-0.0318452,0.145098,0.514366
728,0,3.87129,-0.026994,0.14349,0.520448
729,0,3.87078,-0.0259905,0.143495,0.520978
730,0,3.86619,-0.0215747,0.140843,0.518803
731,0,3.86657,-0.0306605,0.142934,0.511137
732,0,3.86753,-0.0308288,0.142952,0.510194
733,0,3.8674,-0.0299641,0.142948,0.510009
734,0,3.87105,-0.0252774,0.140467,0.508722
735,0,3.87063,-0.0274399,0.140437,0.508925
736,0,3.87295,-0.0313791,0.143053,0.510105
737,0,3.87119,-0.0270061,0.141968,0.515134
738,0,3.87104,-0.0263751,0.141965,0.515019
739,0,3.86455,-0.0268259,0.140193,0.510727
740,0,3.86984,-0.0292829,0.139253,0.501854
741,0,3.87094,-0.0293701,0.139361,0.501445
742,0,3.86941,-0.0299192,0.139283,0.5018
743,0,3.86785,-0.0319139,0.139768,0.500005
744,0,3.86744,-0.0358582,0.142447,0.500245
745,0,3.8684,-0.0329072,0.14348,0.507046
746,0,3.86942,-0.0280855,0.142409,0.510962
747,0,3.8688,-0.0248514,0.139835,0.510986
748,0,3.87151,-0.0250482,0.138369,0.504444
749,0,3.86956,-0.0289666,0.139416,0.501295
750,0,3.86784,-0.0331535,0.141949,0.502171
751,0,3.87173,-0.0266262,0.138923,0.503114
752,0,3.87095,-0.0269714,0.138895,0.502858
753,0,3.87282,-0.0312545,0.141501,0.503256
754,0,3.87352,-0.0244225,0.139912,0.509397
755,0,3.86874,-0.0287848,0.142375,0.511199
756,0,3.86877,-0.0287134,0.142384,0.511332
757,0,3.86999,-0.0254847,0.141846,0.511812
759,0,3.86943,-0.0215767,0.140768,0.519258
760,0,3.87001,-0.0261622,0.141843,0.512245
761,0,3.86982,-0.0257756,0.141849,0.512218
762,0,3.8699,-0.0257174,0.141848,0.512228
763,0,3.86955,-0.0260096,0.141838,0.512424
764,0,3.86956,-0.0257715,0.141843,0.512016
765,0,3.86928,-0.0256606,0.141854,0.511988
767,0,3.869,-0.0235369,0.140814,0.519103
768,0,3.8695,-0.0257941,0.139847,0.511129
769,0,3.87352,-0.0296675,0.142438,0.509969
770,0,3.87125,-0.0249326,0.141349,0.51453
771,0,3.87091,-0.0254644,0.141334,0.514138
772,0,3.87054,-0.0214327,0.137316,0.509553
773,0,3.86766,-0.0277417,0.138802,0.502351
774,0,3.87253,-0.0255028,0.136846,0.498036
775,0,3.87184,-0.0282079,0.137382,0.496817
776,0,3.87011,-0.028045,0.137328,0.496416
777,0,3.86887,-0.0304314,0.137842,0.494446
778,0,3.87649,-0.0300457,0.139456,0.497341
781,0,3.86941,-0.0212067,0.135718,0.502399
782,0,3.87174,-0.0252356,0.13533,0.492648
783,0,3.87199,-0.0290021,0.135861,0.490515
784,0,3.87065,-0.0286996,0.135827,0.49021
785,0,3.87022,-0.028331,0.135794,0.489254
786,0,3.8706,-0.0313187,0.136344,0.487931
787,0,3.87553,-0.0308048,0.137938,0.491864
790,0,3.87096,-0.0202979,0.133719,0.497707
791,0,3.8727,-0.0247382,0.133284,0.488585
792,0,3.87092,-0.0290267,0.134305,0.484773
796,0,3.86282,-0.017019,0.133115,0.504158
801,0,3.86409,-0.0221709,0.129253,0.481317
802,0,3.86395,-0.03702,0.130492,0.462976
803,0,3.86554,-0.039307,0.12886,0.456203
810,0,3.86682,-0.0208305,0.122175,0.458097
811,0,3.86654,-0.0396057,0.124083,0.439563
812,0,3.86769,-0.0435515,0.124629,0.43503
813,0,3.86708,-0.0422104,0.123117,0.431836
814,0,3.86855,-0.0436705,0.123087,0.430278
815,0,3.86719,-0.0392402,0.12088,0.427692
816,0,3.86753,-0.0530937,0.125154,0.422565
820,0,3.86551,-0.0242052,0.117787,0.440072
821,0,3.8679,-0.042412,0.119276,0.420592
822,0,3.86783,-0.0463733,0.120425,0.416519
823,0,3.86387,-0.0489031,0.120936,0.415226
824,0,3.86513,-0.0498921,0.120928,0.414574
825,0,3.86536,-0.0460971,0.118143,0.412258
826,0,3.86788,-0.0456189,0.116617,0.406792
827,0,3.86283,-0.0535771,0.118219,0.402689
828,0,3.86333,-0.0520703,0.117532,0.402062
832,0,3.86337,-0.0581523,0.118784,0.397028
833,0,3.86991,-0.0545076,0.118658,0.400752
834,0,3.86939,-0.0488208,0.119213,0.408261
835,0,3.86701,-0.0446492,0.11854,0.410607
836,0,3.87253,-0.0429842,0.116636,0.407535
837,0,3.87224,-0.0434394,0.116609,0.407229
838,0,3.87258,-0.042918,0.116643,0.407238
839,0,3.86752,-0.047837,0.119173,0.4084
840,0,3.86923,-0.0456088,0.118647,0.409152
841,0,3.86914,-0.0452517,0.118665,0.409438
842,0,3.86722,-0.0466322,0.119223,0.408139
843,0,3.86891,-0.0453352,0.118696,0.409482
847,0,3.86788,-0.038351,0.119376,0.421397
848,0,3.86959,-0.0415176,0.11841,0.414076
849,0,3.86724,-0.0442273,0.118825,0.411189
850,0,3.87097,-0.0421334,0.116818,0.407694
851,0,3.86949,-0.0448331,0.117319,0.40579
852,0,3.86872,-0.0448503,0.117258,0.404881
853,0,3.8709,-0.0497087,0.120186,0.405713
854,0,3.87381,-0.0381041,0.115898,0.410977
855,0,3.87309,-0.0416851,0.117024,0.406894
856,0,3.874,-0.0379413,0.115859,0.408756
857,0,3.87442,-0.0386297,0.114246,0.404838
858,0,3.87251,-0.0412812,0.114653,0.401831
859,0,3.87007,-0.0444567,0.11512,0.39959
860,0,3.87337,-0.0410193,0.113155,0.396942
861,0,3.8728,-0.0422734,0.113096,0.395023
862,0,3.87193,-0.044807,0.113609,0.393655
863,0,3.87247,-0.0450781,0.113674,0.393412
865,0,3.87392,-0.0259701,0.110671,0.405685
866,0,3.86778,-0.0430924,0.11348,0.394532
867,0,3.86837,-0.043397,0.111862,0.388544
868,0,3.87005,-0.0440421,0.110317,0.383455
869,0,3.86927,-0.0473488,0.110829,0.380691
870,0,3.86646,-0.0495949,0.110676,0.380165
871,0,3.86974,-0.0479519,0.109286,0.375509
872,0,3.86892,-0.0458559,0.108575,0.375588
873,0,3.86693,-0.0509926,0.10968,0.371848
874,0,3.87072,-0.051514,0.109955,0.372458
875,0,3.86865,-0.0468862,0.108706,0.375476
876,0,3.86993,-0.0487426,0.109301,0.372907
877,0,3.87588,-0.0380754,0.106269,0.372583
878,0,3.86753,-0.0485607,0.107644,0.368941
879,0,3.87212,-0.0447186,0.105027,0.366048
880,0,3.86985,-0.0478973,0.105504,0.363148
881,0,3.86763,-0.0488616,0.103792,0.359034
882,0,3.86259,-0.0577438,0.105388,0.353629
883,0,3.87004,-0.0492887,0.10224,0.351515
884,0,3.86796,-0.0549946,0.103416,0.349079
885,0,3.86757,-0.0545915,0.104952,0.352305
886,0,3.86792,-0.0511616,0.102935,0.351311
887,0,3.86715,-0.055295,0.103477,0.349348
888,0,3.86483,-0.0552092,0.103394,0.348952
889,0,3.86702,-0.0520052,0.101273,0.344963
890,0,3.86297,-0.055666,0.101633,0.341987
891,0,3.86235,-0.0601307,0.10225,0.33973
892,0,3.86395,-0.0566403,0.10019,0.337272
893,0,3.86269,-0.0606912,0.100762,0.335199
895,0,3.87272,-0.0410167,0.098039,0.347499
896,0,3.86627,-0.0480929,0.0972612,0.337817
897,0,3.86609,-0.0533122,0.0962271,0.329351
898,0,3.86277,-0.0600577,0.0972581,0.324274
899,0,3.85968,-0.0635477,0.0977466,0.322561
900,0,3.86236,-0.0599539,0.0957029,0.31946
901,0,3.85981,-0.0635132,0.0962025,0.316885
903,0,3.87017,-0.0413565,0.0908869,0.329778
904,0,3.86049,-0.0677671,0.0968519,0.313953
905,0,3.86516,-0.0644571,0.0965802,0.316544
906,0,3.86897,-0.0493889,0.092708,0.317071
911,0,3.85546,-0.068684,0.0898542,0.293608
912,0,3.8571,-0.066785,0.0877593,0.289439
913,0,3.85127,-0.07581,0.0887764,0.285645
914,0,3.84851,-0.0795838,0.0893134,0.283247
915,0,3.85509,-0.0733073,0.0867766,0.281287
916,0,3.85636,-0.0715375,0.0868164,0.280253
917,0,3.85374,-0.0792152,0.0895228,0.282142
918,0,3.8555,-0.0721913,0.0883187,0.2853
919,0,3.85173,-0.0765351,0.0888531,0.28475
920,0,3.85814,-0.0756863,0.0890859,0.283363
921,0,3.8535,-0.0650739,0.0854778,0.285203
922,0,3.85069,-0.0753206,0.0850885,0.276204
923,0,3.84853,-0.0783751,0.0855985,0.271809
924,0,3.85092,-0.076953,0.0835581,0.269772
925,0,3.84878,-0.078771,0.084121,0.266465
926,0,3.84881,-0.0812023,0.0840885,0.266365
927,0,3.84642,-0.0821367,0.0839981,0.266119
928,0,3.84426,-0.0860067,0.084597,0.264343
929,0,3.85146,-0.0814785,0.0842144,0.264292
930,0,3.85533,-0.0769402,0.0837606,0.26754
931,0,3.85319,-0.0771734,0.0837314,0.268744
932,0,3.85108,-0.0759818,0.083649,0.267885
933,0,3.8522,-0.0766391,0.083639,0.266662
934,0,3.85021,-0.0740121,0.0814138,0.265031
935,0,3.84501,-0.0837722,0.0824739,0.260679
936,0,3.84348,-0.0825932,0.0823826,0.258842
937,0,3.84728,-0.0795323,0.0803873,0.256108
938,0,3.84417,-0.0838239,0.0809558,0.254106
939,0,3.84277,-0.0855066,0.0808524,0.253774
940,0,3.84154,-0.0865529,0.0807896,0.252589
941,0,3.84664,-0.0831073,0.0788585,0.250283
942,0,3.84557,-0.0803795,0.0788048,0.248358
943,0,3.84183,-0.0886182,0.0793273,0.248347
947,0,3.84996,-0.068874,0.0794456,0.260354
948,0,3.84797,-0.0777255,0.0784503,0.253512
949,0,3.84218,-0.0825941,0.0788132,0.249404
950,0,3.846,-0.0775434,0.0767779,0.244614
951,0,3.84172,-0.0850195,0.0772249,0.242434
952,0,3.83837,-0.088896,0.0777591,0.240342
953,0,3.84487,-0.0822066,0.0751836,0.23809
954,0,3.84153,-0.0880925,0.0756984,0.236396
955,0,3.84042,-0.0870099,0.0756393,0.235058
956,0,3.84634,-0.0860721,0.0759113,0.234868
957,0,3.84785,-0.0836008,0.0753098,0.238073
958,0,3.84257,-0.0819961,0.0750969,0.237694
959,0,3.8462,-0.0841537,0.0737542,0.233124
960,0,3.84386,-0.0929495,0.076491,0.232839
961,0,3.84627,-0.0826092,0.0752362,0.236377
962,0,3.84925,-0.0718243,0.0704172,0.232984
963,0,3.84073,-0.0864587,0.0718977,0.224365
964,0,3.84488,-0.0843888,0.0699575,0.221115
966,0,3.83851,-0.09759,0.0731841,0.219101
967,0,3.84008,-0.0904189,0.0726217,0.222968
968,0,3.84458,-0.0882445,0.0721181,0.223367
969,0,3.8426,-0.0862571,0.0720516,0.224721
970,0,3.84406,-0.0876219,0.0721037,0.223779
971,0,3.84673,-0.085963,0.0722672,0.224551
972,0,3.84282,-0.0903371,0.0742722,0.227264
974,0,3.84782,-0.0811062,0.0716982,0.22785
975,0,3.85095,-0.0717555,0.0689548,0.224049
976,0,3.8451,-0.0846043,0.0699859,0.220133
977,0,3.84005,-0.0897643,0.0704726,0.21858
978,0,3.84784,-0.0806343,0.0679554,0.216155
979,0,3.84332,-0.087349,0.0684303,0.214327
980,0,3.84234,-0.0806157,0.0661826,0.210282
981,0,3.84429,-0.0836089,0.0647177,0.203313
982,0,3.83644,-0.0958268,0.065768,0.200849
983,0,3.84198,-0.0919635,0.0652491,0.19967
984,0,3.84474,-0.0866201,0.0646849,0.200786
985,0,3.83777,-0.0950644,0.0658415,0.19999
986,0,3.83743,-0.0912211,0.065053,0.200767
987,0,3.84338,-0.0862933,0.0631388,0.196131
989,0,3.85426,-0.0457412,0.0591698,0.218438
990,0,3.83375,-0.0980776,0.06416,0.192749
994,0,3.87993,-0.0586631,0.0463749,0.161254
995,0,3.86524,-0.093544,0.0488783,0.146251
996,0,3.86644,-0.0945068,0.0474581,0.14276
999,0,3.86347,-0.0990093,0.0456768,0.135632
1000,0,3.86953,-0.0952096,0.0436843,0.131426
1001,0,3.86791,-0.0986081,0.0435196,0.128809
1002,0,3.87557,-0.0899807,0.0417054,0.125483
1003,0,3.87047,-0.101194,0.042161,0.124529
1004,0,3.86842,-0.0987215,0.042024,0.123082
1005,0,3.86723,-0.102325,0.0419199,0.122335
1006,0,3.86118,-0.106792,0.0423827,0.120813
1007,0,3.87559,-0.0972868,0.0401125,0.119644
1008,0,3.87901,-0.0897341,0.0395141,0.118515
1009,0,3.86948,-0.0924721,0.0397355,0.116876
1010,0,3.86717,-0.104084,0.0403349,0.11471
1011,0,3.86692,-0.108316,0.0403611,0.116015
1012,0,3.86559,-0.106878,0.0403215,0.116259
1013,0,3.87067,-0.108333,0.0406293,0.115968
1014,0,3.86434,-0.106937,0.0426179,0.118646
1015,0,3.86795,-0.101432,0.0421168,0.1225
1016,0,3.8696,-0.0938499,0.0414479,0.122941
1017,0,3.86679,-0.100935,0.0419624,0.121318
1018,0,3.8799,-0.0867687,0.0396986,0.11966
1019,0,3.87512,-0.0969743,0.0401455,0.119375
1020,0,3.87261,-0.096884,0.0399993,0.118109
1021,0,3.88431,-0.0841726,0.0376002,0.116084
1022,0,3.87834,-0.0942869,0.0379849,0.113749
1023,0,3.87696,-0.091893,0.0378632,0.112133
1024,0,3.87203,-0.101742,0.0383739,0.111546
1025,0,3.87113,-0.101434,0.038289,0.111162
1026,0,3.8701,-0.101241,0.0382166,0.110335
1027,0,3.87041,-0.103083,0.0382436,0.109881
1028,0,3.86957,-0.100409,0.0382051,0.109804
1029,0,3.86997,-0.0982939,0.0382775,0.109025
1030,0,3.86807,-0.100798,0.0381871,0.110406
1031,0,3.88309,-0.0880338,0.0359411,0.10881
1032,0,3.88399,-0.0908033,0.0359694,0.107453
1033,0,3.88293,-0.0878609,0.0359174,0.107552
1034,0,3.88087,-0.089283,0.0357949,0.107314
1035,0,3.87772,-0.0944046,0.03632,0.105747
1036,0,3.86434,-0.112234,0.0387255,0.107306
1037,0,3.87024,-0.102147,0.0382973,0.109718
1038,0,3.88352,-0.0837261,0.0359721,0.108722
1039,0,3.87252,-0.0984796,0.0383908,0.107312
1040,0,3.87323,-0.0967009,0.0384669,0.110208
1042,0,3.8819,-0.084873,0.0375129,0.113115