File: calce_correlation_analysis/matrices/CALCE_CX2_16_cycle_feature_matrix.csv
cycle_number,rul,voltage,current,capacity,charge_capacity
463,829,3.82268,-0.0233863,0.363679,0.964465
465,827,3.82318,-0.0221828,0.362972,0.966162
467,825,3.8232,-0.0214775,0.362952,0.962876
469,823,3.82458,-0.0205237,0.361067,0.961621
471,821,3.824,-0.0228179,0.363664,0.962143
473,819,3.82445,-0.0216354,0.361844,0.962542
475,817,3.82447,-0.021546,0.36185,0.962974
477,815,4.13018,0.382947,0.0685224,1.1006
479,813,3.82479,-0.0200651,0.360028,0.961293
482,811,3.82463,-0.0199918,0.36001,0.960352
484,809,3.82467,-0.0214343,0.361793,0.960752
486,807,3.82456,-0.0207679,0.360017,0.959177
488,805,3.82395,-0.0210669,0.359983,0.960612
490,803,3.82639,-0.0221812,0.360699,0.959461
492,801,3.82435,-0.0214323,0.360701,0.956762
494,799,3.82472,-0.0223675,0.360697,0.95709
496,797,3.82563,-0.0211278,0.359997,0.960167
498,795,3.82557,-0.0213543,0.358917,0.957224
500,793,3.83173,0.00370495,0.351942,0.957607
502,791,3.82414,-0.020595,0.358897,0.955968
504,789,3.82534,-0.020982,0.358887,0.954009
506,787,3.82816,-0.0186833,0.357495,0.954883
508,785,3.82686,-0.0208251,0.358906,0.95527
510,783,3.8329,-0.0121809,0.353713,0.959752
512,781,3.83585,-0.0217182,0.363019,0.952096
514,779,3.82631,-0.0188247,0.360485,0.967613
516,777,3.82793,-0.0208406,0.361185,0.961583
518,775,3.8399,0.00709209,0.346876,0.969406
520,773,3.82702,-0.0194283,0.360424,0.96272
522,771,3.82839,-0.0180775,0.359723,0.964023
524,769,3.82576,-0.0207866,0.361113,0.961587
526,767,3.834,-0.00496962,0.354838,0.963862
528,765,3.83561,-0.00179018,0.351035,0.962161
531,763,3.82783,-0.0145542,0.357864,0.960432
533,761,3.82672,-0.0193886,0.358193,0.956287
535,759,3.82597,-0.0210005,0.358908,0.954729
537,757,3.82708,-0.0213636,0.358864,0.955771
539,755,3.83058,-0.00889066,0.35219,0.954979
541,753,3.82661,-0.0210577,0.358854,0.956164
543,751,3.82402,-0.0207893,0.357031,0.953053
545,749,3.82593,-0.0214716,0.35774,0.952822
547,747,3.82529,-0.0188784,0.356327,0.954519
549,745,3.8239,-0.0225193,0.356625,0.948707
551,743,3.84072,0.00523433,0.343628,0.952397
554,741,3.82702,-0.0189341,0.355221,0.951877
556,739,3.82883,-0.0199304,0.355918,0.949505
559,737,3.83041,-0.114982,0.404119,0.717955
561,735,3.82539,-0.0225432,0.355533,0.944921
563,733,3.82793,-0.0204269,0.355913,0.947446
565,731,3.82702,-0.0154235,0.353387,0.947403
567,729,3.82663,-0.0222953,0.355517,0.94566
569,727,3.82627,-0.0205382,0.355888,0.949548
571,725,3.82637,-0.0204996,0.355893,0.947967
573,723,3.82923,-0.0192137,0.355217,0.951154
575,721,3.82785,-0.0193075,0.354101,0.948609
577,719,3.8258,-0.021718,0.355478,0.94495
579,717,3.82619,-0.0191944,0.352976,0.9451
581,715,3.82456,-0.0220459,0.354373,0.941038
583,713,3.82742,-0.0193821,0.35407,0.946413
585,711,3.82448,-0.0194352,0.352944,0.944714
587,709,3.82752,-0.0206016,0.353659,0.941981
589,707,3.82576,-0.0207204,0.352565,0.939316
591,705,3.8255,-0.0213247,0.352507,0.93761
593,703,3.82743,-0.0210333,0.353625,0.941917
596,701,3.82708,-0.0202772,0.351816,0.94148
598,699,3.82636,-0.0206601,0.353611,0.942381
600,697,3.826,-0.0203802,0.353602,0.941602
602,695,3.82699,-0.0189594,0.3529,0.942474
604,693,3.82756,-0.0197543,0.351811,0.941337
606,691,3.82479,-0.0218505,0.351399,0.937459
609,689,3.83674,-0.0450321,0.367201,0.887582
611,687,3.82484,-0.021162,0.353626,0.944815
613,685,3.82941,-0.0198239,0.352937,0.942648
615,683,3.82613,-0.0164495,0.352196,0.944105
617,681,3.82665,-0.0214848,0.352515,0.938818
619,679,3.82794,-0.0204523,0.352926,0.944366
621,677,3.82736,-0.0178079,0.351097,0.942422
623,675,3.82846,-0.0202872,0.353582,0.940589
626,673,3.82804,-0.0191889,0.349979,0.93695
628,671,3.82628,-0.0219461,0.351366,0.933326
630,669,3.82787,-0.0192023,0.349969,0.937795
632,667,3.82439,-0.021556,0.351359,0.936039
634,665,3.82717,-0.0193787,0.350677,0.935412
636,663,3.83032,-0.00822133,0.346051,0.934078
638,661,3.82809,-0.0192008,0.349548,0.930529
640,659,3.82705,-0.0208112,0.349563,0.933542
642,657,3.82351,-0.0220319,0.349147,0.928636
645,655,3.82666,-0.0171382,0.349934,0.936067
647,653,3.82744,-0.0185391,0.348837,0.935066
649,651,3.8263,-0.0205553,0.35064,0.935412
651,649,3.83238,-0.00879151,0.344661,0.935616
653,647,3.82607,-0.0220847,0.349522,0.931468
655,645,3.82742,-0.0184311,0.348846,0.933239
657,643,3.82726,-0.0201582,0.348444,0.92962
662,641,3.82477,-0.0209493,0.352593,0.940935
664,639,3.82757,-0.0193243,0.351881,0.942511
666,637,3.82588,-0.0195732,0.350737,0.939409
668,635,3.82717,-0.019156,0.349617,0.934211
670,633,3.82515,-0.0200029,0.349615,0.935019
672,631,3.82436,-0.0203776,0.348472,0.931258
675,629,3.82743,-0.0184901,0.347069,0.934533
677,627,3.82661,-0.0198553,0.346653,0.929661
679,625,3.8256,-0.0205361,0.347351,0.926812
681,623,3.82493,-0.020995,0.346238,0.924497
683,621,3.82487,-0.0206639,0.346208,0.923255
685,619,3.82585,-0.0216907,0.347318,0.924625
687,617,3.82446,-0.0216967,0.346193,0.922476
689,615,3.82479,-0.0226405,0.346925,0.921739
691,613,3.82508,-0.0199756,0.345474,0.925614
693,611,3.82588,-0.0229666,0.345801,0.918805
695,609,3.82601,-0.019438,0.345475,0.923784
697,607,3.82539,-0.0209293,0.34436,0.921515
699,605,3.82705,-0.0213756,0.346179,0.923089
701,603,3.82552,-0.0206995,0.344353,0.92086
703,601,3.82572,-0.0210452,0.345061,0.918469
705,599,3.82499,-0.0211359,0.345061,0.918987
707,597,3.82554,-0.0216754,0.343964,0.916606
709,595,3.83173,-0.0239722,0.349446,0.918837
711,593,3.82629,-0.0193386,0.343688,0.924752
713,591,3.82632,-0.0209194,0.344379,0.921028
715,589,3.82516,-0.0212951,0.345067,0.919928
717,587,3.82572,-0.0215029,0.343968,0.916859
719,585,3.82718,-0.0203898,0.343263,0.919643
721,583,3.82697,-0.020231,0.343259,0.919161
723,581,3.82806,-0.0191652,0.344772,0.924035
725,579,3.8269,-0.0201309,0.344357,0.921542
727,577,3.82759,-0.0209138,0.344359,0.918069
729,575,3.82859,-0.0177538,0.341872,0.920903
731,573,3.82508,-0.0221011,0.343954,0.915095
733,571,3.82866,-0.0203163,0.343261,0.917082
735,569,3.82795,-0.0208792,0.343254,0.917061
737,567,3.82776,-0.0201713,0.343246,0.916924
739,565,3.82833,-0.0187229,0.342558,0.91839
741,563,3.8277,-0.0197146,0.341431,0.917315
743,561,3.82902,-0.0197715,0.34253,0.917169
745,559,3.82752,-0.0191368,0.341414,0.914609
747,557,3.82516,-0.0223019,0.342826,0.910656
749,555,3.8277,-0.0201176,0.341398,0.914252
751,553,3.82646,-0.0211185,0.342107,0.913557
753,551,3.82601,-0.0213237,0.34209,0.914209
755,549,3.82694,-0.0194294,0.3414,0.914265
758,547,3.82639,-0.0189202,0.343178,0.914997
760,545,3.82432,-0.0250284,0.345823,0.924421
762,543,3.82459,-0.0251473,0.34471,0.920593
764,541,3.82362,-0.0265898,0.346519,0.920132
766,539,3.82315,-0.0267237,0.345397,0.916157
768,537,3.82382,-0.0264721,0.345383,0.91652
771,535,3.80991,-0.228557,0.443969,0.489485
773,533,3.82378,-0.0273128,0.345385,0.914501
775,531,3.82525,-0.0259706,0.34355,0.91482
777,529,3.82483,-0.0257103,0.344658,0.916589
780,527,3.82534,-0.024853,0.341735,0.915528
782,525,3.82532,-0.0251345,0.343545,0.913067
784,523,3.82432,-0.026628,0.342441,0.91045
786,521,3.82623,-0.0261298,0.342451,0.910978
788,519,3.8229,-0.0261336,0.342415,0.909654
790,517,3.82427,-0.0256502,0.341301,0.906372
792,515,3.82492,-0.0268785,0.341316,0.907203
794,513,3.82384,-0.02606,0.342415,0.909846
796,511,3.82493,-0.0263681,0.341303,0.906126
798,509,3.82393,-0.0261092,0.342411,0.909066
800,507,3.82592,-0.0250136,0.340596,0.90917
802,505,3.82648,-0.0254949,0.341698,0.911179
804,503,3.82514,-0.0242795,0.340573,0.908293
806,501,3.82533,-0.0254311,0.34238,0.908814
808,499,3.82512,-0.0251859,0.341686,0.911136
810,497,3.82368,-0.0269566,0.341268,0.905428
812,495,3.82519,-0.0261238,0.34238,0.908527
814,493,3.82597,-0.0257846,0.340572,0.907932
816,491,3.82447,-0.0258372,0.342376,0.90785
818,489,3.82616,-0.0255169,0.340579,0.907039
820,487,3.82374,-0.0257969,0.340161,0.900812
822,485,3.82503,-0.024985,0.340569,0.909462
824,483,3.82497,-0.0249944,0.339433,0.906796
826,481,3.82416,-0.0266766,0.340134,0.903831
828,479,3.82279,-0.0270653,0.340124,0.90375
830,477,3.8242,-0.0271744,0.339016,0.899701
832,475,3.82421,-0.0271668,0.339001,0.899262
834,473,3.82307,-0.0271596,0.339006,0.899391
836,471,3.82419,-0.0272638,0.340098,0.902213
838,469,3.82451,-0.02571,0.338282,0.902038
840,467,3.82522,-0.0257278,0.338278,0.8986
842,465,3.82558,-0.026033,0.338296,0.900527
844,463,3.82329,-0.0275298,0.338975,0.898546
846,461,3.82439,-0.0269846,0.338982,0.897988
848,459,3.8229,-0.0275895,0.338977,0.898048
850,457,3.82457,-0.0262117,0.33715,0.898385
852,455,3.82556,-0.0264812,0.337166,0.897334
854,453,3.82477,-0.0264374,0.33605,0.894657
856,451,3.82543,-0.0275096,0.337859,0.894577
858,449,3.82478,-0.024535,0.336445,0.899688
860,447,3.82464,-0.0259691,0.336046,0.89391
862,445,3.82572,-0.0250442,0.335322,0.89384
864,443,3.82429,-0.0270993,0.336034,0.89437
866,441,3.82335,-0.0280045,0.336737,0.89104
868,439,3.82439,-0.0269512,0.33603,0.894512
870,437,3.8233,-0.02586,0.336015,0.893785
872,435,3.82458,-0.0242139,0.336479,0.901161
874,433,3.82445,-0.0260273,0.336066,0.894293
876,431,3.8261,-0.0265662,0.337192,0.897163
878,429,3.82499,-0.025497,0.336082,0.892739
880,427,3.82417,-0.027923,0.33788,0.894847
882,425,3.8249,-0.0253644,0.335389,0.895458
885,423,3.82361,-0.0265905,0.336089,0.894393
887,421,3.82609,-0.0253754,0.335407,0.896556
890,419,3.8232,-0.0268708,0.336084,0.892926
892,417,3.82508,-0.0269722,0.335,0.889862
894,415,3.82423,-0.0271206,0.334973,0.889893
897,413,3.82361,-0.0267042,0.334978,0.890015
899,411,3.82366,-0.0271437,0.33497,0.890101
901,409,3.82327,-0.0269564,0.334958,0.889857
903,407,3.82305,-0.0261963,0.334961,0.88937
905,405,3.82506,-0.0273517,0.334988,0.88888
907,403,3.82474,-0.0261933,0.333136,0.889263
909,401,3.82454,-0.0266911,0.334945,0.889299
911,399,3.82476,-0.0261243,0.333104,0.888681
913,397,3.8241,-0.0275197,0.333868,0.885605
915,395,3.8242,-0.0270426,0.334964,0.887955
917,393,3.82393,-0.027651,0.333862,0.885251
919,391,3.82653,-0.0253274,0.333143,0.888294
921,389,3.82325,-0.0262684,0.333113,0.887606
923,387,3.82464,-0.026448,0.332017,0.885159
925,385,3.82536,-0.0262669,0.333144,0.887999
927,383,3.82418,-0.0266032,0.333126,0.888147
929,381,3.82322,-0.0278638,0.333835,0.885154
931,379,3.82485,-0.0267011,0.33202,0.884777
933,377,3.82488,-0.0267293,0.33202,0.884907
935,375,3.82443,-0.0257313,0.332026,0.884167
937,373,3.82275,-0.0284408,0.332705,0.881759
940,371,3.82665,-0.0233626,0.334706,0.889802
943,369,3.82701,-0.0222372,0.33625,0.904901
945,367,3.82614,-0.0251396,0.337642,0.900349
949,365,3.82399,-0.0226643,0.335092,0.90237
951,363,3.82706,-0.0231916,0.332891,0.896046
953,361,3.82743,-0.0251379,0.338763,0.90157
957,359,3.82633,-0.0281461,0.337948,0.892657
959,357,3.82901,-0.0235736,0.338095,0.904004
961,355,3.82859,-0.0239141,0.339918,0.905836
963,353,3.82828,-0.0237013,0.341038,0.909069
970,351,3.82643,-0.0244291,0.335828,0.897701
974,349,3.82796,-0.0259355,0.338411,0.897389
976,347,3.82461,-0.0217717,0.336257,0.904808
979,345,3.77109,-0.399582,0.517415,0.198582
981,343,3.8278,-0.0238897,0.339901,0.906016
983,341,3.82776,-0.0239478,0.341028,0.909169
985,339,3.82955,-0.0224038,0.340351,0.911742
988,337,3.82894,-0.0223331,0.341454,0.915706
992,335,3.82709,-0.0189254,0.335998,0.911451
996,333,3.82892,-0.0250836,0.336556,0.894949
999,331,3.8267,-0.0237023,0.334706,0.89816
1001,329,3.82386,-0.0236817,0.334682,0.89432
1003,327,3.82834,-0.0222052,0.335138,0.901113
1005,325,3.82781,-0.0227167,0.332884,0.894046
1007,323,3.82958,-0.0255135,0.336519,0.895542
1009,321,3.82528,-0.0231996,0.332873,0.89296
1011,319,3.82508,-0.0242983,0.333565,0.890505
1013,317,3.82739,-0.0247608,0.337639,0.898707
1015,315,3.8263,-0.0240146,0.33357,0.890715
1018,313,3.82937,-0.0234056,0.335834,0.898239
1020,311,3.82873,-0.0232145,0.338077,0.904791
1022,309,3.82844,-0.0229257,0.339187,0.907627
1024,307,3.82934,-0.0227777,0.3392,0.906855
1031,305,3.76776,-0.412157,0.520267,0.165692
1034,303,3.8281,-0.0234179,0.336943,0.900395
1036,301,3.82754,-0.0235408,0.332855,0.892694
1038,299,3.82894,-0.0260192,0.335425,0.890507
1041,297,3.8283,-0.0236352,0.332832,0.891702
1043,295,3.82828,-0.0264352,0.334311,0.887252
1045,293,3.82436,-0.0227595,0.332899,0.892535
1047,291,3.82776,-0.0230193,0.331767,0.889855
1049,289,3.82745,-0.0251311,0.336525,0.89397
1051,287,3.82822,-0.023954,0.331756,0.889182
1054,285,3.82928,-0.0248823,0.334706,0.891193
1056,283,3.82848,-0.0227409,0.336228,0.900277
1058,281,3.83003,-0.0220762,0.336264,0.902869
1060,279,3.82818,-0.0234547,0.338062,0.902887
1062,277,3.82922,-0.022215,0.337361,0.906371
1066,275,3.82544,-0.0230346,0.332873,0.893371
1068,273,3.82873,-0.021155,0.329245,0.890333
1070,271,3.82801,-0.0238942,0.335821,0.896375
1072,269,3.82801,-0.0241189,0.331762,0.886684
1074,267,3.82825,-0.0259944,0.333193,0.88487
1076,265,3.82573,-0.0205829,0.329255,0.891466
1080,263,3.82852,-0.0241451,0.333602,0.889636
1085,261,3.82697,-0.0219508,0.333373,0.899568
1087,259,3.82782,-0.0205038,0.33156,0.899304
1092,257,3.8264,-0.0234549,0.334058,0.897164
1098,255,3.82651,-0.0204974,0.331539,0.89937
1100,253,3.82658,-0.0230017,0.332866,0.89289
1103,251,3.82181,-0.0223075,0.334013,0.895428
1105,249,3.82765,-0.02307,0.331807,0.888676
1107,247,3.8295,-0.0229021,0.334064,0.896033
1109,245,3.82814,-0.0227519,0.328855,0.883645
1112,243,3.82888,-0.0246486,0.332536,0.885539
1115,241,3.82833,-0.0232802,0.328812,0.882519
1118,239,3.82719,-0.0245066,0.333578,0.888719
1120,237,3.82832,-0.0231095,0.333982,0.895295
1122,235,3.82802,-0.0227689,0.33511,0.898534
1124,233,3.8288,-0.0228727,0.33516,0.898047
1126,231,3.82805,-0.0221041,0.336266,0.900942
1130,229,3.82777,-0.0235584,0.331731,0.888019
1132,227,3.82749,-0.0251385,0.332495,0.886217
1134,225,3.82562,-0.0212783,0.330372,0.89289
1136,223,3.82766,-0.0232465,0.331706,0.887684
1138,221,3.82835,-0.0247179,0.333538,0.888311
1140,219,3.82774,-0.0235341,0.330587,0.884568
1142,217,3.82745,-0.0211763,0.328085,0.886348
1144,215,3.82923,-0.0208458,0.330335,0.893786
1146,213,3.82775,-0.0238365,0.335881,0.897681
1148,211,3.82633,-0.0229971,0.332931,0.892913
1151,209,3.82973,-0.0243549,0.333613,0.889015
1153,207,3.82792,-0.022931,0.33514,0.898425
1155,205,3.82997,-0.0214506,0.334457,0.901034
1157,203,3.82926,-0.0209316,0.335558,0.904348
1159,201,3.82982,-0.0214173,0.335619,0.904087
1161,199,3.82992,-0.0215381,0.335613,0.90362
1164,197,3.82823,-0.0212436,0.329269,0.892458
1166,195,3.82604,-0.0238905,0.330657,0.884121
1168,193,3.82807,-0.0197926,0.329691,0.896309
1170,191,3.82656,-0.02266,0.328812,0.883374
1172,189,3.82975,-0.0251256,0.331378,0.880374
1174,187,3.82835,-0.0195698,0.324463,0.882539
1176,185,3.82696,-0.0231929,0.326552,0.876119
1178,183,3.82923,-0.0226823,0.329929,0.886725
1180,181,3.82655,-0.0244274,0.328384,0.876598
1182,179,3.82944,-0.0243322,0.328428,0.877154
1184,177,3.82477,-0.0217655,0.326993,0.881521
1186,175,3.8268,-0.0230529,0.327773,0.878805
1188,173,3.82974,-0.0243961,0.33077,0.882425
1190,171,3.8288,-0.0224983,0.332297,0.892257
1195,169,3.83438,-0.0383289,0.336049,0.866347
1198,167,3.82792,-0.0193539,0.32862,0.893495
1200,165,3.82829,-0.021725,0.328131,0.885479
1202,163,3.83008,-0.0226527,0.32997,0.885625
1204,161,3.82782,-0.0212903,0.327021,0.883408
1206,159,3.82632,-0.0214962,0.325874,0.879021
1209,157,3.82737,-0.0224211,0.327005,0.880763
1212,155,3.82352,-0.0214339,0.324058,0.878612
1214,153,3.826,-0.0255543,0.32618,0.868943
1217,151,3.82622,-0.0189092,0.321561,0.879128
1219,149,3.82703,-0.0242914,0.324349,0.868345
1221,147,3.8294,-0.0251502,0.327328,0.871671
1223,145,3.8266,-0.0227453,0.322535,0.867739
1227,143,3.82782,-0.0237261,0.327721,0.878533
1229,141,3.8281,-0.0232373,0.328845,0.881289
1231,139,3.828,-0.0230656,0.329961,0.884725
1239,137,3.82862,-0.0226602,0.323639,0.870674
1241,135,3.82634,-0.0245676,0.32433,0.86851
1243,133,3.82774,-0.0189322,0.321538,0.878366
1245,131,3.82713,-0.023055,0.321358,0.863105
1248,129,3.82941,-0.0202682,0.32222,0.876303
1250,127,3.82759,-0.0238178,0.320235,0.86025
1252,125,3.82759,-0.0273882,0.324611,0.858802
1254,123,3.82412,-0.0221538,0.320642,0.867248
1256,121,3.82678,-0.0237948,0.320225,0.859891
1261,119,3.82872,-0.0217879,0.327039,0.882556
1263,117,3.82807,-0.0217316,0.328156,0.885664
1272,115,3.82808,-0.0208122,0.321127,0.869975
1274,113,3.82551,-0.0217836,0.317706,0.859818
1278,111,3.82646,-0.023793,0.317284,0.853284
1282,109,3.82327,-0.0203512,0.314737,0.856223
1285,107,3.82643,-0.0260805,0.315726,0.844048
1288,105,3.82636,-0.0245964,0.315016,0.846437
1290,103,3.82457,-0.0242357,0.31501,0.846719
1292,101,3.82567,-0.0241422,0.31909,0.855115
1296,99,3.82785,-0.0271584,0.317558,0.845041
1298,97,3.82579,-0.0253681,0.320937,0.855544
1300,95,3.82655,-0.023632,0.321353,0.862583
1302,93,3.82778,-0.0229664,0.321378,0.861138
1304,91,3.82656,-0.0232009,0.322488,0.865488
1306,89,3.82782,-0.0238565,0.322508,0.865763
1315,87,3.82361,-0.0220941,0.316656,0.856915
1317,85,3.82632,-0.0231899,0.316219,0.850369
1320,83,3.82653,-0.0205413,0.315957,0.858991
1322,81,3.82572,-0.0247037,0.316907,0.846689
1325,79,3.8272,-0.022928,0.318465,0.856925
1330,77,3.82809,-0.0245328,0.319095,0.854496
1332,75,3.8267,-0.0239761,0.321333,0.861292
1334,73,3.82703,-0.0239356,0.322518,0.864302
1344,71,3.82579,-0.0235272,0.314991,0.846487
1347,69,3.82345,-0.0204321,0.313568,0.853162
1349,67,3.82659,-0.0241232,0.313864,0.843563
1352,65,3.82585,-0.0197703,0.31178,0.850098
1354,63,3.82443,-0.0256991,0.314575,0.839671
1356,61,3.82908,-0.0260486,0.315705,0.840242
1358,59,3.82415,-0.0239825,0.312716,0.83841
1361,57,3.82665,-0.0291098,0.314895,0.831535
1365,55,3.82581,-0.0245097,0.316834,0.847735
1367,53,3.82629,-0.0244405,0.317975,0.850132
1376,51,3.82604,-0.0192026,0.314061,0.858757
1379,49,3.82298,-0.023259,0.310867,0.837364
1383,47,3.82447,-0.0257389,0.311566,0.83258
1388,45,3.82472,-0.0205606,0.308347,0.840128
1390,43,3.8252,-0.0248701,0.310447,0.831032
1393,41,3.82647,-0.0214362,0.311343,0.843858
1395,39,3.8239,-0.026238,0.312273,0.831325
1398,37,3.82755,-0.0241759,0.313876,0.841705
1400,35,3.82627,-0.0237289,0.31613,0.848891
1402,33,3.82767,-0.0238037,0.316165,0.84816
1404,31,3.82701,-0.0237598,0.317282,0.852205
1413,29,3.82598,-0.0288696,0.316013,0.832941
1416,27,3.82422,-0.024907,0.31158,0.834736
1418,25,3.82478,-0.0267378,0.3112,0.827732
1421,23,3.82387,-0.0252669,0.310442,0.831006
1424,21,3.82588,-0.0273813,0.314113,0.832024
1426,19,3.82464,-0.0236268,0.308601,0.829598
1430,17,3.8266,-0.0292287,0.311906,0.821705
1436,15,3.82463,-0.0283501,0.308911,0.824108
1439,13,3.82379,-0.0255529,0.306356,0.822557
1441,11,3.82151,-0.0271226,0.307091,0.818443
1447,9,3.82494,-0.0311037,0.309242,0.811316
1454,7,3.82416,-0.0265633,0.30932,0.82387
1456,5,3.82488,-0.0252189,0.310469,0.830294
1465,3,3.8209,-0.0186769,0.304694,0.836823
1467,1,3.82145,-0.0279586,0.304796,0.810765
1469,0,3.82158,-0.0267651,0.302949,0.809892
1471,0,3.82076,-0.028408,0.302533,0.803526
1473,0,3.82228,-0.0258838,0.301833,0.806349
1475,0,3.82212,-0.0270081,0.300705,0.803122
1477,0,3.82133,-0.0290182,0.302518,0.80306
1479,0,3.82027,-0.0273017,0.300676,0.802009
1481,0,3.82023,-0.0279461,0.301387,0.799777
1483,0,3.82057,-0.0298353,0.302131,0.79794
1485,0,3.82679,-0.041442,0.309436,0.789351
1488,0,3.82059,-0.02724,0.300673,0.804585
1490,0,3.81919,-0.0291269,0.301366,0.800996
1493,0,3.81764,-0.0281807,0.299534,0.79986
1495,0,3.82029,-0.0266451,0.298417,0.796832
1497,0,3.82083,-0.0297301,0.300265,0.796103
1499,0,3.82044,-0.0277717,0.300704,0.802909
1501,0,3.81946,-0.0266245,0.299558,0.798932
1503,0,3.81943,-0.0293864,0.300281,0.795911
1505,0,3.81897,-0.0296414,0.300268,0.795983
1507,0,3.81993,-0.0280989,0.298413,0.796054
1509,0,3.82006,-0.029949,0.299121,0.792114
1511,0,3.8205,-0.0298154,0.298004,0.789321
1513,0,3.81896,-0.0282639,0.29728,0.792415
1515,0,3.81861,-0.0288247,0.296146,0.788383
1517,0,3.81915,-0.0282428,0.295037,0.785192
1519,0,3.81763,-0.0307387,0.295753,0.78212
1521,0,3.81779,-0.0309466,0.295747,0.78222
1523,0,3.81725,-0.0309113,0.295743,0.78216
1525,0,3.81836,-0.0310222,0.295753,0.781674
1527,0,3.81726,-0.0307158,0.294612,0.778805
1529,0,3.81726,-0.0322373,0.293486,0.774658
1531,0,3.81974,-0.0306754,0.295769,0.78228
1535,0,3.82142,-0.025273,0.29246,0.781572
1537,0,3.81771,-0.0259033,0.293148,0.779518
1539,0,3.82074,-0.0236101,0.293585,0.784517
1541,0,3.818,-0.0266476,0.293142,0.777668
1543,0,3.81877,-0.0265528,0.293151,0.778716
1545,0,3.81735,-0.0262235,0.293146,0.779527
1547,0,3.8187,-0.0266618,0.292037,0.776369
1549,0,3.82033,-0.0260174,0.291325,0.77639
1551,0,3.81976,-0.0227814,0.292889,0.788882
1553,0,3.82005,-0.0245303,0.29474,0.787111
1555,0,3.82081,-0.0256312,0.295451,0.787032
1557,0,3.81932,-0.0258301,0.295452,0.786894
1559,0,3.81915,-0.0259267,0.294317,0.782848
1562,0,3.8188,-0.0239614,0.295868,0.791023
1564,0,3.81789,-0.0250269,0.292444,0.780755
1566,0,3.81989,-0.0281566,0.293887,0.775946
1568,0,3.81674,-0.0253247,0.291304,0.777275
1570,0,3.81893,-0.0268013,0.29092,0.771473
1572,0,3.81391,-0.0281758,0.295661,0.777344
1575,0,3.8196,-0.0261024,0.290197,0.773161
1577,0,3.81998,-0.0265411,0.292037,0.775151
1579,0,3.81858,-0.0248733,0.291343,0.778232
1581,0,3.81824,-0.0270151,0.292054,0.77639
1584,0,3.8194,-0.0302842,0.262959,0.738103
1586,0,3.82114,-0.0295464,0.261526,0.732929
1588,0,3.82246,-0.0306924,0.260144,0.731788
1590,0,3.82072,-0.0295446,0.257991,0.728087
1592,0,3.82121,-0.0303646,0.257319,0.724175
1594,0,3.82119,-0.0314756,0.257307,0.721275
1597,0,3.81842,-0.0324988,0.258014,0.723425
1599,0,3.81845,-0.0320279,0.258009,0.720583
1601,0,3.82249,-0.0293459,0.255188,0.721351
1603,0,3.81907,-0.0321039,0.258007,0.720783
1605,0,3.82186,-0.0295264,0.25518,0.721005
1607,0,3.82073,-0.0327396,0.255335,0.717334
1610,0,3.81988,-0.0326653,0.255222,0.713744
1612,0,3.81834,-0.0336225,0.2566,0.714605
1614,0,3.81838,-0.0322104,0.258008,0.72046
1616,0,3.8185,-0.0317466,0.255883,0.717707
1618,0,3.82027,-0.0306383,0.254503,0.714317
1620,0,3.81818,-0.0324776,0.256586,0.716455
1622,0,3.81932,-0.0308916,0.253101,0.712817
1624,0,3.81824,-0.0339735,0.253804,0.707521
1626,0,3.81803,-0.034835,0.255927,0.710636
1630,0,3.81738,-0.0291518,0.255167,0.722045
1632,0,3.81822,-0.0344787,0.255947,0.710442
1638,0,3.81906,-0.0299845,0.257312,0.721474
1642,0,3.8164,-0.0308792,0.257295,0.723721
1644,0,3.81775,-0.032893,0.256628,0.716417
1646,0,3.8179,-0.0324081,0.258024,0.719406
1648,0,3.81851,-0.0271483,0.254475,0.723068
1650,0,3.8189,-0.0316684,0.25451,0.712849
1653,0,3.81821,-0.0306598,0.255901,0.721696
1655,0,3.82082,-0.0269115,0.251673,0.715836
1657,0,3.81854,-0.0317425,0.254489,0.712598
1659,0,3.81679,-0.0348686,0.257347,0.712939
1661,0,3.8169,-0.0292492,0.253775,0.715759
1663,0,3.8171,-0.0332826,0.253815,0.708284
1665,0,3.81805,-0.0333589,0.253339,0.708932
1667,0,3.81747,-0.0328837,0.255208,0.71203
1669,0,3.81835,-0.0312417,0.253096,0.710895
1671,0,3.81685,-0.0328021,0.25383,0.707519
1674,0,3.81946,-0.0290387,0.25523,0.719784
1676,0,3.81841,-0.0300388,0.255211,0.718376
1680,0,3.81624,-0.0316232,0.25733,0.722823
1682,0,3.81784,-0.028788,0.25239,0.711957
1686,0,3.81934,-0.0272786,0.250832,0.717608
1688,0,3.81608,-0.0315493,0.254507,0.713847
1690,0,3.81629,-0.0321372,0.254511,0.712514
1692,0,3.81538,-0.0328458,0.255231,0.712501
1694,0,3.81444,-0.0331236,0.255218,0.712768
1696,0,3.81803,-0.0310978,0.253122,0.711709
1698,0,3.81671,-0.0311065,0.253122,0.712206
1700,0,3.81456,-0.0329366,0.253808,0.708122
1705,0,3.81441,-0.032863,0.256633,0.716417
1707,0,3.81608,-0.0325412,0.255273,0.711654
1711,0,3.81453,-0.0339848,0.252414,0.703373
1713,0,3.81345,-0.033479,0.253667,0.70722
1715,0,3.81466,-0.0339393,0.255229,0.710645
1717,0,3.81561,-0.0320258,0.251727,0.706231
1719,0,3.81261,-0.034725,0.254556,0.705558
1721,0,3.81388,-0.0330021,0.252429,0.70504
1723,0,3.81453,-0.0328849,0.248894,0.697822
1725,0,3.81141,-0.0339809,0.24819,0.694078
1728,0,3.81413,-0.0355891,0.24895,0.690521
1739,0,3.81086,-0.0327621,0.260866,0.730877
1741,0,3.80912,-0.032789,0.261555,0.726747
1748,0,3.8128,-0.0399091,0.263827,0.71886
1753,0,3.80857,-0.0350511,0.257355,0.712026
1756,0,3.81271,-0.0264199,0.254473,0.726698
1758,0,3.80967,-0.0363232,0.258078,0.709746
1760,0,3.81152,-0.0357918,0.257368,0.711057
1764,0,3.81236,-0.0327768,0.253836,0.7092
1766,0,3.80804,-0.0346931,0.255951,0.70971
1775,0,3.81147,-0.034695,0.260204,0.723222
1777,0,3.81097,-0.0341708,0.26301,0.731337
1779,0,3.81262,-0.0322518,0.260905,0.730254
1781,0,3.81099,-0.0348956,0.263029,0.731959
1793,0,3.80819,-0.0240978,0.248831,0.718671
1795,0,3.81133,-0.0353869,0.251774,0.698505
1800,0,3.80994,-0.0310944,0.250331,0.706122
1802,0,3.81729,-0.0565992,0.260692,0.681399
1811,0,3.80824,-0.0362906,0.259517,0.716927
1813,0,3.80796,-0.0359563,0.26092,0.720703
1815,0,3.80935,-0.0348261,0.262997,0.730428
1830,0,3.80623,-0.0274064,0.251702,0.718279
1832,0,3.80886,-0.0331486,0.251066,0.702416
1834,0,3.80984,-0.0386024,0.253681,0.697954
1837,0,3.80882,-0.0344012,0.249629,0.695073
1840,0,3.80686,-0.0385505,0.252486,0.693457
1843,0,3.80519,-0.0375007,0.25106,0.69235
1845,0,3.80578,-0.037554,0.251051,0.691794
1856,0,3.80651,-0.0337177,0.251003,0.701932
1859,0,3.80809,-0.0406414,0.25323,0.691171
1863,0,3.8071,-0.0384928,0.252458,0.694357
1868,0,3.80476,-0.0280114,0.247432,0.709186
1871,0,3.75834,-0.330945,0.352348,0.287496
1876,0,3.80654,-0.0401147,0.250408,0.689124
1882,0,3.80781,-0.0367186,0.247529,0.685644
1884,0,3.80423,-0.0377656,0.249632,0.688317
1889,0,3.80537,-0.0372774,0.248906,0.688882
1893,0,3.80389,-0.0318759,0.251672,0.712334
1899,0,3.80454,-0.0393138,0.256022,0.702978
1901,0,3.80761,-0.0355728,0.255846,0.712073
1911,0,3.80574,-0.031468,0.255916,0.726651
1920,0,3.80472,-0.0377709,0.251083,0.693784
1926,0,3.80069,-0.0377052,0.253875,0.702239
1928,0,3.80357,-0.0374541,0.25248,0.697883
1933,0,3.80484,-0.0360894,0.251759,0.700062
1937,0,3.79974,-0.0298827,0.250946,0.713545
1943,0,3.80182,-0.0315329,0.250295,0.707967
1949,0,3.80149,-0.0394171,0.257409,0.706903
1951,0,3.80341,-0.0390293,0.258862,0.71354
1964,0,3.80176,-0.0391345,0.251062,0.691726
1968,0,3.79917,-0.0354727,0.251745,0.704349
1970,0,3.80091,-0.0394553,0.251832,0.692128
1975,0,3.80257,-0.0301245,0.246773,0.70612
1977,0,3.79942,-0.0395812,0.251254,0.691082
1981,0,3.79889,-0.0339422,0.249626,0.702399
1983,0,3.79736,-0.0376627,0.251738,0.690092
1992,0,3.79832,-0.0444367,0.263899,0.713382
1994,0,3.80226,-0.0408357,0.265251,0.730114
2004,0,3.79891,-0.0291405,0.260862,0.746352
2011,0,3.79851,-0.0384954,0.253903,0.703257
2016,0,3.79835,-0.0303957,0.252382,0.716481
2025,0,3.79911,-0.0411681,0.262427,0.719941
2027,0,3.79709,-0.0409341,0.262425,0.721827
2036,0,3.79845,-0.0310278,0.258775,0.739246
2046,0,3.79617,-0.0465902,0.247692,0.66781
2051,0,3.79474,-0.0432061,0.244102,0.664338
2056,0,3.79455,-0.0432122,0.244127,0.665852
2065,0,3.7948,-0.0510415,0.251358,0.666375
2072,0,3.79139,-0.0450215,0.251898,0.680754
2081,0,3.7887,-0.038643,0.249662,0.696805
2083,0,3.79265,-0.0449788,0.249126,0.677717
2093,0,3.79296,-0.0470468,0.261864,0.707617
2095,0,3.79501,-0.0465881,0.26471,0.716336
2126,0,3.78756,-0.0466731,0.249828,0.675553
2131,0,3.78772,-0.0438048,0.249741,0.679544
2140,0,3.78617,-0.0362014,0.246113,0.691231
2142,0,3.78922,-0.0447154,0.247687,0.674249
2152,0,3.79041,-0.0504168,0.262592,0.703741
2154,0,3.79179,-0.0485657,0.265424,0.715296
2173,0,3.78601,-0.0539537,0.25073,0.663618
2177,0,3.7866,-0.0486779,0.244206,0.660789
2182,0,3.78634,-0.0589421,0.252264,0.660001
2189,0,3.78672,-0.0542612,0.254917,0.676892
2191,0,3.78763,-0.0519396,0.259167,0.692162
2214,0,3.78369,-0.0402759,0.242637,0.676849
2220,0,3.78412,-0.0388235,0.241246,0.674866
2234,0,3.78243,-0.0488295,0.244208,0.661328
2236,0,3.78275,-0.0476357,0.241401,0.652044
2245,0,3.78415,-0.0380762,0.236319,0.663616
2270,0,3.77875,-0.0420316,0.245565,0.67905
2276,0,3.77987,-0.0445338,0.237134,0.65292
2286,0,3.78235,-0.0537013,0.254947,0.680703
2306,0,3.7762,-0.0581053,0.237473,0.616489
2310,0,3.7797,-0.0546824,0.232184,0.620605
2319,0,3.78024,-0.0635372,0.237679,0.608834
2348,0,3.77762,-0.0547143,0.223929,0.594429
2353,0,3.77643,-0.0466504,0.223049,0.609798
2361,0,3.77894,-0.0573021,0.247345,0.655178
2389,0,3.77594,-0.0623152,0.242507,0.635141
2391,0,3.77597,-0.0578023,0.248115,0.6522
2412,0,3.76885,-0.0660514,0.231252,0.601339
2416,0,3.77223,-0.0610875,0.228293,0.604493
2418,0,3.77122,-0.0600843,0.226583,0.597227
2427,0,3.77343,-0.0437612,0.221596,0.618293
2433,0,3.771,-0.0379918,0.220063,0.620683
2446,0,3.77332,-0.047101,0.213911,0.591497
2452,0,3.77289,-0.0433924,0.215192,0.603808
2459,0,3.77262,-0.0603632,0.236162,0.622997
2474,0,3.76498,-0.0681506,0.225916,0.576416
2478,0,3.76923,-0.0611237,0.22177,0.585144