File: calce_correlation_analysis/matrices/CALCE_CX2_35_cycle_feature_matrix.csv
cycle_number,rul,voltage,current,capacity,charge_capacity
6,740,3.819,-0.0324221,0.358296,0.999249
8,738,3.82071,-0.0324181,0.356865,0.995131
10,736,3.82428,-0.0296359,0.356845,1.00052
12,734,3.8225,-0.0314508,0.35475,0.992944
14,732,3.82465,-0.0355589,0.358313,0.989573
16,730,3.81815,-0.0316162,0.354704,0.9923
18,728,3.82224,-0.0327565,0.354051,0.985794
20,726,3.82213,-0.0329208,0.356787,0.989472
22,724,3.82317,-0.0303164,0.355326,0.993926
24,722,3.82319,-0.0304878,0.355315,0.99194
26,720,3.82307,-0.0306147,0.355305,0.991859
28,718,3.82302,-0.0304584,0.355299,0.991549
33,716,3.82277,-0.0321139,0.351907,0.982304
35,714,3.82391,-0.0347797,0.354687,0.981708
37,712,3.81816,-0.0308767,0.351126,0.98193
39,710,3.82236,-0.0334253,0.351207,0.975973
41,708,3.82361,-0.0324246,0.353284,0.982734
43,706,3.8207,-0.0353299,0.351979,0.973062
45,704,3.82238,-0.0342641,0.349916,0.9718
47,702,3.82297,-0.0314519,0.349829,0.976596
49,700,3.82248,-0.0342139,0.34988,0.971428
52,698,3.82429,-0.0314691,0.349783,0.977305
60,696,3.82171,-0.0335188,0.351274,0.977763
62,694,3.82046,-0.0354409,0.350572,0.971588
64,692,3.82095,-0.0353475,0.349195,0.970278
66,690,3.81954,-0.0351901,0.34918,0.967618
68,688,3.8218,-0.0353586,0.3478,0.964521
70,686,3.82068,-0.0371224,0.349866,0.964237
72,684,3.82233,-0.0341252,0.34704,0.966011
74,682,3.82203,-0.0355727,0.347758,0.963409
76,680,3.82107,-0.0356497,0.347751,0.963146
79,678,3.82124,-0.0356143,0.347704,0.962759
82,676,3.82202,-0.0346842,0.344295,0.958431
84,674,3.82178,-0.0360569,0.343633,0.954756
87,672,3.82414,-0.0359082,0.344984,0.955277
89,670,3.82321,-0.0342571,0.34696,0.961545
92,668,3.76591,-0.45147,0.546097,0.272754
95,666,3.81916,-0.0317835,0.344065,0.960007
98,664,3.82073,-0.0352387,0.344917,0.955857
100,662,3.82281,-0.0336764,0.346893,0.961615
102,660,3.82108,-0.0368093,0.345617,0.951946
104,658,3.82427,-0.0383173,0.346422,0.950359
106,656,3.81922,-0.0327163,0.342071,0.955264
108,654,3.82326,-0.0349667,0.342799,0.952542
110,652,3.82323,-0.0352097,0.346247,0.955041
112,650,3.82373,-0.0339947,0.345536,0.95745
114,648,3.8249,-0.0325527,0.344835,0.959722
116,646,3.82476,-0.0322219,0.344825,0.958838
118,644,3.82497,-0.03256,0.344826,0.95897
120,642,3.8231,-0.0338092,0.346891,0.958715
122,640,3.81951,-0.0327267,0.342062,0.953314
124,638,3.82267,-0.0349656,0.342714,0.950394
127,636,3.8238,-0.0311301,0.341349,0.955466
129,634,3.82368,-0.0352617,0.34137,0.947123
131,632,3.82749,-0.0366664,0.343578,0.946846
135,630,3.8226,-0.0358153,0.34218,0.945705
137,628,3.82635,-0.0359148,0.343573,0.946872
139,626,3.82014,-0.0359789,0.342124,0.945171
141,624,3.82233,-0.0356149,0.342046,0.945305
145,622,3.82499,-0.0304638,0.34551,0.965804
147,620,3.8247,-0.0308617,0.34545,0.96505
151,618,3.82344,-0.0323118,0.346159,0.961093
153,616,3.82305,-0.0324716,0.346135,0.960568
155,614,3.82511,-0.0310199,0.344073,0.959259
157,612,3.82302,-0.0318995,0.341268,0.954141
159,610,3.8237,-0.0335696,0.340636,0.947749
162,608,3.82246,-0.0296504,0.33921,0.951188
164,606,3.82258,-0.0356746,0.34205,0.94307
166,604,3.82566,-0.0355532,0.343441,0.945266
168,602,3.82129,-0.0342307,0.33993,0.943903
170,600,3.82302,-0.0358897,0.339313,0.93739
172,598,3.82511,-0.0344223,0.341335,0.944267
174,596,3.82468,-0.0356117,0.33858,0.937968
176,594,3.82369,-0.0362327,0.340718,0.940635
178,592,3.82253,-0.0306874,0.336456,0.944536
180,590,3.82289,-0.0357354,0.338562,0.937686
184,588,3.82377,-0.0353849,0.339903,0.940081
186,586,3.82456,-0.0336712,0.339202,0.94242
188,584,3.82448,-0.032821,0.33919,0.941089
190,582,3.82504,-0.0328691,0.339193,0.943052
192,580,3.82425,-0.0328567,0.339188,0.941254
194,578,3.82368,-0.0345117,0.341244,0.942988
196,576,3.82146,-0.0338176,0.335024,0.933524
198,574,3.8215,-0.0363481,0.336475,0.929371
200,572,3.8251,-0.0345067,0.338506,0.936967
202,570,3.82346,-0.0375181,0.335132,0.924649
204,568,3.82338,-0.0359381,0.334355,0.926253
206,566,3.8211,-0.0333239,0.334985,0.932325
208,564,3.82246,-0.0377351,0.333705,0.920541
210,562,3.82654,-0.0374163,0.336408,0.924952
212,560,3.81997,-0.0357529,0.332935,0.924003
214,558,3.82169,-0.0370275,0.333651,0.920958
216,556,3.82654,-0.0342522,0.333617,0.927397
218,554,3.82346,-0.0375734,0.332318,0.918689
221,552,3.82358,-0.0395542,0.336506,0.917695
223,550,3.82475,-0.0350312,0.334306,0.925002
225,548,3.82444,-0.0346107,0.335667,0.928518
227,546,3.82365,-0.0348905,0.335673,0.927186
229,544,3.8246,-0.0348897,0.335666,0.92833
231,542,3.8245,-0.0348886,0.335682,0.927228
233,540,3.82156,-0.0378516,0.337211,0.928698
236,538,3.82281,-0.0356306,0.332915,0.925657
238,536,3.82259,-0.0373399,0.333683,0.921482
240,534,3.82493,-0.0358376,0.335687,0.928285
243,532,3.82113,-0.0376498,0.332268,0.918395
245,530,3.82398,-0.0374611,0.335,0.919927
247,528,3.82271,-0.0374898,0.330862,0.914857
249,526,3.82209,-0.0381142,0.330876,0.91349
251,524,3.82454,-0.0356985,0.332877,0.919054
253,522,3.82425,-0.0381863,0.329523,0.910185
256,520,3.82404,-0.0380331,0.3323,0.913412
258,518,3.8239,-0.0367935,0.332307,0.91431
260,516,3.82438,-0.0353375,0.332931,0.920897
262,514,3.82463,-0.035195,0.332961,0.919725
264,512,3.82478,-0.0354134,0.332956,0.919283
266,510,3.82594,-0.0338088,0.332234,0.922067
268,508,3.81997,-0.030872,0.327978,0.919331
270,506,3.82235,-0.0383508,0.329505,0.908021
273,504,3.8237,-0.0369418,0.33227,0.914613
275,502,3.82458,-0.0378251,0.328167,0.90465
277,500,3.82042,-0.0403265,0.330955,0.903953
279,498,3.82382,-0.0343518,0.328075,0.91206
281,496,3.82235,-0.0389655,0.328879,0.902747
285,494,3.82208,-0.0377047,0.329573,0.91204
288,492,3.8206,-0.0396069,0.329217,0.907456
290,490,3.82428,-0.0369935,0.330947,0.911719
292,488,3.826,-0.034463,0.329478,0.915158
295,486,3.83578,-0.0694849,0.347002,0.850213
297,484,3.82507,-0.034726,0.33221,0.921856
299,482,3.82554,-0.0366731,0.330212,0.913191
301,480,3.82491,-0.0351863,0.331568,0.916936
303,478,3.8227,-0.0339336,0.330791,0.918661
305,476,3.82651,-0.0348279,0.329458,0.91397
307,474,3.82596,-0.0353462,0.331523,0.916059
310,472,3.82541,-0.0356854,0.328798,0.909754
312,470,3.8244,-0.0352685,0.328038,0.909808
314,468,3.82437,-0.0339637,0.329392,0.914103
316,466,3.82472,-0.03552,0.328739,0.908769
318,464,3.82561,-0.0369919,0.330857,0.909927
320,462,3.82648,-0.0342063,0.329436,0.91323
322,460,3.82578,-0.0336706,0.330759,0.916513
324,458,3.8257,-0.0342313,0.330801,0.915643
326,456,3.82648,-0.0323431,0.330052,0.91848
328,454,3.82674,-0.0328347,0.330056,0.918952
330,452,3.82646,-0.0330594,0.330059,0.918681
332,450,3.8241,-0.0354963,0.328696,0.907921
334,448,3.82564,-0.0343675,0.326655,0.906627
336,446,3.82572,-0.0341532,0.329372,0.912816
338,444,3.82576,-0.0352243,0.327962,0.907557
340,442,3.82529,-0.0356359,0.328704,0.907481
342,440,3.82391,-0.0329392,0.327237,0.911406
344,438,3.8252,-0.0359748,0.328717,0.906128
346,436,3.82748,-0.0341044,0.329389,0.912285
348,434,3.82469,-0.0340843,0.326625,0.906001
350,432,3.82716,-0.0337767,0.325904,0.906405
352,430,3.82551,-0.034397,0.329328,0.912264
355,428,3.82563,-0.0360625,0.327331,0.903691
357,426,3.82634,-0.0373961,0.329441,0.903783
359,424,3.82733,-0.0327749,0.327272,0.910836
361,422,3.82556,-0.0340005,0.329325,0.910952
363,420,3.82527,-0.0344534,0.329344,0.910901
365,418,3.82511,-0.0346261,0.329335,0.910597
367,416,3.8255,-0.0342223,0.329328,0.910395
369,414,3.82529,-0.0345473,0.329344,0.910298
371,412,3.82628,-0.0360669,0.327319,0.902754
373,410,3.82572,-0.0344118,0.326529,0.905222
375,408,3.82606,-0.0324732,0.327172,0.909735
377,406,3.82479,-0.036098,0.32722,0.902541
379,404,3.82636,-0.0373142,0.329339,0.903458
381,402,3.82377,-0.0334471,0.325772,0.905734
383,400,3.82487,-0.0358203,0.32723,0.90125
385,398,3.82723,-0.0346044,0.327876,0.906643
387,396,3.82468,-0.0345465,0.325126,0.901522
390,394,3.82607,-0.0398381,0.327284,0.893831
395,392,3.83514,-0.0516043,0.334102,0.881631
401,390,3.82449,-0.0353109,0.323829,0.900107
405,388,3.82492,-0.0366504,0.323148,0.894605
408,386,3.82291,-0.0386673,0.322473,0.88694
411,384,3.82343,-0.0331274,0.321642,0.897683
413,382,3.82452,-0.0374899,0.320377,0.885172
417,380,3.82241,-0.033093,0.320256,0.892107
419,378,3.82205,-0.0388617,0.321026,0.882718
421,376,3.82586,-0.0409486,0.325249,0.883966
423,374,3.82079,-0.0376144,0.320264,0.885242
425,372,3.82579,-0.0375374,0.320322,0.884092
427,370,3.82512,-0.0377761,0.323806,0.887563
429,368,3.8254,-0.0376268,0.320302,0.883336
431,366,3.82583,-0.0360922,0.319569,0.885744
433,364,3.82527,-0.0364119,0.323046,0.889762
435,362,3.82583,-0.0364635,0.323063,0.89008
437,360,3.82448,-0.0377871,0.325142,0.890334
439,358,3.82578,-0.0355514,0.323664,0.893371
441,356,3.82457,-0.0360595,0.324401,0.892454
443,354,3.82655,-0.0347968,0.322322,0.89207
445,352,3.82363,-0.033286,0.318891,0.886644
447,350,3.82417,-0.0380737,0.320986,0.881898
449,348,3.82917,-0.0375439,0.321651,0.884876
451,346,3.82387,-0.0355393,0.318171,0.882422
453,344,3.82511,-0.0379127,0.31888,0.877715
455,342,3.82575,-0.0372528,0.321613,0.884253
457,340,3.83404,-0.0421391,0.32257,0.876941
460,338,3.82566,-0.034231,0.320189,0.891054
462,336,3.82512,-0.0376048,0.320255,0.883309
464,334,3.82616,-0.0390859,0.320983,0.881425
466,332,3.82321,-0.0334266,0.317402,0.884512
468,330,3.8245,-0.0375937,0.318867,0.879458
470,328,3.82723,-0.0377401,0.32023,0.880485
473,326,3.82556,-0.03648,0.320268,0.883696
475,324,3.82701,-0.0347912,0.319556,0.885089
477,322,3.82494,-0.0364246,0.321595,0.885972
479,320,3.82493,-0.036751,0.321627,0.885242
481,318,3.82623,-0.0348168,0.320885,0.88782
487,316,3.82824,-0.041037,0.318913,0.871703
489,314,3.82131,-0.038299,0.316061,0.872305
491,312,3.82602,-0.0379815,0.316077,0.871354
493,310,3.82684,-0.0380624,0.317489,0.873232
495,308,3.82486,-0.0378121,0.316068,0.871478
497,306,3.82594,-0.0380465,0.316092,0.870503
499,304,3.82596,-0.0368427,0.31748,0.875115
501,302,3.82606,-0.038044,0.314713,0.867674
503,300,3.82389,-0.0399795,0.316784,0.867684
505,298,3.82734,-0.0362973,0.316734,0.875071
507,296,3.83708,-0.0513605,0.329911,0.867611
512,294,3.82609,-0.0355212,0.322336,0.891196
514,292,3.82751,-0.0358115,0.322337,0.890846
516,290,3.82507,-0.033346,0.321603,0.89448
518,288,3.82549,-0.0346665,0.320918,0.888919
520,286,3.8277,-0.035657,0.322302,0.889347
522,284,3.82349,-0.0347207,0.320897,0.88801
526,282,3.82587,-0.0399236,0.320366,0.874417
530,280,3.82254,-0.0374124,0.314687,0.868469
532,278,3.82714,-0.0411471,0.317551,0.868983
535,276,3.82423,-0.0380089,0.313303,0.866445
537,274,3.82297,-0.0380049,0.311919,0.861534
540,272,3.82126,-0.0364691,0.311155,0.864724
542,270,3.82513,-0.0387709,0.310554,0.859166
548,268,3.82495,-0.0373938,0.313254,0.863737
550,266,3.82419,-0.0390745,0.314002,0.862053
552,264,3.82565,-0.0383632,0.313271,0.862613
554,262,3.82615,-0.0368596,0.312535,0.865077
556,260,3.82573,-0.0369538,0.312515,0.865071
558,258,3.82528,-0.038635,0.31325,0.862403
560,256,3.82487,-0.037605,0.313296,0.864583
562,254,3.82435,-0.0381541,0.313292,0.862031
564,252,3.82741,-0.0364694,0.312545,0.86504
566,250,3.82547,-0.0367266,0.312489,0.865361
568,248,3.82461,-0.0386489,0.313226,0.861887
570,246,3.82717,-0.0369597,0.312536,0.863658
573,244,3.82547,-0.0366721,0.312486,0.865171
576,242,3.8251,-0.0365454,0.312547,0.867989
578,240,3.8247,-0.0376097,0.31189,0.862242
580,238,3.82575,-0.0376663,0.311914,0.860908
582,236,3.8228,-0.0387679,0.310487,0.856807
584,234,3.82452,-0.0401111,0.309856,0.851149
586,232,3.82353,-0.040486,0.309825,0.851707
588,230,3.82372,-0.0405107,0.308469,0.848228
590,228,3.82385,-0.040217,0.308452,0.847554
592,226,3.824,-0.0396401,0.308443,0.848076
594,224,3.82365,-0.0396319,0.308439,0.847922
596,222,3.82275,-0.0400955,0.308397,0.847543
598,220,3.82309,-0.0407382,0.308427,0.847791
600,218,3.82288,-0.040311,0.307097,0.843564
603,216,3.82313,-0.037244,0.30703,0.850608
605,214,3.82391,-0.0391699,0.306361,0.846707
607,212,3.82505,-0.0403571,0.307118,0.843608
609,210,3.82444,-0.0391369,0.306318,0.845519
611,208,3.82316,-0.0411033,0.307006,0.842491
613,206,3.8251,-0.0411568,0.308854,0.843892
615,204,3.82339,-0.0391781,0.306271,0.845781
617,202,3.82163,-0.0423026,0.306362,0.838022
619,200,3.82419,-0.0410129,0.30564,0.840542
621,198,3.82397,-0.0393389,0.303544,0.839195
627,196,3.82254,-0.0400916,0.308478,0.850794
629,194,3.82303,-0.0416263,0.309253,0.846613
631,192,3.82455,-0.0368929,0.305623,0.849916
633,190,3.82405,-0.0398742,0.30706,0.844928
635,188,3.82306,-0.0416068,0.309134,0.845394
637,186,3.82303,-0.0406091,0.307044,0.844296
639,184,3.8225,-0.0407155,0.305649,0.840838
641,182,3.82405,-0.0404407,0.304287,0.838326
644,180,3.82208,-0.0413394,0.304301,0.838104
646,178,3.82239,-0.0409239,0.302926,0.83456
648,176,3.82335,-0.0416995,0.303652,0.832244
650,174,3.82225,-0.0412753,0.302901,0.833631
652,172,3.82318,-0.0411907,0.301529,0.829749
655,170,3.82289,-0.0424024,0.303611,0.833012
657,168,3.82035,-0.0432646,0.302213,0.827571
659,166,3.82117,-0.0432436,0.300847,0.824664
661,164,3.82314,-0.0404469,0.300126,0.827254
664,162,3.81983,-0.0427458,0.300791,0.825185
666,160,3.82183,-0.0446779,0.301576,0.821382
668,158,3.82132,-0.0428052,0.300819,0.8233
670,156,3.82204,-0.0433571,0.299475,0.820607
672,154,3.82142,-0.0428685,0.299447,0.819337
674,152,3.82151,-0.0448947,0.300194,0.818394
676,150,3.81961,-0.0442586,0.300155,0.817708
678,148,3.81999,-0.0448061,0.300151,0.817796
680,146,3.82179,-0.0408111,0.29738,0.81709
682,144,3.82232,-0.0435038,0.29811,0.8166
684,142,3.82347,-0.0439059,0.299475,0.819736
686,140,3.8218,-0.0436237,0.298522,0.818687
688,138,3.82139,-0.0432485,0.297904,0.815756
690,136,3.82255,-0.0416163,0.29735,0.818094
692,134,3.82011,-0.0436332,0.298042,0.816059
700,132,3.82232,-0.0414275,0.298723,0.825224
702,130,3.82066,-0.0427433,0.299427,0.821702
705,128,3.82173,-0.0433838,0.29807,0.818205
707,126,3.82091,-0.0430573,0.298061,0.815955
709,124,3.82008,-0.0452131,0.298563,0.814791
711,122,3.82229,-0.0425473,0.298046,0.815841
713,120,3.82239,-0.0411431,0.297281,0.81773
715,118,3.82292,-0.0437622,0.297353,0.816362
717,116,3.82368,-0.0415182,0.297313,0.817299
719,114,3.82176,-0.0410688,0.297251,0.817311
721,112,3.8216,-0.0433355,0.296629,0.812923
723,110,3.82104,-0.0435367,0.297982,0.815097
725,108,3.82285,-0.0407932,0.294523,0.810424
727,106,3.82241,-0.0441154,0.295262,0.808931
729,104,3.82343,-0.0419991,0.29584,0.813293
731,102,3.82077,-0.0438817,0.296648,0.811226
733,100,3.82236,-0.0431429,0.296673,0.811164
735,98,3.82425,-0.0421524,0.295898,0.812888
737,96,3.82238,-0.042081,0.295854,0.811951
739,94,3.82385,-0.0422536,0.296619,0.809519
741,92,3.82324,-0.0405522,0.295136,0.814672
746,90,3.82132,-0.0415299,0.297299,0.819496
748,88,3.82068,-0.0446218,0.298747,0.814002
750,86,3.82231,-0.0418397,0.294563,0.812249
752,84,3.82069,-0.0437132,0.295265,0.808958
754,82,3.8233,-0.0432362,0.295288,0.808432
756,80,3.82274,-0.0416988,0.29451,0.811733
758,78,3.82099,-0.0440846,0.293925,0.805139
760,76,3.82272,-0.0436881,0.295304,0.807267
763,74,3.82204,-0.0418256,0.29312,0.807908
765,72,3.82078,-0.043824,0.293852,0.804047
767,70,3.82342,-0.041869,0.293112,0.804409
769,68,3.82218,-0.041929,0.291742,0.803858
771,66,3.82126,-0.0439959,0.292474,0.799873
773,64,3.82138,-0.0440443,0.293818,0.804598
775,62,3.82057,-0.0440163,0.293808,0.803549
777,60,3.82064,-0.0433721,0.293793,0.802321
779,58,3.82293,-0.0417658,0.293084,0.805352
781,56,3.82242,-0.0420249,0.291727,0.80225
783,54,3.82125,-0.0441228,0.291081,0.79561
785,52,3.82245,-0.0437497,0.29244,0.798967
787,50,3.8189,-0.0452138,0.291775,0.793403
789,48,3.82042,-0.0451553,0.291799,0.793309
791,46,3.8208,-0.0437989,0.292135,0.797784
793,44,3.82126,-0.042617,0.288929,0.796293
795,42,3.82202,-0.0447936,0.289678,0.793457
797,40,3.82057,-0.0441575,0.289714,0.790901
799,38,3.82101,-0.0437102,0.288352,0.788842
801,36,3.81959,-0.04612,0.290429,0.790178
803,34,3.82282,-0.0410535,0.288212,0.793662
805,32,3.82163,-0.042941,0.287583,0.788155
807,30,3.82024,-0.0451758,0.289686,0.791933
809,28,3.82047,-0.0450605,0.289681,0.791231
811,26,3.82014,-0.0442324,0.289673,0.790856
817,24,3.8183,-0.0455658,0.291807,0.794224
819,22,3.82324,-0.0422239,0.290318,0.79932
821,20,3.81974,-0.0442491,0.289671,0.793513
823,18,3.81929,-0.0449414,0.2904,0.788984
825,16,3.82074,-0.0444697,0.290999,0.795399
827,14,3.82049,-0.0446904,0.289644,0.792514
829,12,3.82097,-0.0436837,0.28965,0.791188
831,10,3.82259,-0.0429676,0.28891,0.793762
833,8,3.82036,-0.0432503,0.289629,0.790233
835,6,3.82294,-0.042968,0.287545,0.790457
837,4,3.82368,-0.0410277,0.28678,0.789655
839,2,3.82103,-0.0422477,0.286136,0.787448
841,0,3.82224,-0.0450433,0.285403,0.781734
843,0,3.82065,-0.0451499,0.286865,0.784056
846,0,3.81938,-0.0447821,0.285491,0.783531
848,0,3.81937,-0.0443371,0.286885,0.782868
850,0,3.82084,-0.0455232,0.285554,0.780967
852,0,3.81934,-0.0445466,0.284156,0.777253
854,0,3.82008,-0.0467333,0.28758,0.780703
856,0,3.82011,-0.0449668,0.285459,0.780117
858,0,3.82043,-0.0431501,0.283329,0.777718
860,0,3.82168,-0.0451656,0.28548,0.77898
862,0,3.83147,-0.0693007,0.302463,0.764807
865,0,3.82344,-0.0398194,0.289602,0.799273
867,0,3.82175,-0.0430441,0.292133,0.796697
869,0,3.82263,-0.0412396,0.28959,0.798046
871,0,3.82256,-0.0429639,0.288946,0.794055
873,0,3.82141,-0.0442793,0.289647,0.791108
875,0,3.82346,-0.0407082,0.286819,0.792032
877,0,3.82207,-0.0431287,0.28617,0.785773
879,0,3.82353,-0.0446927,0.286951,0.788511
881,0,3.82143,-0.0430352,0.287495,0.79077
883,0,3.82033,-0.0451927,0.28688,0.78326
885,0,3.81978,-0.0443225,0.286859,0.781645
888,0,3.82034,-0.0432736,0.284736,0.784264
890,0,3.82005,-0.0454273,0.285464,0.781192
892,0,3.8223,-0.0443981,0.285412,0.780071
894,0,3.81998,-0.0437937,0.284723,0.782648
896,0,3.8215,-0.0437265,0.283405,0.77903
898,0,3.82126,-0.0453744,0.284655,0.779143
900,0,3.81992,-0.043942,0.283385,0.778516
902,0,3.8206,-0.0458271,0.282786,0.772447
904,0,3.82263,-0.0437577,0.283403,0.778323
906,0,3.81936,-0.0432752,0.283363,0.77819
908,0,3.81977,-0.0462228,0.282749,0.772554
910,0,3.82183,-0.0436209,0.28338,0.777837
912,0,3.83189,-0.068896,0.29756,0.756048
914,0,3.82241,-0.0415331,0.286848,0.791737
916,0,3.82288,-0.0415045,0.285468,0.788588
918,0,3.82267,-0.0431587,0.287559,0.790379
920,0,3.82218,-0.042858,0.286709,0.788381
922,0,3.82276,-0.0410979,0.285455,0.786704
924,0,3.82343,-0.0414466,0.285455,0.787466
926,0,3.82182,-0.0421657,0.286172,0.784723
928,0,3.821,-0.0431794,0.284776,0.781375
930,0,3.82285,-0.0415767,0.284069,0.781922
932,0,3.82304,-0.0408032,0.282671,0.780149
934,0,3.82162,-0.04403,0.28339,0.779054
936,0,3.8213,-0.0433997,0.283381,0.777419
938,0,3.82006,-0.0420262,0.284724,0.779863
940,0,3.8203,-0.0433391,0.283361,0.778114
942,0,3.81979,-0.0456463,0.284096,0.775271
944,0,3.82279,-0.0422218,0.281272,0.776533
946,0,3.81993,-0.0438837,0.283347,0.775957
948,0,3.8209,-0.0426557,0.283386,0.775762
950,0,3.82191,-0.0442798,0.282017,0.773064
952,0,3.82001,-0.0443294,0.281984,0.773793
954,0,3.82088,-0.0438609,0.281967,0.773419
956,0,3.82244,-0.0414645,0.279867,0.772643
958,0,3.82275,-0.0422225,0.279851,0.770521
960,0,3.8199,-0.0431963,0.281951,0.772002
962,0,3.8317,-0.0570572,0.288741,0.76118
964,0,3.81984,-0.0435352,0.283396,0.779702
966,0,3.82076,-0.0443989,0.284129,0.77555
969,0,3.78667,-0.319905,0.393157,0.372914
971,0,3.82372,-0.0393687,0.281929,0.779932
973,0,3.82229,-0.0420153,0.281255,0.775941
975,0,3.82155,-0.0436521,0.283355,0.776346
977,0,3.82306,-0.0425343,0.281264,0.775935
979,0,3.82298,-0.0425405,0.27987,0.773344
981,0,3.82372,-0.0417776,0.279877,0.772678
984,0,3.81984,-0.0439417,0.280571,0.769306
986,0,3.822,-0.0425448,0.27846,0.764277
988,0,3.82233,-0.0425543,0.279508,0.770112
990,0,3.81967,-0.0439107,0.279192,0.763999
992,0,3.82072,-0.0443516,0.277818,0.762714
994,0,3.82172,-0.0446279,0.277825,0.763516
996,0,3.81932,-0.0467696,0.279913,0.763372
998,0,3.81935,-0.0462157,0.278892,0.762806
1000,0,3.82176,-0.0445161,0.27782,0.761446
1002,0,3.82031,-0.0443899,0.277817,0.760288
1004,0,3.81981,-0.0433424,0.27709,0.762693
1006,0,3.82037,-0.0446279,0.27782,0.760726
1008,0,3.82131,-0.0424557,0.275699,0.760146
1010,0,3.82098,-0.0447355,0.276442,0.75746
1012,0,3.82037,-0.0451712,0.277817,0.76026
1014,0,3.81725,-0.0456185,0.278512,0.756558
1016,0,3.82136,-0.0436468,0.274308,0.756883
1018,0,3.82093,-0.0452064,0.276427,0.756665
1021,0,3.81979,-0.0429294,0.27709,0.766426
1023,0,3.81926,-0.0442584,0.276446,0.758681
1025,0,3.81776,-0.046164,0.277174,0.755735
1027,0,3.81902,-0.044907,0.275047,0.75503
1029,0,3.81997,-0.0452003,0.273677,0.751327
1031,0,3.81955,-0.0446682,0.273658,0.750661
1033,0,3.81884,-0.0451078,0.273637,0.747719
1035,0,3.81947,-0.0447749,0.272278,0.74693
1037,0,3.82036,-0.0445177,0.273667,0.749508
1039,0,3.81816,-0.0451668,0.273627,0.750407
1041,0,3.81918,-0.045299,0.272273,0.746755
1043,0,3.81908,-0.0438662,0.273641,0.748469
1046,0,3.81803,-0.0452629,0.272237,0.749115
1048,0,3.81786,-0.0453119,0.272235,0.743582
1050,0,3.82046,-0.0452733,0.271954,0.74597
1052,0,3.81577,-0.0472946,0.272977,0.742991
1054,0,3.81823,-0.0458846,0.270861,0.743183
1056,0,3.81697,-0.047317,0.272969,0.742962
1058,0,3.81646,-0.0473505,0.271364,0.739651
1060,0,3.81927,-0.0438854,0.26855,0.739404
1062,0,3.82056,-0.0437758,0.270111,0.742021
1064,0,3.81657,-0.0454541,0.270838,0.742301
1066,0,3.81873,-0.0442359,0.268707,0.738651
1068,0,3.81656,-0.0465427,0.270195,0.734632
1070,0,3.8182,-0.0422714,0.272894,0.75297
1073,0,3.81711,-0.0450137,0.272243,0.74726
1075,0,3.82061,-0.0447274,0.272253,0.746201
1077,0,3.81797,-0.0455344,0.272247,0.745625
1079,0,3.81737,-0.0457831,0.271984,0.744221
1081,0,3.81859,-0.0445994,0.272232,0.746332
1084,0,3.81703,-0.0455058,0.270833,0.743077
1086,0,3.81789,-0.0463098,0.26948,0.737879
1089,0,3.8178,-0.0454859,0.27084,0.743977
1093,0,3.81919,-0.0433674,0.268701,0.741297
1095,0,3.81846,-0.0452714,0.269443,0.737132
1097,0,3.81672,-0.0457093,0.269431,0.736809
1099,0,3.81872,-0.0462731,0.267813,0.735662
1101,0,3.81785,-0.0454576,0.268054,0.735333
1103,0,3.81589,-0.0483666,0.268801,0.731217
1105,0,3.81684,-0.0454169,0.268053,0.731755
1107,0,3.81776,-0.046236,0.266675,0.730444
1109,0,3.81614,-0.0476734,0.268794,0.732254
1111,0,3.8169,-0.0442976,0.267305,0.735365
1113,0,3.81514,-0.0483372,0.267399,0.729211
1115,0,3.8182,-0.0466623,0.266205,0.728222
1117,0,3.81545,-0.0458705,0.266539,0.730556
1119,0,3.8168,-0.0460755,0.265285,0.726394
1121,0,3.81661,-0.0463832,0.266652,0.728967
1123,0,3.81766,-0.0447784,0.264548,0.728995
1125,0,3.81267,-0.0497756,0.268113,0.725228
1127,0,3.81518,-0.0480714,0.266039,0.723667
1129,0,3.81543,-0.0471634,0.263912,0.722855
1131,0,3.81347,-0.0483282,0.264635,0.720335
1133,0,3.81469,-0.0503903,0.265401,0.718185
1135,0,3.81587,-0.0487184,0.264637,0.72169
1137,0,3.81413,-0.0484425,0.264624,0.721809
1139,0,3.81609,-0.0465311,0.262509,0.719812
1143,0,3.8181,-0.0440973,0.265922,0.735261
1145,0,3.81663,-0.046374,0.265297,0.726993
1147,0,3.81743,-0.0455722,0.266681,0.728689
1149,0,3.81694,-0.0445016,0.264545,0.727649
1151,0,3.81583,-0.0463243,0.263894,0.723195
1153,0,3.81561,-0.0482371,0.266038,0.724116
1155,0,3.81511,-0.0485053,0.266018,0.724526
1158,0,3.81458,-0.0480251,0.263992,0.722288
1160,0,3.81729,-0.0471194,0.263904,0.722937
1162,0,3.8155,-0.04723,0.262501,0.720278
1164,0,3.8158,-0.0482454,0.261409,0.715494
1166,0,3.81786,-0.0448051,0.261752,0.720436
1168,0,3.81438,-0.0465614,0.261094,0.714468
1170,0,3.81428,-0.0492046,0.260474,0.709404
1172,0,3.81484,-0.0494258,0.260463,0.709924
1174,0,3.81389,-0.049286,0.260448,0.7085
1176,0,3.81271,-0.0505912,0.260405,0.707479
1178,0,3.81542,-0.0455488,0.258951,0.709842
1180,0,3.81616,-0.0493371,0.258352,0.70835
1182,0,3.8148,-0.0476152,0.258326,0.7064
1184,0,3.81387,-0.0466576,0.259693,0.707552
1186,0,3.81317,-0.0480305,0.259673,0.707308
1188,0,3.81308,-0.0496351,0.259047,0.704731
1190,0,3.8142,-0.0494892,0.26182,0.712236
1192,0,3.81695,-0.0448134,0.264498,0.731115
1196,0,3.81526,-0.0423956,0.263774,0.730471
1200,0,3.82075,-0.0467553,0.2681,0.729812
1202,0,3.81914,-0.0441517,0.270133,0.74192
1204,0,3.81992,-0.0441304,0.271529,0.746492
1206,0,3.82232,-0.0426152,0.270809,0.748735
1220,0,3.81813,-0.0449698,0.268657,0.739374
1224,0,3.82059,-0.0424778,0.265194,0.733767
1228,0,3.82115,-0.0445786,0.270142,0.741817
1230,0,3.82137,-0.0427573,0.270777,0.748765
1232,0,3.82169,-0.0423944,0.270805,0.747121
1234,0,3.8214,-0.0425883,0.272195,0.752291
1236,0,3.82104,-0.0416371,0.272202,0.752105
1238,0,3.82947,-0.0333884,0.266412,0.756986
1242,0,3.81803,-0.0428775,0.265213,0.732286
1245,0,3.8196,-0.0486879,0.266084,0.721664
1247,0,3.82046,-0.0393003,0.262345,0.736344
1249,0,3.81604,-0.0472503,0.263872,0.722127
1251,0,3.81796,-0.0468731,0.262496,0.718653
1256,0,3.8174,-0.0453695,0.260342,0.716363
1258,0,3.81683,-0.050541,0.265368,0.715207
1262,0,3.81626,-0.0471754,0.261086,0.716555
1264,0,3.81327,-0.0493382,0.261836,0.710291
1266,0,3.81891,-0.0443894,0.263134,0.723164
1272,0,3.81912,-0.0473572,0.263893,0.72154
1274,0,3.81841,-0.0474176,0.266685,0.728384
1276,0,3.81914,-0.0450787,0.267325,0.735066
1278,0,3.82073,-0.043226,0.266644,0.737713
1280,0,3.82023,-0.04338,0.266653,0.736073
1285,0,3.81852,-0.0379852,0.26024,0.731817
1289,0,3.81729,-0.0527795,0.265209,0.713856
1292,0,3.81661,-0.0455882,0.258968,0.713369
1294,0,3.81624,-0.0477959,0.259694,0.71042
1298,0,3.81502,-0.0459467,0.258727,0.712442
1300,0,3.81465,-0.0481169,0.259674,0.708204
1302,0,3.81964,-0.0477842,0.261108,0.712225
1305,0,3.8158,-0.0486348,0.259769,0.706214
1307,0,3.81549,-0.0460496,0.256163,0.705429
1310,0,3.81402,-0.0420078,0.257423,0.715342
1316,0,3.8189,-0.0456046,0.261747,0.71593
1318,0,3.82049,-0.0431371,0.262409,0.722869
1320,0,3.81994,-0.0425366,0.263813,0.725903
1322,0,3.81774,-0.0453032,0.264577,0.724768
1324,0,3.81796,-0.0447531,0.264544,0.724782
1326,0,3.81971,-0.0433233,0.263817,0.728168
1328,0,3.81882,-0.0411902,0.261662,0.727379
1334,0,3.81725,-0.0476662,0.262455,0.716125
1338,0,3.81746,-0.0439607,0.259471,0.718529
1342,0,3.81955,-0.0412785,0.257456,0.715132
1344,0,3.81861,-0.0443171,0.258185,0.712781
1346,0,3.82068,-0.0450864,0.260359,0.713047
1348,0,3.81679,-0.0441412,0.256219,0.708855
1350,0,3.81704,-0.0461617,0.257539,0.706348
1357,0,3.817,-0.0441193,0.256779,0.707814
1359,0,3.81857,-0.0463834,0.257482,0.705982
1361,0,3.81922,-0.0478474,0.259686,0.705759
1364,0,3.81655,-0.048433,0.256859,0.699812
1366,0,3.81582,-0.046075,0.254782,0.697282
1369,0,3.81651,-0.0388586,0.250429,0.705317
1371,0,3.81588,-0.0465515,0.251971,0.690865
1374,0,3.81534,-0.0506419,0.257639,0.696522
1377,0,3.81438,-0.0487781,0.252686,0.690238
1382,0,3.81604,-0.0477034,0.256904,0.6992
1384,0,3.81716,-0.04587,0.25755,0.70515
1386,0,3.81769,-0.0458157,0.257629,0.705187
1388,0,3.81671,-0.0457729,0.258962,0.709502
1390,0,3.81756,-0.0457361,0.258984,0.709219
1394,0,3.82036,-0.0418476,0.256114,0.711333
1400,0,3.81798,-0.0461147,0.256192,0.702148
1404,0,3.81741,-0.0421292,0.25325,0.707296
1408,0,3.81528,-0.0478181,0.255502,0.696085
1410,0,3.81725,-0.0444127,0.252586,0.698341
1412,0,3.81888,-0.0458071,0.25616,0.703571
1415,0,3.81874,-0.0447801,0.252599,0.697071
1418,0,3.81565,-0.0521939,0.256984,0.690492
1420,0,3.8185,-0.0455137,0.256158,0.702864
1422,0,3.81885,-0.0434831,0.256839,0.707898
1425,0,3.81726,-0.0454591,0.258984,0.708812
1427,0,3.81898,-0.0432795,0.258251,0.712058
1434,0,3.81233,-0.0484029,0.254102,0.692159
1437,0,3.81461,-0.0543423,0.256414,0.684724
1441,0,3.81507,-0.0479012,0.249147,0.681781
1443,0,3.81067,-0.0489793,0.248493,0.676935
1446,0,3.81171,-0.0457703,0.24703,0.682751
1451,0,3.81531,-0.0487202,0.251338,0.682216
1453,0,3.825,-0.0856626,0.265213,0.652281
1458,0,3.81496,-0.0463944,0.250579,0.688502
1460,0,3.81607,-0.0471546,0.249138,0.6831
1464,0,3.81378,-0.0448756,0.248413,0.686639
1466,0,3.81243,-0.0510883,0.250083,0.679428
1471,0,3.81422,-0.0490377,0.251319,0.683657
1476,0,3.81302,-0.0521107,0.249288,0.674121
1480,0,3.80899,-0.0457753,0.245629,0.678921
1482,0,3.81031,-0.0545855,0.250032,0.672422
1484,0,3.81245,-0.0577342,0.251603,0.666883
1491,0,3.81428,-0.0564917,0.248383,0.664101
1493,0,3.81186,-0.0502105,0.250703,0.677199
1495,0,3.81428,-0.0500829,0.249969,0.681523
1497,0,3.81388,-0.0497362,0.25127,0.685309
1505,0,3.81178,-0.0434232,0.246325,0.686133
1513,0,3.80946,-0.0553355,0.240889,0.652383
1516,0,3.80623,-0.0666113,0.248329,0.646597
1528,0,3.80645,-0.0537808,0.240875,0.65209
1530,0,3.80449,-0.0566042,0.241565,0.647692
1534,0,3.8067,-0.0501947,0.236567,0.651102
1536,0,3.80546,-0.0574754,0.238543,0.639707
1539,0,3.80613,-0.0602861,0.243166,0.642863
1546,0,3.80673,-0.0584835,0.241013,0.641923
1548,0,3.81043,-0.0544692,0.240906,0.648922
1550,0,3.80693,-0.0575583,0.245207,0.652706
1560,0,3.80187,-0.044973,0.235772,0.65052
1566,0,3.8089,-0.0530148,0.235906,0.640745
1573,0,3.80511,-0.0511906,0.229548,0.628747
1577,0,3.8027,-0.0518289,0.229522,0.631608
1579,0,3.80457,-0.058149,0.230399,0.618428
1583,0,3.80454,-0.0544929,0.230258,0.626023
1591,0,3.80579,-0.0603976,0.232588,0.618714
1593,0,3.8063,-0.0583714,0.234585,0.627306
1595,0,3.80583,-0.0583857,0.23597,0.630398
1606,0,3.80158,-0.0702229,0.231739,0.602844
1610,0,3.80289,-0.0534248,0.224978,0.614079
1613,0,3.7999,-0.0636791,0.224128,0.595513
1619,0,3.79966,-0.0597429,0.224074,0.606672
1621,0,3.80019,-0.064784,0.224138,0.594129
1628,0,3.80047,-0.0641646,0.223835,0.594027
1632,0,3.80427,-0.0609606,0.228354,0.603801
1634,0,3.80427,-0.0593543,0.230355,0.614611
1636,0,3.80369,-0.0579212,0.231756,0.618488
1639,0,3.80722,-0.0569796,0.231012,0.627282
1648,0,3.79962,-0.0639895,0.221566,0.590523
1651,0,3.80004,-0.0732142,0.228677,0.588842
1654,0,3.79871,-0.0616144,0.219151,0.585601
1656,0,3.79709,-0.0649589,0.218244,0.578407
1660,0,3.79911,-0.0551451,0.216838,0.590531
1663,0,3.79538,-0.0657853,0.215662,0.577331
1669,0,3.79314,-0.059059,0.208049,0.567
1671,0,3.79245,-0.0722533,0.208284,0.548197
1676,0,3.79399,-0.051874,0.202399,0.559404
1683,0,3.79357,-0.0619467,0.203538,0.549168
1690,0,3.79189,-0.0735146,0.2087,0.537527
1692,0,3.79285,-0.0707433,0.210811,0.548919
1694,0,3.79121,-0.0712724,0.214338,0.552537
1696,0,3.79605,-0.0659002,0.212845,0.558986
1708,0,3.78524,-0.0787494,0.199128,0.513966
1710,0,3.78613,-0.0792955,0.19872,0.511133
1712,0,3.7855,-0.0765988,0.193928,0.505959
1714,0,3.78611,-0.0816629,0.192549,0.499043
1716,0,3.78606,-0.0701302,0.185999,0.499759
1718,0,3.78088,-0.0802236,0.187702,0.48598
1720,0,3.78082,-0.0815893,0.18751,0.480585
1722,0,3.78154,-0.0823287,0.187849,0.480721
1724,0,3.78431,-0.0782152,0.188765,0.486808
1726,0,3.78227,-0.0822835,0.189129,0.483922
1728,0,3.77928,-0.0821417,0.185923,0.479116
1730,0,3.78101,-0.0859207,0.185705,0.473153
1732,0,3.77944,-0.0857664,0.186074,0.475351
1734,0,3.77994,-0.0793433,0.183553,0.473704
1736,0,3.7796,-0.0830606,0.182211,0.468195
1739,0,3.78158,-0.0797005,0.181393,0.479027
1741,0,3.77827,-0.0815669,0.176798,0.459958
1744,0,3.77578,-0.086256,0.180849,0.459931
1746,0,3.77506,-0.0897666,0.17911,0.45516
1749,0,3.77299,-0.0837452,0.176449,0.449129
1751,0,3.77347,-0.0911751,0.174695,0.443717
1753,0,3.77157,-0.0949354,0.173322,0.439044
1755,0,3.77134,-0.0920564,0.173063,0.438385
1757,0,3.77242,-0.0891371,0.172222,0.438891
1759,0,3.76911,-0.0939122,0.173065,0.434505
1761,0,3.77337,-0.087017,0.171422,0.435083
1763,0,3.76952,-0.0904057,0.170706,0.433367
1765,0,3.77803,-0.140624,0.177926,0.397275
1767,0,3.78001,-0.0781149,0.15814,0.419552
1770,0,3.77648,-0.0883869,0.159591,0.41158
1772,0,3.77241,-0.0870958,0.15763,0.402901
1774,0,3.77238,-0.0916674,0.159521,0.403877
1776,0,3.76627,-0.0909566,0.156626,0.39883
1778,0,3.77044,-0.0955134,0.156134,0.395079
1780,0,3.7687,-0.0944181,0.154471,0.392626
1782,0,3.76676,-0.0981105,0.15768,0.39133
1784,0,3.7664,-0.0967309,0.155376,0.390792
1794,0,3.77075,-0.0868053,0.155274,0.398811
1796,0,3.7691,-0.09362,0.159951,0.400679
1798,0,3.77146,-0.0902472,0.158349,0.400449
1800,0,3.77124,-0.0917745,0.16133,0.40077
1802,0,3.77352,-0.0871521,0.159868,0.404009
1804,0,3.77331,-0.0893826,0.158725,0.404908
1806,0,3.76797,-0.0941028,0.158841,0.397555
1808,0,3.77174,-0.0955188,0.161378,0.398119
1813,0,3.77249,-0.0805639,0.152857,0.397948
1814,0,3.76394,-0.0971295,0.153891,0.385854