File: calce_correlation_analysis/matrices/CALCE_CS2_34_cycle_feature_matrix.csv
cycle_number,rul,voltage,current,capacity,charge_capacity
6,449,3.83333,-0.0223968,0.297061,0.848468
7,448,3.83321,-0.022339,0.2971,0.846772
8,447,3.83169,-0.0234816,0.297674,0.845378
9,446,3.83621,-0.0223563,0.297393,0.845696
10,445,3.83436,-0.0214063,0.296984,0.846922
11,444,3.83603,-0.0204549,0.295404,0.846125
12,443,3.83642,-0.0192722,0.294959,0.846126
13,442,3.83608,-0.0194,0.294973,0.845815
14,441,3.83569,-0.0193466,0.29499,0.845447
15,440,3.8348,-0.0205461,0.295603,0.844664
17,439,3.83654,-0.0195299,0.293994,0.843666
18,438,3.83636,-0.0195549,0.294026,0.843165
19,437,3.83597,-0.0195368,0.294027,0.842687
20,436,3.83573,-0.0194607,0.294057,0.842253
21,435,3.8327,-0.0195611,0.292449,0.839694
22,434,3.83431,-0.0213736,0.293378,0.836105
23,433,3.83565,-0.0214338,0.29221,0.834047
24,432,3.83573,-0.0226037,0.292707,0.832841
25,431,3.83616,-0.0204677,0.293239,0.836352
26,430,3.83388,-0.0193606,0.29146,0.836283
27,429,3.8357,-0.0214942,0.291014,0.831145
28,428,3.83606,-0.0213789,0.291041,0.830186
29,427,3.83599,-0.0214757,0.290955,0.829765
30,426,3.83677,-0.0204224,0.292004,0.832749
31,425,3.83549,-0.01942,0.290419,0.833212
32,424,3.83464,-0.0213958,0.290983,0.829138
33,423,3.83635,-0.0214611,0.290008,0.827538
34,422,3.8355,-0.0213142,0.289871,0.826942
35,421,3.83794,-0.0216422,0.291383,0.828893
36,420,3.83783,-0.019389,0.289335,0.830108
37,419,3.83483,-0.0215028,0.289907,0.827023
38,418,3.83527,-0.0212639,0.289948,0.825601
39,417,3.83686,-0.0204257,0.288197,0.824776
41,416,3.83708,-0.0206834,0.289826,0.827631
42,415,3.83326,-0.0205691,0.288271,0.82522
43,414,3.83598,-0.0216293,0.288769,0.822708
44,413,3.83491,-0.0228598,0.289305,0.82181
45,412,3.83695,-0.0226711,0.289342,0.821314
46,411,3.83756,-0.0206484,0.288653,0.824301
47,410,3.83805,-0.0195148,0.288152,0.825154
48,409,3.83783,-0.0196731,0.288243,0.825424
49,408,3.83799,-0.0197304,0.288317,0.82555
50,407,3.83805,-0.0185544,0.287866,0.82617
51,406,3.83816,-0.0185939,0.287874,0.82605
52,405,3.83785,-0.0188286,0.287955,0.825749
57,404,3.835,-0.0214825,0.290079,0.827143
58,403,3.83429,-0.0214622,0.290018,0.826306
59,402,3.83542,-0.0225082,0.28911,0.822634
60,401,3.83569,-0.0214169,0.288696,0.823082
61,400,3.83395,-0.0214492,0.28739,0.820801
62,399,3.83545,-0.022554,0.287959,0.818921
63,398,3.83491,-0.0224845,0.287987,0.818305
64,397,3.83321,-0.0236087,0.288388,0.816942
65,396,3.83515,-0.0224602,0.288005,0.817315
66,395,3.83521,-0.021438,0.286272,0.816755
67,394,3.83484,-0.023721,0.287314,0.81446
68,393,3.83454,-0.0236887,0.287327,0.814047
69,392,3.83316,-0.0238218,0.287217,0.813723
70,391,3.83677,-0.022192,0.286213,0.814638
71,390,3.83498,-0.0225736,0.286825,0.814065
72,389,3.83491,-0.0225773,0.286792,0.813668
73,388,3.83743,-0.022371,0.285118,0.813045
74,387,3.8377,-0.0212091,0.284568,0.813228
75,386,3.8361,-0.022663,0.285725,0.811962
76,385,3.83576,-0.0227361,0.285685,0.811517
77,384,3.8357,-0.022703,0.285635,0.811133
78,383,3.8356,-0.0226837,0.285659,0.810816
79,382,3.83658,-0.022424,0.285065,0.811013
80,381,3.83516,-0.0227015,0.285657,0.810353
81,380,3.83747,-0.0216478,0.283944,0.809381
86,379,3.84755,-0.0344517,0.291062,0.78358
87,378,3.83597,-0.0221827,0.28512,0.813462
88,377,3.83678,-0.0226981,0.287149,0.813903
89,376,3.83666,-0.020547,0.284958,0.814463
91,375,3.84711,-0.0776115,0.313296,0.688976
92,374,3.8399,-0.0234894,0.287263,0.814051
94,373,3.83169,-0.0215222,0.285265,0.813266
95,372,3.83694,-0.0221962,0.28519,0.810719
96,371,3.83453,-0.0239151,0.286421,0.809122
97,370,3.83844,-0.0235272,0.285737,0.808482
98,369,3.83903,-0.0205245,0.28519,0.811937
99,368,3.83414,-0.0195676,0.283045,0.810967
100,367,3.83669,-0.023719,0.284672,0.806568
101,366,3.83651,-0.0225025,0.284038,0.806818
102,365,3.83427,-0.023789,0.284602,0.805753
103,364,3.83941,-0.0218501,0.284557,0.807635
104,363,3.835,-0.0206653,0.284131,0.809335
105,362,3.83553,-0.0229403,0.283541,0.803771
106,361,3.83712,-0.0226221,0.282952,0.80405
107,360,3.8352,-0.023757,0.283527,0.803036
108,359,3.83975,-0.0227752,0.284892,0.804236
109,358,3.83738,-0.0218063,0.284547,0.806795
110,357,3.83723,-0.0218105,0.284633,0.807037
111,356,3.83779,-0.0207044,0.284122,0.807511
112,355,3.83767,-0.0205685,0.284161,0.807451
113,354,3.83758,-0.0206943,0.284228,0.807745
114,353,3.83731,-0.0207753,0.284256,0.807689
116,352,3.8373,-0.0206962,0.284289,0.807841
117,351,3.83949,-0.0197033,0.282676,0.807078
118,350,3.83951,-0.0196753,0.282672,0.806969
119,349,3.83988,-0.0197644,0.28278,0.807178
120,348,3.83845,-0.0186619,0.282217,0.807717
121,347,3.83714,-0.0214375,0.281363,0.801929
122,346,3.83632,-0.0229263,0.28255,0.799754
123,345,3.83661,-0.0224809,0.281898,0.800136
124,344,3.84155,-0.0238594,0.282712,0.799254
125,343,3.83732,-0.0219326,0.283531,0.803194
126,342,3.83445,-0.0215457,0.280107,0.799583
127,341,3.83869,-0.022577,0.280694,0.796968
128,340,3.83806,-0.0228511,0.280718,0.79655
129,339,3.83858,-0.0239229,0.281161,0.796559
130,338,3.83825,-0.0219296,0.282276,0.800374
131,337,3.83499,-0.0197015,0.27982,0.800739
132,336,3.83762,-0.0225403,0.280625,0.796797
133,335,3.83738,-0.0227674,0.280728,0.796793
134,334,3.83666,-0.0224848,0.280713,0.797019
135,333,3.84115,-0.0216495,0.280543,0.79813
136,332,3.83874,-0.0198165,0.280145,0.800439
137,331,3.83795,-0.0213627,0.278972,0.796678
139,330,3.83907,-0.0216699,0.279045,0.796007
140,329,3.83829,-0.0238815,0.281264,0.795252
143,328,3.83919,-0.0185089,0.282114,0.808459
144,327,3.83829,-0.0196885,0.282704,0.807263
145,326,3.83804,-0.0195553,0.282737,0.806618
146,325,3.83797,-0.0197108,0.28278,0.806374
147,324,3.83744,-0.0197727,0.282862,0.8062
149,323,3.83979,-0.0186529,0.281214,0.805374
150,322,3.83953,-0.0187039,0.281198,0.80489
151,321,3.83944,-0.0186854,0.281195,0.804536
152,320,3.83946,-0.0187879,0.281181,0.804519
153,319,3.8388,-0.0189116,0.281247,0.804265
154,318,3.83874,-0.0188511,0.281237,0.803936
155,317,3.8377,-0.0177224,0.279528,0.803141
156,316,3.83723,-0.0220215,0.281042,0.797052
157,315,3.83826,-0.0209562,0.279375,0.796489
158,314,3.83786,-0.021673,0.279162,0.795176
159,313,3.84112,-0.0219011,0.28123,0.796045
160,312,3.83857,-0.0209701,0.28088,0.798652
161,311,3.83566,-0.0217622,0.27913,0.795325
162,310,3.83764,-0.0230094,0.279762,0.79328
163,309,3.83915,-0.0205877,0.277419,0.793576
164,308,3.83901,-0.0241515,0.280153,0.791913
165,307,3.83898,-0.0209983,0.279603,0.795473
166,306,3.83482,-0.0194939,0.276851,0.794466
167,305,3.83774,-0.0228148,0.278412,0.790737
168,304,3.83814,-0.0218418,0.276694,0.789845
169,303,3.83775,-0.0229202,0.277175,0.788787
170,302,3.83989,-0.0221104,0.278908,0.790814
171,301,3.83657,-0.0210295,0.278421,0.79288
172,300,3.83725,-0.0228392,0.277203,0.788779
173,299,3.83887,-0.0229689,0.27732,0.788184
174,298,3.83795,-0.0225616,0.277323,0.788868
175,297,3.8409,-0.0229625,0.278779,0.790117
176,296,3.83854,-0.0211149,0.278471,0.792544
177,295,3.83416,-0.0218905,0.276659,0.78966
178,294,3.83931,-0.021436,0.275621,0.787003
179,293,3.83732,-0.024007,0.277852,0.786491
181,292,3.81709,-0.104628,0.313247,0.697149
182,291,3.81694,-0.0540492,0.291437,0.776497
183,290,3.81986,-0.0482509,0.288872,0.780413
184,289,3.82092,-0.0456409,0.2876,0.781652
185,288,3.82178,-0.0442924,0.28697,0.78232
186,287,3.82285,-0.0429236,0.286356,0.782698
187,286,3.82243,-0.0429025,0.286326,0.782875
188,285,3.82321,-0.0416141,0.28571,0.78304
189,284,3.82296,-0.0415314,0.285709,0.782786
190,283,3.82348,-0.0415251,0.2857,0.782784
191,282,3.82294,-0.0414901,0.2857,0.782611
192,281,3.82411,-0.040202,0.285081,0.782971
193,280,3.82373,-0.0402135,0.285063,0.783007
194,279,3.82058,-0.0379726,0.281561,0.780236
195,278,3.82357,-0.0426344,0.284029,0.774462
196,277,3.82166,-0.0413327,0.283392,0.775217
197,276,3.82122,-0.0438971,0.284639,0.773264
198,275,3.82454,-0.0412762,0.284534,0.777408
199,274,3.82225,-0.0388615,0.282168,0.778309
200,273,3.82328,-0.0422953,0.282254,0.772447
201,272,3.82485,-0.0410481,0.281634,0.772462
202,271,3.82257,-0.0409417,0.281613,0.772399
203,270,3.8269,-0.0412192,0.283401,0.773011
204,269,3.82637,-0.0388608,0.281042,0.77491
205,268,3.82333,-0.0408816,0.280504,0.77096
206,267,3.82449,-0.0410458,0.280492,0.77007
207,266,3.82372,-0.0408541,0.28048,0.76977
208,265,3.82729,-0.04314,0.28289,0.770359
209,264,3.82776,-0.0384244,0.280402,0.77367
210,263,3.82089,-0.0396264,0.279862,0.771548
211,262,3.82396,-0.0421537,0.281108,0.768588
212,261,3.82566,-0.0411351,0.27938,0.767613
213,260,3.82653,-0.0420773,0.281114,0.767637
214,259,3.82638,-0.0396465,0.281005,0.77179
215,258,3.82369,-0.0373996,0.277508,0.770223
216,257,3.82509,-0.0423872,0.280062,0.765992
217,256,3.82447,-0.0411295,0.279478,0.766193
219,255,3.82837,-0.0394532,0.27986,0.768599
220,254,3.82822,-0.0384345,0.279269,0.770358
221,253,3.82823,-0.0384816,0.279275,0.770765
222,252,3.82929,-0.0370704,0.278665,0.771362
223,251,3.82941,-0.0372849,0.278666,0.771449
224,250,3.82915,-0.0371815,0.278665,0.771795
225,249,3.82909,-0.0371241,0.278664,0.771956
226,248,3.82913,-0.0372588,0.278672,0.771623
227,247,3.82906,-0.0373009,0.278664,0.771435
228,246,3.82926,-0.0373045,0.278671,0.771637
229,245,3.82918,-0.037258,0.27866,0.771766
230,244,3.82995,-0.0359967,0.278046,0.772022
231,243,3.8321,-0.0432666,0.281777,0.766609
232,242,3.8263,-0.0404643,0.280521,0.771162
234,241,3.82658,-0.0357683,0.278048,0.775092
235,240,3.8264,-0.0394927,0.278762,0.768755
236,239,3.82589,-0.0393609,0.278739,0.767696
237,238,3.8264,-0.0392209,0.278729,0.76709
238,237,3.83,-0.0394749,0.279877,0.769134
239,236,3.82748,-0.038267,0.279255,0.771104
240,235,3.82471,-0.039531,0.277591,0.766113
241,234,3.82669,-0.0394432,0.277601,0.764122
242,233,3.82663,-0.0408229,0.278216,0.763425
243,232,3.82923,-0.0419821,0.279978,0.764438
244,231,3.82899,-0.0383363,0.278136,0.767888
245,230,3.82307,-0.0382326,0.276952,0.765547
246,229,3.82578,-0.0408352,0.27819,0.762347
247,228,3.82518,-0.0406275,0.278184,0.762195
248,227,3.82537,-0.0417983,0.278805,0.760903
249,226,3.82767,-0.0395663,0.278716,0.765294
250,225,3.82643,-0.0359711,0.274623,0.765077
251,224,3.82638,-0.0408036,0.277067,0.759796
252,223,3.82618,-0.0407075,0.277076,0.75942
254,222,3.82999,-0.0396317,0.27759,0.761478
255,221,3.82856,-0.0383239,0.276971,0.763753
256,220,3.82869,-0.0383847,0.276973,0.764019
257,219,3.82904,-0.0384633,0.276977,0.764136
258,218,3.83005,-0.0371711,0.276372,0.764902
259,217,3.83018,-0.0371537,0.276375,0.76534
260,216,3.83014,-0.0372475,0.276376,0.765535
261,215,3.83096,-0.0358442,0.275748,0.765875
262,214,3.83096,-0.0359754,0.275767,0.765945
263,213,3.83092,-0.0359738,0.275826,0.765945
264,212,3.83098,-0.0362123,0.275851,0.765962
265,211,3.83084,-0.0361376,0.275834,0.766055
266,210,3.82673,-0.0349946,0.274079,0.7654
267,209,3.82718,-0.0399914,0.275401,0.757919
268,208,3.82749,-0.0398914,0.27538,0.757044
269,207,3.82582,-0.0398197,0.275362,0.756456
270,206,3.83175,-0.0399148,0.276525,0.758335
271,205,3.82984,-0.0373504,0.275291,0.761532
272,204,3.82681,-0.0388226,0.273637,0.756695
274,203,3.82585,-0.0410155,0.275902,0.756358
275,202,3.82713,-0.0409555,0.275911,0.754301
276,201,3.82936,-0.0398377,0.27644,0.758453
277,200,3.82832,-0.0360783,0.273465,0.759877
278,199,3.82829,-0.0395548,0.274165,0.753573
283,198,3.82599,-0.0393325,0.276442,0.761563
284,197,3.82545,-0.0405983,0.277102,0.759032
285,196,3.82586,-0.0407501,0.277052,0.758838
286,195,3.82776,-0.0394355,0.275328,0.757982
287,194,3.82647,-0.0419297,0.277665,0.757298
288,193,3.82976,-0.0381855,0.275843,0.760753
289,192,3.82932,-0.0380703,0.275844,0.761381
290,191,3.82922,-0.0384119,0.275836,0.761699
291,190,3.83009,-0.0370705,0.275218,0.761807
293,189,3.71,-0.504095,0.497155,0.010579
294,188,3.8295,-0.0382564,0.275826,0.759153
295,187,3.83103,-0.0370518,0.275233,0.760837
296,186,3.82946,-0.0358164,0.273486,0.760584
297,185,3.82911,-0.0397467,0.275315,0.756742
298,184,3.8306,-0.0384631,0.274704,0.757465
299,183,3.83055,-0.0372339,0.274096,0.758184
300,182,3.83145,-0.0371262,0.275215,0.759509
301,181,3.83002,-0.0371705,0.27521,0.760784
302,180,3.82803,-0.0370764,0.274067,0.758053
303,179,3.82967,-0.0383028,0.274675,0.755894
304,178,3.82872,-0.0384619,0.274666,0.756373
305,177,3.83109,-0.0384697,0.274702,0.755869
306,176,3.83153,-0.0359594,0.273468,0.758123
307,175,3.82899,-0.0347506,0.271703,0.757045
308,174,3.82921,-0.0385321,0.273539,0.752838
309,173,3.82887,-0.0384372,0.273527,0.753228
310,172,3.83016,-0.0371485,0.2718,0.751857
311,171,3.83276,-0.0372763,0.272944,0.753444
312,170,3.83024,-0.0359157,0.272305,0.755318
313,169,3.82927,-0.0387197,0.272409,0.751375
314,168,3.83021,-0.0386652,0.272412,0.750838
315,167,3.83177,-0.0373836,0.271805,0.751093
316,166,3.83161,-0.0384988,0.273535,0.751651
317,165,3.83178,-0.0361296,0.272324,0.754444
318,164,3.83165,-0.0361447,0.272325,0.75475
319,163,3.83143,-0.0361443,0.272327,0.754931
320,162,3.83226,-0.0361075,0.272341,0.754914
321,161,3.83279,-0.0349362,0.271735,0.755742
322,160,3.83259,-0.0348758,0.271722,0.755848
323,159,3.83255,-0.0349383,0.271732,0.755926
324,158,3.83237,-0.0349277,0.271714,0.755789
325,157,3.83228,-0.034855,0.271717,0.755655
326,156,3.8324,-0.0349101,0.271725,0.755585
327,155,3.83218,-0.0349575,0.271716,0.75551
328,154,3.83204,-0.0349877,0.271721,0.755396
329,153,3.82971,-0.0350243,0.269504,0.751447
330,152,3.83093,-0.0375991,0.270707,0.747727
331,151,3.83107,-0.0376603,0.270703,0.747607
332,150,3.82932,-0.0377021,0.270682,0.747385
333,149,3.83172,-0.0376348,0.271833,0.748569
334,148,3.83231,-0.0351746,0.269487,0.75011
335,147,3.83151,-0.0364108,0.268965,0.746262
336,146,3.83086,-0.0376065,0.270691,0.745881
337,145,3.83206,-0.0364365,0.268974,0.745811
338,144,3.83227,-0.0387316,0.271332,0.745015
339,143,3.83241,-0.0363232,0.270121,0.748297
340,142,3.82954,-0.0352985,0.268373,0.747192
341,141,3.83171,-0.0378211,0.26963,0.74371
347,140,3.82787,-0.0361275,0.271229,0.753582
348,139,3.8299,-0.0387255,0.272457,0.749545
349,138,3.83286,-0.036277,0.270121,0.74937
350,137,3.83216,-0.0374651,0.270736,0.748325
351,136,3.83226,-0.0361888,0.271249,0.751044
352,135,3.83172,-0.0362989,0.271248,0.751817
353,134,3.8315,-0.036234,0.271238,0.751646
354,133,3.83156,-0.0363272,0.271246,0.751605
355,132,3.83249,-0.0351043,0.270629,0.751997
356,131,3.83189,-0.0351117,0.270613,0.751855
357,130,3.83106,-0.0364139,0.27122,0.751302
358,129,3.83326,-0.0352273,0.269524,0.750448
359,128,3.8333,-0.0352092,0.269505,0.750073
360,127,3.83315,-0.0351087,0.26951,0.749882
361,126,3.83296,-0.0351272,0.269499,0.74972
362,125,3.83281,-0.0352388,0.269497,0.749555
364,124,3.83093,-0.0364975,0.267823,0.744647
365,123,3.83311,-0.0364883,0.267816,0.741782
366,122,3.83206,-0.0365549,0.267799,0.741586
367,121,3.8324,-0.0387523,0.270168,0.740585
368,120,3.83235,-0.0365584,0.268948,0.744468
369,119,3.83111,-0.034271,0.265463,0.74268
370,118,3.83251,-0.0378121,0.267279,0.737968
371,117,3.83191,-0.0378431,0.267222,0.737806
372,116,3.8307,-0.0378796,0.267191,0.737338
373,115,3.83366,-0.0378695,0.268369,0.738882
374,114,3.83249,-0.0352789,0.267128,0.741973
375,113,3.83063,-0.0365243,0.266572,0.738235
376,112,3.83127,-0.037922,0.267198,0.736492
377,111,3.83299,-0.0364496,0.265469,0.735375
378,110,3.83316,-0.0390987,0.267832,0.734788
379,109,3.83459,-0.0354378,0.26602,0.739141
380,108,3.83087,-0.034262,0.264241,0.738645
381,107,3.83117,-0.0392925,0.266681,0.732666
382,106,3.83337,-0.0367295,0.264346,0.732745
384,105,3.83528,-0.0405256,0.2673,0.728587
385,104,3.83363,-0.0366069,0.265452,0.733934
391,103,3.83281,-0.0380937,0.264916,0.729521
392,102,3.83356,-0.0367358,0.264316,0.730255
399,101,3.8295,-0.0405339,0.266171,0.73019
402,100,3.82857,-0.0376413,0.263177,0.731539
403,99,3.83291,-0.0402961,0.263277,0.724732
405,98,3.71929,-0.472663,0.454604,0.0874555
406,97,3.8315,-0.0393863,0.261536,0.72067
407,96,3.83223,-0.0419693,0.262785,0.718492
409,95,3.83265,-0.0364232,0.261424,0.726473
410,94,3.83197,-0.0405124,0.261014,0.718842
411,93,3.83231,-0.0405859,0.260993,0.717125
412,92,3.83112,-0.0417024,0.26158,0.715461
415,91,3.82924,-0.036733,0.25909,0.719717
416,90,3.83273,-0.0419666,0.260465,0.713078
417,89,3.83321,-0.0407284,0.258721,0.711624
418,88,3.83252,-0.040404,0.258684,0.709793
419,87,3.83519,-0.0417887,0.261596,0.712353
420,86,3.83461,-0.0378992,0.259715,0.716534
422,85,3.83442,-0.0405857,0.258694,0.712026
423,84,3.8345,-0.0395317,0.258082,0.710826
424,83,3.83301,-0.0394219,0.258047,0.710251
425,82,3.8369,-0.0395514,0.259222,0.711009
426,81,3.83548,-0.0382463,0.258604,0.714161
427,80,3.83181,-0.0395783,0.25804,0.711107
428,79,3.83395,-0.039486,0.258047,0.70911
429,78,3.83589,-0.0382121,0.256334,0.708404
430,77,3.83407,-0.0408188,0.258662,0.707691
431,76,3.83658,-0.0382612,0.257469,0.710648
432,75,3.83455,-0.0379271,0.25858,0.712681
433,74,3.83424,-0.0381883,0.258564,0.712816
434,73,3.83436,-0.0381048,0.258569,0.712847
435,72,3.83535,-0.0367929,0.257959,0.712974
436,71,3.83535,-0.0369055,0.257966,0.713432
437,70,3.8352,-0.0368468,0.257962,0.713439
438,69,3.83506,-0.0368645,0.257959,0.713401
439,68,3.83478,-0.0367079,0.257964,0.7134
440,67,3.83675,-0.035696,0.25624,0.712287
441,66,3.83588,-0.0370952,0.256845,0.710955
442,65,3.83557,-0.0370921,0.25689,0.710783
443,64,3.83514,-0.0371767,0.256881,0.710348
444,63,3.83152,-0.0371798,0.254572,0.706808
445,62,3.83549,-0.0400293,0.254699,0.701041
446,61,3.83499,-0.039917,0.254641,0.700403
447,60,3.83362,-0.03986,0.254618,0.699324
448,59,3.83708,-0.0383034,0.255161,0.701877
449,58,3.8348,-0.0371404,0.254528,0.704372
460,57,3.83538,-0.0364794,0.261457,0.726685
461,56,3.83421,-0.0377499,0.262028,0.724712
462,55,3.836,-0.0365883,0.260304,0.722491
463,54,3.83708,-0.0368064,0.26206,0.722713
464,53,3.83531,-0.0354389,0.261429,0.724881
472,52,3.83153,-0.0395775,0.256943,0.710377
473,51,3.83276,-0.0411194,0.255295,0.702888
474,50,3.83363,-0.0413162,0.254148,0.698794
477,49,3.82954,-0.0383252,0.251733,0.699436
478,48,3.83432,-0.041271,0.251835,0.690394
479,47,3.8338,-0.0429463,0.251311,0.686929
481,46,3.83724,-0.0453545,0.253722,0.687069
483,45,3.82934,-0.0387391,0.248267,0.687432
484,44,3.83409,-0.0430907,0.249032,0.678431
485,43,3.83468,-0.0434402,0.247906,0.676171
486,42,3.83356,-0.0435501,0.246757,0.673323
487,41,3.83309,-0.0443729,0.246713,0.670767
488,40,3.83428,-0.0447005,0.245589,0.667828
489,39,3.83443,-0.0451949,0.245101,0.664811
490,38,3.83339,-0.0466459,0.246826,0.665002
491,37,3.83771,-0.0435589,0.246737,0.668531
492,36,3.83464,-0.0422153,0.246103,0.671463
493,35,3.83493,-0.0422526,0.246084,0.670795
494,34,3.83512,-0.0419843,0.246087,0.670333
495,33,3.83481,-0.0421258,0.246078,0.670612
496,32,3.83741,-0.0408593,0.24437,0.669877
497,31,3.83719,-0.0410364,0.244364,0.669976
498,30,3.83627,-0.0409744,0.24434,0.669305
499,29,3.83553,-0.0409948,0.244313,0.668415
500,28,3.83706,-0.0412753,0.243268,0.666635
501,27,3.83655,-0.0410518,0.243258,0.665509
502,26,3.83627,-0.0411768,0.243245,0.664871
503,25,3.8362,-0.0412971,0.243237,0.664713
504,24,3.83539,-0.0412181,0.243216,0.664323
505,23,3.8369,-0.0413252,0.242122,0.662652
506,22,3.83639,-0.0415031,0.242103,0.662189
507,21,3.83614,-0.0414956,0.242087,0.6615
508,20,3.83772,-0.0413079,0.242047,0.661306
509,19,3.83857,-0.0397848,0.241446,0.662578
510,18,3.83575,-0.0398789,0.241407,0.662603
511,17,3.83762,-0.0398365,0.240297,0.65973
512,16,3.83625,-0.0412868,0.24089,0.658215
513,15,3.83688,-0.0413028,0.240899,0.657502
514,14,3.83776,-0.0399625,0.240292,0.658975
515,13,3.83836,-0.0400369,0.240287,0.659037
516,12,3.83462,-0.0412225,0.240874,0.657941
520,11,3.83567,-0.0428506,0.24154,0.65991
521,10,3.8359,-0.0430314,0.240398,0.656267
522,9,3.83787,-0.0438286,0.240393,0.654995
523,8,3.83584,-0.0430636,0.240377,0.654206
524,7,3.83561,-0.0415524,0.238615,0.652407
525,6,3.83702,-0.0427393,0.237489,0.649677
526,5,3.83498,-0.0446664,0.23695,0.646097
527,4,3.83359,-0.0462,0.237559,0.643081
528,3,3.83491,-0.0477233,0.238189,0.642018
529,2,3.83645,-0.0447236,0.235823,0.641948
530,1,3.83361,-0.0465465,0.236416,0.640271
531,0,3.83517,-0.046525,0.235306,0.637938
532,0,3.83329,-0.0482464,0.235915,0.636411
533,0,3.83565,-0.0463751,0.234176,0.634931
534,0,3.83467,-0.048317,0.234797,0.633748
535,0,3.83578,-0.0464872,0.234171,0.63418
536,0,3.83459,-0.047023,0.23421,0.633401
537,0,3.83484,-0.0469481,0.234197,0.632787
538,0,3.83306,-0.0486288,0.234813,0.632171
539,0,3.83283,-0.0486696,0.234808,0.631536
540,0,3.83534,-0.0471832,0.233078,0.630645
541,0,3.83512,-0.0471231,0.233069,0.629939
542,0,3.83352,-0.048696,0.23369,0.629511
543,0,3.83249,-0.048772,0.23366,0.62874
544,0,3.83503,-0.047499,0.231985,0.626991
545,0,3.83341,-0.0491144,0.2326,0.625985
548,0,3.83374,-0.0426384,0.231236,0.634448
549,0,3.83316,-0.0472043,0.233089,0.62954
550,0,3.83235,-0.047453,0.231945,0.626345
551,0,3.83387,-0.0492094,0.231479,0.623604
552,0,3.83492,-0.0493846,0.231484,0.622518
553,0,3.83305,-0.0489684,0.23252,0.624137
554,0,3.83561,-0.047674,0.230731,0.623853
555,0,3.83199,-0.0490162,0.231333,0.622609
556,0,3.83374,-0.0493496,0.230229,0.620028
557,0,3.83315,-0.0485902,0.230219,0.618968
558,0,3.83233,-0.0508622,0.230844,0.618343
559,0,3.83465,-0.0505205,0.231978,0.619918
560,0,3.83405,-0.0477163,0.229599,0.621125
575,0,3.82874,-0.0521761,0.232613,0.623118
576,0,3.83101,-0.0535324,0.232148,0.618359
577,0,3.83104,-0.054152,0.23215,0.618191
578,0,3.83183,-0.0522499,0.231493,0.618027
579,0,3.83262,-0.0521989,0.231498,0.618248
580,0,3.83292,-0.0493688,0.229099,0.617595
596,0,3.82952,-0.0533649,0.226956,0.606265
597,0,3.83002,-0.0553156,0.226484,0.602621
598,0,3.82767,-0.0574331,0.22716,0.600813
599,0,3.82865,-0.0576107,0.22605,0.598775
600,0,3.82795,-0.0588291,0.227798,0.598548
601,0,3.83062,-0.0557275,0.226505,0.600147
602,0,3.82893,-0.0543197,0.224723,0.599649
603,0,3.82681,-0.0577798,0.22489,0.594688
604,0,3.82814,-0.0581279,0.223762,0.591889
605,0,3.82576,-0.059978,0.224394,0.59044
606,0,3.82777,-0.059606,0.224409,0.589044
607,0,3.82748,-0.0567494,0.221952,0.589811
608,0,3.82806,-0.0570842,0.220843,0.585537
609,0,3.82434,-0.0602673,0.222146,0.582109
610,0,3.82686,-0.0593847,0.220378,0.580708
611,0,3.82465,-0.0601786,0.221016,0.578271
612,0,3.82389,-0.062687,0.221668,0.577906
613,0,3.82767,-0.0594485,0.220376,0.579581
614,0,3.82826,-0.0593917,0.220368,0.579836
615,0,3.8268,-0.0576884,0.218536,0.579074
616,0,3.8236,-0.0613196,0.219812,0.575669
617,0,3.82528,-0.0612378,0.218713,0.573305
618,0,3.82419,-0.0608737,0.218697,0.571631
619,0,3.82546,-0.0618213,0.217584,0.570705
620,0,3.82471,-0.0617909,0.21757,0.569813
621,0,3.82413,-0.061624,0.217564,0.568813
622,0,3.82266,-0.0619864,0.21754,0.568638
623,0,3.82417,-0.0615164,0.216429,0.565729
624,0,3.82315,-0.0621518,0.21642,0.565552
625,0,3.8215,-0.0636803,0.217072,0.564168
626,0,3.82209,-0.0640126,0.217065,0.564206
627,0,3.82347,-0.0616687,0.21641,0.564094
628,0,3.82388,-0.0609261,0.214627,0.564026
629,0,3.82215,-0.06262,0.215263,0.561864
630,0,3.82245,-0.0649359,0.215945,0.561925
631,0,3.82216,-0.0647149,0.215928,0.561067
632,0,3.82666,-0.0628118,0.215308,0.562484
633,0,3.82525,-0.060607,0.21575,0.565304
634,0,3.82413,-0.0592225,0.21396,0.564373
635,0,3.82554,-0.0611464,0.213515,0.561277
646,0,3.82109,-0.0645408,0.214825,0.559958
647,0,3.82148,-0.0652432,0.213703,0.557192
648,0,3.81875,-0.0674186,0.214336,0.555396
649,0,3.81996,-0.0675788,0.213224,0.552763
650,0,3.81937,-0.0675817,0.213204,0.551508
651,0,3.81859,-0.0705767,0.215679,0.55043
652,0,3.82039,-0.0658298,0.21143,0.551248
653,0,3.81906,-0.0682252,0.212077,0.548544
654,0,3.82031,-0.0681546,0.210965,0.546072
655,0,3.8194,-0.0680883,0.210946,0.544719
656,0,3.81859,-0.0704366,0.211627,0.544319
657,0,3.82128,-0.0681551,0.210965,0.544762
658,0,3.8221,-0.0662697,0.210295,0.545594
659,0,3.82135,-0.0664503,0.210288,0.545614
660,0,3.81982,-0.06778,0.210949,0.544132
661,0,3.81941,-0.0683915,0.210932,0.544539
662,0,3.82229,-0.0684879,0.210965,0.544421
663,0,3.82157,-0.0658931,0.211391,0.546945
664,0,3.82286,-0.0662923,0.211401,0.547701
665,0,3.82085,-0.0662385,0.210325,0.545883
666,0,3.82039,-0.067196,0.210304,0.54401
667,0,3.81893,-0.0685851,0.209856,0.541278
668,0,3.8181,-0.0708845,0.21051,0.539927
669,0,3.8194,-0.0698954,0.211579,0.54073
670,0,3.8198,-0.0680326,0.210905,0.542389
671,0,3.82013,-0.0669303,0.209116,0.542368
672,0,3.81749,-0.0706951,0.210433,0.539505
673,0,3.81706,-0.0688293,0.207507,0.536414
675,0,3.81715,-0.0732587,0.208871,0.530806
676,0,3.81994,-0.072011,0.209326,0.533603
678,0,3.82029,-0.0679498,0.205731,0.534542
679,0,3.81956,-0.0701567,0.206409,0.531351
680,0,3.81757,-0.0700685,0.206361,0.530807
681,0,3.81935,-0.0701961,0.205276,0.528281
682,0,3.82204,-0.0700828,0.206418,0.529577
683,0,3.82055,-0.0680882,0.205718,0.531968
684,0,3.81868,-0.0675945,0.205688,0.530438
685,0,3.81984,-0.0688141,0.204572,0.528279
686,0,3.82073,-0.0687302,0.203465,0.526305
690,0,3.81663,-0.0687214,0.204559,0.53019
691,0,3.81554,-0.0712562,0.204119,0.525724
692,0,3.81625,-0.0714822,0.202989,0.522343
693,0,3.81363,-0.0736348,0.203639,0.520355
694,0,3.81609,-0.0717309,0.201853,0.517939
695,0,3.81656,-0.0717069,0.200734,0.514978
696,0,3.81425,-0.0728615,0.199583,0.513026
697,0,3.81144,-0.0758484,0.200222,0.509264
698,0,3.81214,-0.0772739,0.199827,0.506036
699,0,3.81112,-0.0784889,0.199795,0.505696
700,0,3.8132,-0.0784045,0.199812,0.504948
701,0,3.81399,-0.0761559,0.199107,0.505982
702,0,3.81321,-0.0763967,0.1991,0.505343
704,0,3.81318,-0.0720715,0.195453,0.513117
705,0,3.80957,-0.0805518,0.198227,0.498641
706,0,3.81304,-0.0804327,0.198253,0.497342
707,0,3.81305,-0.0789302,0.198649,0.500849
709,0,3.81086,-0.0767671,0.195694,0.498016
710,0,3.81175,-0.0792682,0.195287,0.49309
711,0,3.8109,-0.0798224,0.194159,0.490525
712,0,3.80834,-0.0832255,0.195944,0.488954
713,0,3.81175,-0.0821742,0.194856,0.489
714,0,3.81245,-0.079851,0.194146,0.488923
715,0,3.81168,-0.0806788,0.194137,0.489401
716,0,3.80948,-0.0793541,0.192284,0.487367
717,0,3.8085,-0.0842799,0.192576,0.483507
718,0,3.8098,-0.0826755,0.190746,0.481183
719,0,3.80626,-0.0851421,0.19141,0.478596
720,0,3.80838,-0.0866397,0.192149,0.477408
721,0,3.80854,-0.0847113,0.192521,0.479314
722,0,3.81162,-0.08292,0.190741,0.479413
723,0,3.80827,-0.081627,0.188881,0.477104
724,0,3.80694,-0.0854553,0.190274,0.474342
726,0,3.80256,-0.087586,0.188702,0.46724
727,0,3.80602,-0.0873042,0.18688,0.466421
728,0,3.80951,-0.0876163,0.186929,0.464636
729,0,3.80673,-0.0852454,0.186159,0.465713
734,0,3.79869,-0.0945375,0.180861,0.447638
735,0,3.7945,-0.096285,0.181521,0.444345
736,0,3.79671,-0.0980017,0.179346,0.440746
741,0,3.79292,-0.10254,0.177769,0.432171
742,0,3.79442,-0.102891,0.176672,0.428649
743,0,3.79248,-0.103261,0.176636,0.427033
744,0,3.79151,-0.107548,0.179228,0.426341
746,0,3.79874,-0.0932262,0.175553,0.445614
747,0,3.80014,-0.097983,0.175208,0.429262
748,0,3.79718,-0.0999523,0.175906,0.427457
749,0,3.79519,-0.102355,0.17664,0.426302
750,0,3.79656,-0.101496,0.174797,0.425459
751,0,3.79502,-0.102724,0.175524,0.422867
755,0,3.79526,-0.10181,0.17366,0.422386
756,0,3.79578,-0.102572,0.172569,0.41875
757,0,3.78988,-0.101516,0.169521,0.415436
758,0,3.78508,-0.111111,0.170636,0.407496
760,0,3.79148,-0.106285,0.169917,0.418658
761,0,3.78961,-0.108753,0.169897,0.407577
764,0,3.78237,-0.110738,0.166491,0.398687
765,0,3.78488,-0.112875,0.16433,0.392393
767,0,3.77901,-0.119008,0.165786,0.386953
770,0,3.78698,-0.109344,0.164631,0.393059
771,0,3.78263,-0.113607,0.164258,0.390293
772,0,3.78328,-0.110038,0.159433,0.385351
773,0,3.77876,-0.117257,0.159816,0.377898
774,0,3.77452,-0.119973,0.160535,0.374816
775,0,3.77654,-0.121177,0.160557,0.373609
776,0,3.77971,-0.116222,0.159802,0.374038
777,0,3.77583,-0.119121,0.158661,0.37451
778,0,3.77595,-0.12036,0.157573,0.370719
779,0,3.77299,-0.122394,0.156436,0.366824
780,0,3.77425,-0.122789,0.155359,0.363974